Folder: data-repository/host_upload/06-09-2024/ps_0852/dump3 (part 31)

File: ps__0852shot_2273.msa
#FORMAT      : EMSA/MAS spectral data file
#VERSION     : TC202v2.0 PIXL
#TITLE       : N/A
#DATE        :       Date in the format DD-MMM-YYYY, for example 07-JUL-2010
#TIME        :             The time of day at which the spectrum was recorded, in 24-hour format
#OWNER       : PIXL Flight Model       (PIXL will use this to indicate which instrument took the data.)
#NPOINTS     : 4096     Number of data points in the spectrum (This can be zero for configuration only files)
#NCOLUMNS    : 2     Number of data columns in the spectrum (This can be zero for configuration only files)
#XUNITS      : eV
#YUNITS      : COUNTS
#DATATYPE    : YY
#XPERCHAN    : 7.862, 7.881   eV per channel (separate by commas if more than one detector)
#OFFSET      : 18.5, -22.4         eV of first channel  (separate by commas if more than one detector
#SIGNALTYPE  : XRF
#YP_TEMP     : 2.235
#LIVETIME    : 8.57134, 8.55922   seconds (separate by commas if more than one detector)
#REALTIME    : 10, 10.0   seconds (separate by commas if more than one detector)
#SPECTRUM    : start of spectrum data
0, 0
0, 0
0, 0
0, 0
0, 0
0, 0
0, 0
0, 0
0, 2
3, 1
3, 2
37, 42
32, 72
2, 6
8, 2
79, 106
346, 496
74, 97
4, 4
2, 4
14, 16
91, 116
25, 33
19, 15
55, 65
60, 59
21, 27
10, 10
5, 5
3, 2
0, 3
0, 2
4, 3
4, 9
10, 16
1, 81
4, 105
4, 19
5, 5
4, 4
3, 4
5, 10
12, 34
7, 24
5, 8
6, 4
7, 4
2, 5
4, 9
10, 16
7, 12
2, 10
9, 11
36, 42
59, 62
77, 26
98, 48
400, 664
1661, 2576
1209, 1567
140, 170
12, 35
15, 21
63, 137
263, 375
184, 207
32, 22
15, 4
12, 11
4, 12
1, 20
4, 31
3, 12
6, 9
11, 7
11, 8
2, 3
6, 3
4, 5
5, 12
2, 4
2, 2
2, 7
0, 3
5, 18
1, 8
5, 6
3, 5
18, 3
7, 0
5, 5
1, 5
1, 13
6, 4
3, 8
0, 7
3, 1
1, 2
3, 2
2, 4
2, 1
3, 0
3, 0
1, 2
3, 4
4, 2
1, 1
0, 2
1, 1
2, 1
4, 3
4, 3
4, 2
1, 5
1, 2
3, 1
3, 6
1, 2
2, 4
1, 4
0, 2
2, 0
2, 0
1, 0
0, 4
1, 2
3, 2
2, 1
0, 1
2, 1
2, 1
0, 3
0, 4
1, 1
2, 0
3, 1
1, 0
1, 1
0, 0
0, 0
0, 1
0, 0
0, 0
0, 0
0, 3
0, 1
0, 0
0, 2
0, 0
0, 0
1, 0
0, 0
1, 0
0, 0
0, 1
0, 0
0, 0
0, 2
0, 0
1, 0
1, 0
1, 1
0, 0
0, 0
2, 0
0, 0
0, 0
1, 0
1, 1
0, 1
0, 0
0, 0
0, 0
2, 0
0, 0
0, 0
0, 0
0, 0
0, 0
0, 0
0, 0
0, 0
0, 0
0, 0
0, 0
0, 0
0, 0
0, 0
0, 0
0, 0
0, 0
0, 0
0, 0
0, 0
0, 0
0, 0
0, 0
0, 0
0, 0
0, 0
0, 0
0, 0
0, 0
1, 0
0, 0
0, 1
0, 1
0, 0
0, 0
0, 0
0, 0
0, 0
0, 0
0, 0
0, 0
0, 0
0, 0
0, 0
0, 0
0, 0
0, 0
0, 0
0, 0
0, 0
0, 0
0, 0
0, 0
0, 0
0, 0
0, 0
0, 0
0, 0
0, 0
0, 0
0, 0
0, 0
0, 0
0, 0
0, 0
0, 0
0, 0
0, 0
0, 0
0, 0
0, 0
0, 0
0, 0
0, 0
0, 0
0, 0
0, 0
0, 0
0, 0
0, 0
0, 0
0, 0
0, 0
0, 0
0, 0
0, 0
0, 0
0, 0
0, 0
0, 0
0, 0
0, 0
0, 0
0, 0
0, 0
0, 0
0, 0
0, 0
0, 0
0, 0
0, 0
0, 0
0, 0
0, 0
0, 0
0, 0
0, 0
0, 0
0, 0
0, 0
0, 0
0, 0
0, 0
0, 0
0, 0
0, 0
0, 0
0, 0
0, 0
0, 0
#ENDOFDATA     end of spectrum data

File: ps__0852shot_2274.msa
#FORMAT      : EMSA/MAS spectral data file
#VERSION     : TC202v2.0 PIXL
#TITLE       : N/A
#DATE        :       Date in the format DD-MMM-YYYY, for example 07-JUL-2010
#TIME        :             The time of day at which the spectrum was recorded, in 24-hour format
#OWNER       : PIXL Flight Model       (PIXL will use this to indicate which instrument took the data.)
#NPOINTS     : 4096     Number of data points in the spectrum (This can be zero for configuration only files)
#NCOLUMNS    : 2     Number of data columns in the spectrum (This can be zero for configuration only files)
#XUNITS      : eV
#YUNITS      : COUNTS
#DATATYPE    : YY
#XPERCHAN    : 7.862, 7.881   eV per channel (separate by commas if more than one detector)
#OFFSET      : 18.5, -22.4         eV of first channel  (separate by commas if more than one detector
#SIGNALTYPE  : XRF
#YP_TEMP     : 2.652
#LIVETIME    : 8.57135, 8.57258   seconds (separate by commas if more than one detector)
#REALTIME    : 10, 10.0   seconds (separate by commas if more than one detector)
#SPECTRUM    : start of spectrum data
0, 0
0, 0
0, 0
0, 0
0, 0
0, 0
0, 0
0, 0
0, 2
1, 3
2, 2
26, 49
40, 61
7, 8
3, 3
67, 112
322, 497
82, 122
4, 7
0, 4
8, 15
42, 61
18, 21
8, 20
29, 74
30, 59
25, 31
15, 15
3, 6
1, 4
2, 3
1, 1
2, 1
9, 9
7, 14
4, 12
2, 18
3, 15
3, 11
3, 8
10, 6
21, 19
19, 42
7, 22
6, 9
7, 10
3, 5
1, 6
5, 5
7, 15
9, 10
8, 7
6, 14
26, 55
46, 61
33, 17
33, 34
389, 663
1739, 2685
1219, 1541
131, 157
24, 25
18, 20
86, 132
255, 413
194, 232
29, 31
32, 9
36, 25
10, 7
3, 6
5, 4
11, 10
3, 11
0, 6
2, 5
6, 9
5, 5
3, 6
2, 9
3, 5
3, 6
5, 0
2, 6
4, 25
1, 15
6, 8
4, 4
4, 3
2, 6
3, 4
2, 4
4, 1
7, 2
0, 2
0, 4
2, 4
4, 4
1, 8
2, 3
1, 5
0, 7
3, 3
4, 2
2, 7
2, 8
0, 9
0, 6
5, 1
4, 3
2, 2
1, 2
8, 0
4, 2
1, 4
1, 0
2, 3
0, 2
3, 1
2, 1
0, 1
0, 2
3, 5
2, 4
1, 1
1, 1
0, 1
4, 2
0, 2
0, 0
1, 1
0, 1
1, 1
1, 0
0, 2
1, 1
1, 2
1, 2
0, 0
0, 2
0, 1
0, 2
0, 1
0, 1
0, 1
0, 2
0, 0
2, 0
0, 1
0, 1
0, 1
0, 0
0, 2
1, 1
0, 1
0, 0
0, 1
0, 0
0, 0
1, 0
0, 0
0, 0
0, 1
1, 1
0, 0
0, 0
0, 0
1, 0
0, 1
1, 0
1, 1
0, 0
0, 1
0, 0
0, 1
0, 0
0, 0
0, 0
0, 0
0, 0
1, 1
0, 0
0, 0
0, 0
0, 0
0, 0
0, 0
0, 0
0, 1
0, 0
0, 0
0, 0
0, 1
0, 0
0, 1
0, 1
0, 0
0, 0
0, 0
0, 0
0, 0
0, 0
0, 0
0, 0
0, 0
0, 0
0, 0
0, 0
0, 0
0, 0
0, 0
1, 0
0, 0
0, 0
0, 0
0, 0
0, 0
0, 0
0, 0
0, 0
0, 0
0, 0
0, 0
0, 0
0, 0
0, 0
0, 0
0, 0
0, 0
0, 0
0, 0
0, 0
0, 0
0, 0
0, 0
0, 0
0, 0
0, 0
0, 0
0, 0
0, 0
0, 0
0, 0
0, 0
0, 0
0, 0
0, 0
0, 0
0, 0
0, 0
0, 0
0, 0
0, 0
0, 0
0, 0
0, 0
0, 0
0, 0
0, 0
0, 0
0, 0
0, 0
0, 0
0, 0
0, 0
0, 0
0, 0
0, 0
0, 0
0, 0
0, 0
0, 0
0, 0
0, 0
0, 0
0, 0
0, 0
0, 0
0, 0
0, 0
0, 0
0, 0
0, 0
0, 0
0, 0
0, 0
0, 0
0, 0
0, 0
0, 0
0, 0
0, 0
0, 0
0, 0
#ENDOFDATA     end of spectrum data

File: ps__0852shot_2275.msa
#FORMAT      : EMSA/MAS spectral data file
#VERSION     : TC202v2.0 PIXL
#TITLE       : N/A
#DATE        :       Date in the format DD-MMM-YYYY, for example 07-JUL-2010
#TIME        :             The time of day at which the spectrum was recorded, in 24-hour format
#OWNER       : PIXL Flight Model       (PIXL will use this to indicate which instrument took the data.)
#NPOINTS     : 4096     Number of data points in the spectrum (This can be zero for configuration only files)
#NCOLUMNS    : 2     Number of data columns in the spectrum (This can be zero for configuration only files)
#XUNITS      : eV
#YUNITS      : COUNTS
#DATATYPE    : YY
#XPERCHAN    : 7.862, 7.881   eV per channel (separate by commas if more than one detector)
#OFFSET      : 18.5, -22.4         eV of first channel  (separate by commas if more than one detector
#SIGNALTYPE  : XRF
#YP_TEMP     : 2.684
#LIVETIME    : 8.5727, 8.57237   seconds (separate by commas if more than one detector)
#REALTIME    : 10, 10.0   seconds (separate by commas if more than one detector)
#SPECTRUM    : start of spectrum data
0, 0
0, 0
0, 0
0, 0
0, 0
0, 0
0, 0
0, 0
2, 3
2, 1
2, 3
32, 32
48, 59
5, 6
4, 3
83, 114
352, 383
105, 87
4, 10
1, 3
10, 10
44, 63
21, 29
8, 15
32, 46
45, 42
17, 22
8, 15
1, 2
0, 3
1, 6
2, 10
4, 1
8, 12
7, 10
4, 4
1, 5
3, 4
3, 7
1, 2
4, 6
18, 10
21, 12
11, 12
9, 9
3, 11
3, 7
4, 5
6, 10
11, 12
10, 6
11, 4
19, 16
32, 64
47, 73
14, 14
32, 41
429, 671
1865, 2473
1460, 1469
173, 153
15, 48
17, 43
99, 130
311, 423
228, 227
22, 29
7, 7
13, 15
6, 13
7, 8
5, 9
3, 5
0, 5
6, 3
3, 6
6, 7
3, 0
1, 3
4, 5
0, 3
8, 5
8, 5
12, 5
15, 6
6, 4
0, 4
2, 1
1, 2
6, 4
3, 7
7, 15
12, 16
15, 3
3, 6
1, 1
5, 5
6, 5
4, 5
1, 3
3, 7
2, 4
2, 7
1, 3
6, 4
3, 1
3, 3
2, 2
2, 2
1, 2
2, 3
4, 3
1, 1
2, 4
0, 1
3, 5
2, 7
2, 2
1, 2
1, 2
1, 1
2, 3
0, 2
4, 3
2, 0
5, 0
0, 4
2, 4
0, 3
1, 2
0, 1
2, 1
0, 4
0, 2
2, 1
2, 0
1, 1
0, 2
1, 0
0, 0
0, 0
1, 0
0, 1
0, 1
0, 4
0, 1
0, 1
0, 0
1, 0
0, 1
0, 1
0, 1
0, 0
0, 1
0, 0
0, 0
0, 0
0, 0
0, 0
0, 0
0, 0
0, 0
0, 0
1, 0
0, 1
0, 2
1, 0
1, 0
0, 0
0, 1
0, 0
1, 1
0, 0
0, 0
0, 0
0, 0
0, 0
0, 0
0, 0
0, 0
1, 0
0, 0
0, 0
0, 0
0, 0
0, 0
0, 0
0, 0
0, 0
0, 0
0, 0
0, 0
0, 0
0, 0
0, 0
0, 0
0, 0
0, 0
0, 0
0, 0
0, 0
0, 0
0, 0
0, 0
0, 0
0, 1
0, 0
0, 0
0, 0
0, 0
0, 0
0, 0
0, 0
0, 0
0, 1
0, 0
0, 0
0, 0
0, 0
0, 0
0, 0
0, 0
0, 0
0, 0
0, 0
0, 0
0, 0
0, 0
0, 0
0, 0
0, 0
0, 0
0, 0
0, 0
0, 0
0, 0
0, 0
0, 0
0, 0
0, 0
0, 0
0, 0
0, 0
0, 0
0, 0
0, 0
0, 0
0, 0
0, 0
0, 0
0, 0
0, 0
0, 0
0, 0
0, 0
0, 0
0, 0
0, 0
0, 0
0, 0
0, 0
0, 0
0, 0
0, 0
0, 0
0, 0
0, 0
0, 0
0, 0
0, 0
0, 0
0, 0
0, 0
0, 0
0, 0
0, 0
0, 0
0, 0
0, 0
0, 0
0, 0
0, 0
0, 0
0, 0
0, 0
0, 0
0, 0
0, 0
0, 0
0, 0
0, 0
0, 0
0, 0
0, 0
#ENDOFDATA     end of spectrum data

File: ps__0852shot_2276.msa
#FORMAT      : EMSA/MAS spectral data file
#VERSION     : TC202v2.0 PIXL
#TITLE       : N/A
#DATE        :       Date in the format DD-MMM-YYYY, for example 07-JUL-2010
#TIME        :             The time of day at which the spectrum was recorded, in 24-hour format
#OWNER       : PIXL Flight Model       (PIXL will use this to indicate which instrument took the data.)
#NPOINTS     : 4096     Number of data points in the spectrum (This can be zero for configuration only files)
#NCOLUMNS    : 2     Number of data columns in the spectrum (This can be zero for configuration only files)
#XUNITS      : eV
#YUNITS      : COUNTS
#DATATYPE    : YY
#XPERCHAN    : 7.862, 7.881   eV per channel (separate by commas if more than one detector)
#OFFSET      : 18.5, -22.4         eV of first channel  (separate by commas if more than one detector
#SIGNALTYPE  : XRF
#YP_TEMP     : 2.171
#LIVETIME    : 8.57055, 8.36591   seconds (separate by commas if more than one detector)
#REALTIME    : 10, 10.0   seconds (separate by commas if more than one detector)
#SPECTRUM    : start of spectrum data
0, 0
0, 0
0, 0
0, 0
0, 0
0, 0
0, 0
1, 0
0, 0
2, 0
0, 2
42, 38
41, 56
9, 5
1, 6
86, 79
365, 415
102, 97
4, 3
0, 1
10, 9
26, 41
14, 19
7, 16
48, 40
43, 39
18, 23
9, 10
1, 1
3, 1
2, 2
1, 5
4, 0
7, 11
17, 19
7, 4
3, 7
6, 8
3, 5
4, 3
18, 4
36, 3
19, 13
20, 6
7, 7
8, 6
8, 4
7, 6
11, 16
8, 34
10, 20
13, 17
10, 25
34, 58
51, 76
24, 25
30, 40
439, 590
2022, 2280
1470, 1372
157, 151
14, 27
16, 33
79, 139
319, 346
219, 202
23, 21
5, 10
14, 13
14, 10
4, 9
4, 3
1, 1
7, 3
2, 3
7, 10
5, 3
2, 6
5, 1
2, 8
3, 1
6, 1
10, 6
14, 3
9, 6
8, 5
3, 2
3, 5
4, 4
5, 4
3, 9
3, 7
11, 6
6, 3
10, 3
4, 4
1, 2
4, 4
4, 3
1, 9
1, 4
3, 2
2, 1
1, 5
2, 2
1, 2
1, 6
2, 5
0, 3
4, 2
2, 2
2, 1
3, 4
4, 2
2, 0
3, 2
9, 6
5, 7
3, 5
2, 2
1, 0
1, 1
1, 2
2, 2
3, 0
0, 4
0, 1
4, 0
1, 1
1, 0
1, 1
0, 2
1, 2
0, 1
0, 0
3, 4
0, 0
0, 1
0, 0
0, 0
1, 0
0, 1
0, 2
1, 0
1, 1
1, 1
0, 0
0, 1
0, 0
0, 0
1, 0
0, 1
0, 0
0, 0
0, 0
0, 0
0, 0
0, 0
0, 0
0, 0
0, 0
2, 0
0, 0
0, 2
0, 0
0, 0
0, 1
0, 0
0, 0
0, 0
0, 0
0, 0
0, 0
0, 0
1, 0
0, 0
0, 0
0, 0
0, 0
0, 0
0, 0
0, 1
0, 0
0, 0
0, 0
1, 0
0, 0
0, 0
0, 0
0, 0
1, 0
1, 0
0, 0
0, 0
0, 0
0, 0
0, 0
0, 0
0, 0
0, 0
0, 0
0, 0
0, 0
0, 0
0, 0
0, 0
0, 0
0, 0
1, 0
0, 0
0, 0
0, 0
0, 0
0, 0
0, 0
0, 0
0, 0
0, 0
0, 0
0, 0
0, 0
0, 0
0, 0
0, 0
0, 0
0, 0
0, 0
0, 0
0, 0
0, 0
0, 0
0, 0
0, 0
0, 0
0, 0
0, 0
0, 0
0, 0
0, 0
0, 0
0, 0
0, 0
0, 0
0, 0
0, 0
0, 0
0, 0
0, 0
0, 0
0, 0
0, 0
0, 0
0, 0
0, 0
0, 0
0, 0
0, 0
0, 0
0, 0
0, 0
0, 0
0, 0
0, 0
0, 0
0, 0
0, 0
0, 0
0, 0
0, 0
0, 0
0, 0
0, 0
0, 0
0, 0
0, 0
0, 0
0, 0
0, 0
0, 0
0, 0
0, 0
0, 0
0, 0
0, 0
0, 0
0, 0
0, 0
0, 0
0, 0
0, 0
0, 0
0, 0
0, 0
0, 0
#ENDOFDATA     end of spectrum data

File: ps__0852shot_2277.msa
#FORMAT      : EMSA/MAS spectral data file
#VERSION     : TC202v2.0 PIXL
#TITLE       : N/A
#DATE        :       Date in the format DD-MMM-YYYY, for example 07-JUL-2010
#TIME        :             The time of day at which the spectrum was recorded, in 24-hour format
#OWNER       : PIXL Flight Model       (PIXL will use this to indicate which instrument took the data.)
#NPOINTS     : 4096     Number of data points in the spectrum (This can be zero for configuration only files)
#NCOLUMNS    : 2     Number of data columns in the spectrum (This can be zero for configuration only files)
#XUNITS      : eV
#YUNITS      : COUNTS
#DATATYPE    : YY
#XPERCHAN    : 7.862, 7.881   eV per channel (separate by commas if more than one detector)
#OFFSET      : 18.5, -22.4         eV of first channel  (separate by commas if more than one detector
#SIGNALTYPE  : XRF
#YP_TEMP     : 2.332
#LIVETIME    : 8.56875, 8.56211   seconds (separate by commas if more than one detector)
#REALTIME    : 10, 10.0   seconds (separate by commas if more than one detector)
#SPECTRUM    : start of spectrum data
0, 0
0, 0
0, 0
0, 0
0, 0
0, 0
0, 0
0, 0
1, 0
1, 1
2, 4
36, 49
53, 58
6, 5
2, 3
74, 106
390, 477
82, 104
7, 5
3, 3
8, 18
62, 84
19, 40
9, 10
29, 37
29, 34
16, 16
10, 13
6, 6
2, 3
0, 2
3, 3
2, 5
11, 21
19, 25
7, 25
4, 17
0, 11
3, 0
3, 6
13, 4
50, 7
25, 15
17, 13
14, 8
6, 8
8, 8
7, 10
3, 28
11, 57
7, 49
2, 83
6, 60
34, 63
57, 77
24, 26
34, 46
371, 607
1724, 2496
1296, 1516
181, 166
15, 23
14, 28
79, 134
256, 396
182, 217
22, 22
12, 10
13, 19
9, 12
5, 11
3, 11
5, 7
0, 13
2, 6
4, 8
3, 5
5, 5
0, 4
2, 4
4, 5
1, 3
1, 6
6, 5
9, 4
5, 7
9, 8
3, 6
3, 5
0, 8
6, 6
1, 9
1, 3
7, 1
6, 2
8, 3
2, 3
4, 6
1, 2
3, 2
3, 1
4, 4
4, 5
2, 4
2, 2
2, 2
1, 4
4, 5
4, 3
3, 3
2, 4
2, 0
4, 4
3, 1
1, 0
1, 2
2, 2
1, 3
0, 1
2, 1
0, 1
1, 2
1, 4
3, 0
2, 5
2, 1
1, 3
1, 4
1, 2
0, 2
2, 3
0, 1
0, 1
1, 0
1, 0
1, 1
1, 1
0, 0
1, 4
3, 0
1, 1
0, 0
1, 0
0, 1
0, 0
0, 0
0, 3
0, 2
2, 0
2, 3
1, 0
1, 0
0, 0
0, 1
0, 0
0, 0
0, 1
0, 0
0, 1
0, 0
0, 1
0, 0
2, 0
0, 1
0, 0
0, 1
0, 1
0, 0
1, 0
1, 0
0, 0
1, 0
0, 0
0, 1
0, 0
0, 0
0, 0
0, 1
0, 0
0, 0
0, 1
0, 0
0, 0
0, 0
1, 0
0, 0
0, 0
0, 0
0, 0
0, 0
0, 0
0, 0
0, 0
0, 0
0, 0
0, 0
0, 1
0, 0
0, 0
0, 0
0, 0
0, 0
0, 0
0, 0
0, 0
0, 0
0, 0
0, 0
0, 0
0, 0
0, 0
0, 0
0, 0
0, 0
0, 0
0, 0
0, 0
0, 0
0, 0
0, 0
0, 0
0, 0
0, 0
0, 0
0, 0
0, 0
0, 0
0, 0
0, 0
0, 0
0, 0
0, 0
0, 0
0, 0
0, 0
0, 0
0, 0
0, 0
0, 0
0, 0
0, 0
0, 0
0, 0
0, 0
0, 0
0, 0
0, 0
0, 0
0, 0
0, 0
0, 0
0, 0
0, 0
0, 0
0, 0
0, 0
0, 0
0, 0
0, 0
0, 0
0, 0
0, 0
0, 0
0, 0
0, 0
0, 0
0, 0
0, 0
0, 0
0, 0
0, 0
0, 0
0, 0
0, 0
0, 0
0, 0
0, 0
0, 0
0, 0
0, 0
0, 0
0, 0
0, 0
0, 0
0, 0
0, 0
0, 0
0, 0
0, 0
0, 0
0, 0
0, 0
0, 0
0, 0
#ENDOFDATA     end of spectrum data

File: ps__0852shot_2278.msa
#FORMAT      : EMSA/MAS spectral data file
#VERSION     : TC202v2.0 PIXL
#TITLE       : N/A
#DATE        :       Date in the format DD-MMM-YYYY, for example 07-JUL-2010
#TIME        :             The time of day at which the spectrum was recorded, in 24-hour format
#OWNER       : PIXL Flight Model       (PIXL will use this to indicate which instrument took the data.)
#NPOINTS     : 4096     Number of data points in the spectrum (This can be zero for configuration only files)
#NCOLUMNS    : 2     Number of data columns in the spectrum (This can be zero for configuration only files)
#XUNITS      : eV
#YUNITS      : COUNTS
#DATATYPE    : YY
#XPERCHAN    : 7.862, 7.881   eV per channel (separate by commas if more than one detector)
#OFFSET      : 18.5, -22.4         eV of first channel  (separate by commas if more than one detector
#SIGNALTYPE  : XRF
#YP_TEMP     : 2.396
#LIVETIME    : 8.56577, 8.56529   seconds (separate by commas if more than one detector)
#REALTIME    : 10, 10.0   seconds (separate by commas if more than one detector)
#SPECTRUM    : start of spectrum data
0, 0
0, 0
0, 0
0, 0
0, 0
0, 0
0, 0
0, 0
2, 1
1, 1
5, 2
40, 62
49, 56
4, 6
2, 3
88, 117
404, 472
85, 121
5, 6
1, 3
6, 18
44, 102
20, 25
7, 19
46, 45
38, 48
18, 24
12, 9
3, 9
1, 4
3, 1
7, 3
11, 3
23, 36
29, 75
6, 52
3, 27
13, 9
2, 6
2, 0
17, 5
39, 16
24, 9
11, 13
11, 7
11, 15
3, 31
4, 16
5, 12
14, 56
17, 39
11, 61
8, 44
29, 59
63, 54
30, 23
28, 38
448, 592
1903, 2366
1401, 1463
188, 130
22, 16
34, 25
129, 105
295, 362
210, 212
37, 30
9, 14
18, 13
8, 11
3, 15
3, 4
6, 11
6, 10
4, 5
2, 10
0, 4
11, 8
5, 5
5, 7
4, 1
2, 3
6, 8
4, 10
6, 14
15, 8
9, 11
15, 0
8, 5
5, 5
2, 6
4, 12
2, 8
2, 4
3, 2
4, 4
1, 5
3, 3
3, 5
2, 4
5, 6
1, 1
4, 5
2, 0
3, 5
3, 1
0, 4
1, 5
2, 3
1, 3
2, 2
4, 1
2, 0
2, 2
1, 2
3, 4
2, 3
4, 1
1, 0
1, 0
3, 1
2, 3
2, 1
1, 3
0, 0
0, 2
5, 4
1, 1
1, 1
2, 1
0, 2
1, 0
1, 0
1, 0
0, 0
3, 0
1, 1
1, 0
1, 1
1, 1
0, 1
2, 1
0, 0
0, 3
0, 1
0, 0
0, 0
0, 0
0, 0
0, 0
0, 0
0, 0
0, 1
1, 1
0, 0
0, 0
0, 0
1, 1
0, 0
0, 1
0, 0
0, 0
0, 0
0, 1
1, 1
0, 0
0, 0
0, 0
1, 1
0, 0
0, 1
1, 0
0, 0
0, 0
0, 0
0, 0
0, 0
0, 0
0, 0
0, 0
0, 0
0, 0
0, 0
0, 0
0, 0
1, 0
0, 0
0, 0
0, 0
0, 0
0, 0
0, 0
0, 0
0, 0
1, 0
0, 1
0, 0
0, 0
0, 0
0, 0
0, 0
0, 0
0, 0
0, 0
0, 0
0, 0
0, 0
0, 0
0, 1
0, 0
0, 0
0, 0
0, 0
0, 0
0, 0
0, 0
0, 0
0, 0
0, 0
0, 0
0, 0
0, 0
0, 0
0, 0
0, 0
0, 0
0, 0
0, 0
0, 0
0, 0
0, 0
0, 0
0, 0
0, 0
0, 0
0, 0
0, 0
0, 0
0, 0
0, 0
0, 0
0, 0
0, 0
0, 0
0, 0
0, 0
0, 0
0, 0
0, 0
0, 0
0, 0
0, 0
0, 0
0, 0
0, 0
0, 0
0, 0
0, 0
0, 0
0, 0
0, 0
0, 0
0, 0
0, 0
0, 0
0, 0
0, 0
0, 0
0, 0
0, 0
0, 0
0, 0
0, 0
0, 0
0, 0
0, 0
0, 0
0, 0
0, 0
0, 0
0, 0
0, 0
0, 0
0, 0
0, 0
0, 0
0, 0
0, 0
0, 0
0, 0
0, 0
0, 0
0, 0
0, 0
#ENDOFDATA     end of spectrum data

File: ps__0852shot_2279.msa
#FORMAT      : EMSA/MAS spectral data file
#VERSION     : TC202v2.0 PIXL
#TITLE       : N/A
#DATE        :       Date in the format DD-MMM-YYYY, for example 07-JUL-2010
#TIME        :             The time of day at which the spectrum was recorded, in 24-hour format
#OWNER       : PIXL Flight Model       (PIXL will use this to indicate which instrument took the data.)
#NPOINTS     : 4096     Number of data points in the spectrum (This can be zero for configuration only files)
#NCOLUMNS    : 2     Number of data columns in the spectrum (This can be zero for configuration only files)
#XUNITS      : eV
#YUNITS      : COUNTS
#DATATYPE    : YY
#XPERCHAN    : 7.862, 7.881   eV per channel (separate by commas if more than one detector)
#OFFSET      : 18.5, -22.4         eV of first channel  (separate by commas if more than one detector
#SIGNALTYPE  : XRF
#YP_TEMP     : 2.62
#LIVETIME    : 8.56861, 8.55996   seconds (separate by commas if more than one detector)
#REALTIME    : 10, 10.0   seconds (separate by commas if more than one detector)
#SPECTRUM    : start of spectrum data
0, 0
0, 0
0, 0
0, 0
0, 0
0, 0
0, 0
0, 1
0, 1
2, 3
3, 1
45, 52
63, 64
5, 3
1, 3
92, 82
443, 367
105, 89
7, 6
2, 2
6, 14
36, 102
17, 35
11, 5
30, 30
33, 26
16, 15
8, 12
3, 5
0, 3
2, 3
2, 4
8, 3
11, 19
16, 27
4, 33
1, 8
1, 9
4, 4
3, 2
8, 2
7, 5
18, 8
13, 11
3, 5
4, 16
3, 25
8, 11
8, 14
40, 24
80, 18
27, 8
10, 9
40, 46
84, 47
41, 20
33, 36
479, 542
2267, 2103
1622, 1289
199, 135
12, 9
22, 17
126, 103
352, 316
247, 185
28, 23
13, 6
8, 10
7, 8
4, 7
3, 9
9, 11
8, 13
7, 4
3, 5
8, 2
12, 5
11, 0
9, 6
14, 2
22, 7
15, 7
3, 7
4, 7
5, 7
13, 4
10, 2
1, 5
5, 2
4, 1
2, 1
0, 2
3, 1
1, 2
2, 2
5, 4
4, 1
2, 4
5, 2
6, 4
2, 2
4, 3
1, 3
1, 2
2, 1
2, 1
3, 2
3, 1
1, 5
2, 1
1, 4
3, 0
3, 1
2, 3
1, 5
4, 2
0, 1
4, 1
4, 2
3, 2
1, 3
5, 0
2, 4
4, 2
0, 0
1, 0
0, 1
2, 1
1, 2
0, 2
0, 0
0, 1
1, 1
2, 0
0, 1
0, 0
0, 1
0, 1
0, 1
1, 1
1, 1
0, 1
1, 0
0, 0
0, 2
0, 2
0, 0
0, 1
1, 0
1, 1
1, 2
1, 0
0, 1
1, 1
0, 0
0, 0
3, 0
0, 0
1, 1
0, 0
0, 0
0, 0
0, 0
0, 0
1, 0
0, 0
0, 0
0, 1
0, 1
0, 0
0, 1
0, 0
2, 0
0, 0
0, 0
0, 0
0, 1
0, 0
1, 0
0, 0
0, 0
0, 0
0, 1
0, 0
0, 0
0, 0
0, 0
0, 0
0, 0
0, 0
0, 0
0, 0
0, 0
0, 0
0, 0
0, 0
0, 0
0, 0
0, 0
0, 0
0, 0
0, 0
0, 0
0, 0
0, 0
0, 0
0, 0
0, 0
0, 0
0, 0
0, 0
0, 0
0, 0
0, 0
0, 0
0, 0
0, 0
0, 0
0, 0
0, 0
0, 0
0, 0
0, 0
0, 0
0, 0
0, 0
0, 0
0, 0
0, 0
0, 0
0, 0
0, 0
0, 0
0, 0
0, 0
0, 0
0, 0
0, 0
0, 0
0, 0
0, 0
0, 0
0, 0
0, 0
0, 0
0, 0
0, 0
0, 0
0, 0
0, 0
0, 0
0, 0
0, 0
0, 0
0, 0
0, 0
0, 0
0, 0
0, 0
0, 0
0, 0
0, 0
0, 0
0, 0
0, 0
0, 0
0, 0
0, 0
0, 0
0, 0
0, 0
0, 0
0, 0
0, 0
0, 0
0, 0
0, 0
0, 0
0, 0
0, 0
0, 0
0, 0
0, 0
0, 0
0, 0
0, 0
0, 0
0, 0
0, 0
0, 0
0, 0
0, 0
0, 0
#ENDOFDATA     end of spectrum data

File: ps__0852shot_2280.msa
#FORMAT      : EMSA/MAS spectral data file
#VERSION     : TC202v2.0 PIXL
#TITLE       : N/A
#DATE        :       Date in the format DD-MMM-YYYY, for example 07-JUL-2010
#TIME        :             The time of day at which the spectrum was recorded, in 24-hour format
#OWNER       : PIXL Flight Model       (PIXL will use this to indicate which instrument took the data.)
#NPOINTS     : 4096     Number of data points in the spectrum (This can be zero for configuration only files)
#NCOLUMNS    : 2     Number of data columns in the spectrum (This can be zero for configuration only files)
#XUNITS      : eV
#YUNITS      : COUNTS
#DATATYPE    : YY
#XPERCHAN    : 7.862, 7.881   eV per channel (separate by commas if more than one detector)
#OFFSET      : 18.5, -22.4         eV of first channel  (separate by commas if more than one detector
#SIGNALTYPE  : XRF
#YP_TEMP     : 2.332
#LIVETIME    : 8.54823, 8.54672   seconds (separate by commas if more than one detector)
#REALTIME    : 10, 10.0   seconds (separate by commas if more than one detector)
#SPECTRUM    : start of spectrum data
0, 0
0, 0
0, 0
0, 0
0, 0
0, 0
0, 0
0, 0
1, 1
0, 0
3, 3
44, 52
68, 69
6, 10
0, 4
96, 115
386, 469
95, 128
5, 11
1, 2
0, 1
4, 5
2, 3
6, 5
14, 22
24, 27
12, 14
8, 5
4, 1
3, 2
2, 2
3, 5
1, 1
4, 11
20, 17
5, 1
1, 5
6, 5
4, 3
1, 1
3, 6
7, 4
12, 15
12, 9
3, 3
6, 1
3, 6
4, 7
7, 5
56, 13
100, 4
36, 7
14, 9
58, 40
96, 46
49, 15
31, 52
433, 630
2006, 2476
1520, 1472
184, 113
15, 11
14, 16
101, 121
322, 388
243, 196
34, 15
7, 8
17, 14
11, 9
0, 5
7, 9
8, 7
9, 3
1, 7
3, 5
9, 4
3, 2
3, 4
5, 6
13, 2
24, 6
17, 10
4, 10
3, 3
3, 1
6, 3
1, 5
2, 5
2, 3
2, 2
2, 3
2, 3
3, 6
4, 2
2, 3
2, 2
2, 3
1, 2
6, 4
5, 3
5, 3
1, 2
2, 3
0, 2
1, 2
3, 3
2, 3
2, 4
2, 2
2, 4
4, 6
1, 4
2, 3
3, 3
5, 2
3, 6
4, 2
2, 1
1, 4
4, 5
2, 0
0, 1
3, 3
0, 2
0, 0
0, 1
1, 0
1, 2
0, 0
0, 1
0, 2
1, 1
0, 0
0, 1
0, 3
0, 2
0, 0
0, 1
1, 1
1, 1
0, 0
0, 0
0, 0
2, 0
0, 0
0, 0
1, 0
0, 0
0, 0
0, 1
0, 0
0, 0
0, 0
0, 1
0, 1
0, 0
0, 0
0, 0
0, 2
2, 2
0, 0
0, 1
1, 0
0, 1
0, 0
0, 0
1, 0
0, 0
0, 0
0, 0
0, 1
0, 0
1, 0
0, 0
0, 0
0, 0
1, 0
0, 1
0, 0
0, 0
0, 0
0, 0
0, 0
1, 0
0, 1
0, 0
0, 0
1, 0
0, 0
0, 0
0, 0
0, 1
0, 0
0, 0
0, 0
0, 0
0, 0
0, 0
0, 0
0, 0
0, 0
0, 0
0, 0
0, 0
0, 0
0, 0
0, 0
0, 0
0, 0
0, 0
0, 0
0, 0
0, 0
0, 0
0, 0
0, 0
0, 0
0, 0
0, 0
0, 0
0, 0
0, 0
0, 0
0, 0
0, 0
0, 0
0, 0
0, 0
0, 0
0, 0
0, 0
0, 0
0, 0
0, 0
0, 0
0, 0
0, 0
0, 0
0, 0
0, 0
0, 0
0, 0
0, 0
0, 0
0, 0
0, 0
0, 0
0, 0
0, 0
0, 0
0, 0
0, 0
0, 0
0, 0
0, 0
0, 0
0, 0
0, 0
0, 0
0, 0
0, 0
0, 0
0, 0
0, 0
0, 0
0, 0
0, 0
0, 0
0, 0
0, 0
0, 0
0, 0
0, 0
0, 0
0, 0
0, 0
0, 0
0, 0
0, 0
0, 0
0, 0
0, 0
0, 0
0, 0
0, 0
0, 0
0, 0
0, 0
0, 0
0, 0
0, 0
0, 0
0, 0
#ENDOFDATA     end of spectrum data

File: ps__0852shot_2281.msa
#FORMAT      : EMSA/MAS spectral data file
#VERSION     : TC202v2.0 PIXL
#TITLE       : N/A
#DATE        :       Date in the format DD-MMM-YYYY, for example 07-JUL-2010
#TIME        :             The time of day at which the spectrum was recorded, in 24-hour format
#OWNER       : PIXL Flight Model       (PIXL will use this to indicate which instrument took the data.)
#NPOINTS     : 4096     Number of data points in the spectrum (This can be zero for configuration only files)
#NCOLUMNS    : 2     Number of data columns in the spectrum (This can be zero for configuration only files)
#XUNITS      : eV
#YUNITS      : COUNTS
#DATATYPE    : YY
#XPERCHAN    : 7.862, 7.881   eV per channel (separate by commas if more than one detector)
#OFFSET      : 18.5, -22.4         eV of first channel  (separate by commas if more than one detector
#SIGNALTYPE  : XRF
#YP_TEMP     : 2.171
#LIVETIME    : 8.56278, 8.5478   seconds (separate by commas if more than one detector)
#REALTIME    : 10, 10.0   seconds (separate by commas if more than one detector)
#SPECTRUM    : start of spectrum data
0, 0
0, 0
0, 0
0, 0
0, 0
0, 0
0, 0
0, 0
0, 0
0, 1
7, 5
35, 49
60, 82
8, 6
3, 8
91, 95
404, 526
81, 104
1, 4
0, 2
3, 0
3, 3
5, 3
5, 2
18, 36
17, 34
20, 24
7, 9
3, 2
0, 0
3, 2
0, 1
2, 1
7, 10
14, 17
5, 6
1, 5
7, 6
2, 5
4, 4
3, 7
2, 13
8, 12
10, 11
3, 2
6, 2
3, 4
9, 5
13, 5
56, 7
123, 15
53, 8
19, 8
52, 51
76, 58
31, 21
24, 31
436, 622
1981, 2357
1465, 1490
175, 160
19, 12
16, 12
85, 152
322, 364
222, 201
31, 21
5, 3
14, 18
7, 8
6, 10
5, 13
8, 10
13, 4
10, 13
2, 4
1, 4
13, 4
5, 6
4, 5
11, 4
20, 6
10, 8
2, 10
1, 10
5, 2
1, 1
2, 6
2, 8
1, 7
1, 3
2, 3
2, 3
2, 0
3, 4
1, 2
2, 3
1, 1
5, 1
5, 1
7, 4
2, 3
3, 2
0, 2
3, 3
0, 1
1, 6
0, 6
1, 3
2, 0
1, 1
2, 2
2, 2
2, 3
1, 2
1, 2
2, 2
2, 0
2, 4
0, 1
1, 0
2, 1
1, 4
4, 2
1, 0
1, 0
0, 2
3, 2
0, 2
0, 1
1, 0
1, 3
1, 1
1, 1
1, 0
0, 3
3, 1
1, 0
1, 0
1, 0
1, 2
0, 0
0, 1
0, 1
0, 2
0, 1
1, 0
0, 1
0, 2
1, 1
0, 1
1, 0
1, 0
2, 0
1, 0
0, 0
3, 0
0, 0
0, 0
0, 0
0, 0
0, 0
0, 0
0, 0
0, 1
0, 0
0, 0
1, 2
0, 0
0, 0
0, 0
1, 0
0, 0
1, 0
0, 0
0, 0
2, 0
0, 0
0, 0
0, 0
0, 0
0, 0
0, 0
0, 0
0, 0
0, 0
0, 0
0, 0
0, 0
0, 0
0, 0
0, 0
0, 0
0, 0
0, 0
0, 0
0, 0
0, 0
0, 0
0, 0
0, 0
0, 0
1, 0
0, 0
0, 0
0, 0
0, 1
0, 0
0, 0
0, 0
0, 0
0, 0
0, 0
0, 0
0, 0
0, 0
0, 0
0, 0
0, 0
0, 0
0, 0
0, 0
0, 0
0, 0
0, 0
0, 0
0, 0
0, 0
0, 0
0, 0
0, 0
0, 0
0, 0
0, 0
0, 0
0, 0
0, 0
0, 0
0, 0
0, 0
0, 0
0, 0
0, 0
0, 0
0, 0
0, 0
0, 0
0, 0
0, 0
0, 0
0, 0
0, 0
0, 0
0, 0
0, 0
0, 0
0, 0
0, 0
0, 0
0, 0
0, 0
0, 0
0, 0
0, 0
0, 0
0, 0
0, 0
0, 0
0, 0
0, 0
0, 0
0, 0
0, 0
0, 0
0, 0
0, 0
0, 0
0, 0
0, 0
0, 0
0, 0
0, 0
0, 0
0, 0
0, 0
0, 0
0, 0
0, 0
0, 0
0, 0
0, 0
0, 0
0, 0
0, 0
#ENDOFDATA     end of spectrum data