Folder: data-repository/host_upload/06-09-2024/ps_0852/dump3 (part 22)

File: ps__0852shot_2191.msa
#FORMAT      : EMSA/MAS spectral data file
#VERSION     : TC202v2.0 PIXL
#TITLE       : N/A
#DATE        :       Date in the format DD-MMM-YYYY, for example 07-JUL-2010
#TIME        :             The time of day at which the spectrum was recorded, in 24-hour format
#OWNER       : PIXL Flight Model       (PIXL will use this to indicate which instrument took the data.)
#NPOINTS     : 4096     Number of data points in the spectrum (This can be zero for configuration only files)
#NCOLUMNS    : 2     Number of data columns in the spectrum (This can be zero for configuration only files)
#XUNITS      : eV
#YUNITS      : COUNTS
#DATATYPE    : YY
#XPERCHAN    : 7.862, 7.881   eV per channel (separate by commas if more than one detector)
#OFFSET      : 18.5, -22.4         eV of first channel  (separate by commas if more than one detector
#SIGNALTYPE  : XRF
#YP_TEMP     : 2.588
#LIVETIME    : 8.53945, 8.52156   seconds (separate by commas if more than one detector)
#REALTIME    : 10, 10.0   seconds (separate by commas if more than one detector)
#SPECTRUM    : start of spectrum data
0, 0
0, 0
0, 0
0, 0
0, 0
0, 0
0, 0
0, 0
5, 0
13, 1
5, 5
43, 53
52, 67
5, 4
7, 0
73, 114
368, 441
86, 115
2, 2
3, 2
2, 1
3, 6
4, 5
43, 5
656, 27
1103, 33
144, 18
12, 10
4, 4
1, 4
0, 1
1, 2
2, 3
9, 13
17, 15
5, 4
7, 4
30, 4
53, 4
18, 4
5, 3
10, 15
15, 23
13, 101
3, 142
8, 29
4, 5
7, 4
8, 8
13, 16
35, 16
33, 12
16, 8
33, 49
55, 75
24, 57
27, 93
435, 654
1976, 2486
1383, 1540
199, 180
31, 18
95, 17
154, 125
298, 370
203, 208
31, 21
10, 10
12, 20
13, 10
10, 2
5, 9
5, 10
6, 4
25, 5
64, 5
48, 3
18, 3
1, 4
2, 3
1, 1
2, 4
4, 3
5, 7
3, 7
4, 5
1, 6
0, 9
2, 5
4, 1
5, 3
4, 6
5, 3
2, 1
3, 4
1, 6
2, 6
1, 1
5, 4
2, 7
9, 5
6, 3
5, 2
4, 5
3, 3
4, 2
2, 3
1, 1
1, 2
1, 1
1, 3
3, 3
3, 3
4, 0
1, 3
2, 4
6, 5
5, 2
1, 3
1, 3
1, 0
0, 1
1, 1
2, 0
1, 0
0, 1
1, 3
0, 1
0, 3
3, 0
1, 0
0, 1
0, 1
1, 1
1, 2
0, 0
1, 0
0, 0
1, 0
0, 0
0, 2
2, 1
0, 1
2, 1
0, 1
0, 0
1, 0
1, 0
0, 1
0, 2
1, 1
0, 0
1, 0
0, 0
0, 0
0, 0
0, 0
2, 0
0, 1
0, 0
2, 0
0, 0
0, 1
0, 0
0, 0
0, 0
0, 0
0, 0
0, 0
2, 0
0, 0
0, 0
1, 1
0, 0
0, 0
0, 0
0, 0
0, 0
0, 0
0, 0
0, 0
0, 0
0, 0
0, 0
0, 0
0, 0
0, 0
1, 0
0, 0
0, 0
0, 0
0, 0
0, 0
0, 1
0, 0
0, 0
0, 0
0, 0
0, 0
0, 0
0, 0
0, 0
0, 0
0, 0
0, 0
0, 0
0, 0
0, 0
0, 0
0, 0
0, 0
0, 0
0, 0
0, 0
0, 0
0, 0
0, 0
0, 0
0, 0
0, 0
0, 0
0, 0
0, 0
0, 0
0, 0
0, 0
0, 0
0, 0
0, 0
0, 0
0, 0
0, 0
0, 0
0, 0
0, 0
0, 0
0, 0
0, 0
0, 0
0, 0
0, 0
0, 0
0, 0
0, 0
0, 0
0, 0
0, 0
0, 0
0, 0
0, 0
0, 0
0, 0
0, 0
0, 0
0, 0
0, 0
0, 0
0, 0
0, 0
0, 0
0, 0
0, 0
0, 0
0, 0
0, 0
0, 0
0, 0
0, 0
0, 0
0, 0
0, 0
0, 0
0, 0
0, 0
0, 0
0, 0
0, 0
0, 0
0, 0
0, 0
0, 0
0, 0
0, 0
0, 0
0, 0
0, 0
0, 0
0, 0
0, 0
0, 0
0, 0
0, 0
0, 0
0, 0
#ENDOFDATA     end of spectrum data

File: ps__0852shot_2192.msa
#FORMAT      : EMSA/MAS spectral data file
#VERSION     : TC202v2.0 PIXL
#TITLE       : N/A
#DATE        :       Date in the format DD-MMM-YYYY, for example 07-JUL-2010
#TIME        :             The time of day at which the spectrum was recorded, in 24-hour format
#OWNER       : PIXL Flight Model       (PIXL will use this to indicate which instrument took the data.)
#NPOINTS     : 4096     Number of data points in the spectrum (This can be zero for configuration only files)
#NCOLUMNS    : 2     Number of data columns in the spectrum (This can be zero for configuration only files)
#XUNITS      : eV
#YUNITS      : COUNTS
#DATATYPE    : YY
#XPERCHAN    : 7.862, 7.881   eV per channel (separate by commas if more than one detector)
#OFFSET      : 18.5, -22.4         eV of first channel  (separate by commas if more than one detector
#SIGNALTYPE  : XRF
#YP_TEMP     : 2.524
#LIVETIME    : 8.54887, 8.57403   seconds (separate by commas if more than one detector)
#REALTIME    : 10, 10.0   seconds (separate by commas if more than one detector)
#SPECTRUM    : start of spectrum data
0, 0
0, 0
0, 0
0, 0
0, 0
0, 0
0, 0
0, 0
0, 2
6, 7
2, 3
47, 56
86, 54
4, 4
7, 5
118, 95
438, 357
110, 73
7, 6
0, 3
2, 1
12, 8
4, 2
16, 22
144, 174
210, 209
60, 29
16, 10
3, 2
1, 1
2, 2
4, 1
4, 7
26, 10
22, 20
8, 9
7, 9
15, 6
22, 15
13, 7
6, 7
23, 6
23, 19
13, 26
14, 38
10, 14
7, 10
9, 6
13, 14
29, 21
33, 19
14, 18
19, 8
44, 44
75, 52
24, 26
34, 41
529, 515
2208, 2105
1651, 1256
228, 131
33, 28
59, 40
144, 116
320, 337
260, 177
32, 27
11, 8
17, 13
15, 11
9, 5
4, 1
2, 8
4, 5
8, 6
13, 10
13, 0
4, 2
8, 6
3, 3
5, 3
3, 3
5, 5
4, 10
4, 4
6, 5
4, 8
1, 7
5, 6
4, 3
4, 2
10, 0
8, 0
4, 6
5, 3
3, 2
4, 0
5, 3
3, 1
4, 3
3, 3
4, 0
3, 3
2, 2
3, 0
2, 1
4, 4
3, 3
3, 2
6, 0
2, 0
1, 3
5, 3
2, 3
2, 5
2, 1
1, 5
3, 6
1, 0
2, 1
2, 2
1, 2
0, 1
2, 0
2, 1
2, 0
3, 0
2, 0
1, 2
2, 0
1, 2
0, 0
0, 1
1, 1
2, 0
1, 1
0, 1
1, 0
3, 0
0, 0
3, 1
0, 3
1, 0
1, 1
1, 0
0, 0
1, 1
0, 0
0, 1
2, 0
0, 0
1, 0
1, 0
0, 0
0, 0
1, 0
0, 1
0, 1
0, 0
0, 1
1, 0
0, 1
0, 0
0, 0
0, 0
0, 0
0, 0
0, 0
0, 0
0, 0
0, 0
1, 0
0, 0
1, 0
0, 1
0, 1
0, 0
0, 0
0, 0
1, 0
0, 1
0, 1
1, 1
0, 0
0, 0
0, 0
0, 0
0, 0
1, 0
0, 0
0, 0
0, 0
1, 0
0, 0
0, 0
0, 0
0, 0
0, 0
0, 0
0, 0
0, 0
0, 0
0, 0
0, 0
0, 0
0, 0
0, 0
0, 1
0, 0
0, 0
0, 0
0, 0
0, 0
0, 0
0, 0
0, 0
0, 0
0, 0
0, 0
0, 0
0, 0
0, 0
0, 0
0, 0
0, 0
0, 0
0, 0
0, 0
0, 0
0, 0
0, 0
0, 0
0, 0
0, 0
0, 0
0, 0
0, 0
0, 0
0, 0
0, 0
1, 0
0, 0
0, 0
0, 0
0, 0
0, 0
0, 0
0, 0
0, 0
0, 0
0, 0
0, 0
0, 0
0, 0
0, 0
0, 0
0, 0
0, 0
0, 0
0, 0
0, 0
0, 0
0, 0
0, 0
0, 0
0, 0
0, 0
0, 0
0, 0
0, 0
0, 0
0, 0
0, 0
0, 0
0, 0
0, 0
0, 0
0, 0
0, 0
0, 0
0, 0
0, 0
0, 0
0, 0
0, 0
0, 0
0, 0
0, 0
0, 0
0, 0
0, 0
0, 0
0, 0
0, 0
#ENDOFDATA     end of spectrum data

File: ps__0852shot_2193.msa
#FORMAT      : EMSA/MAS spectral data file
#VERSION     : TC202v2.0 PIXL
#TITLE       : N/A
#DATE        :       Date in the format DD-MMM-YYYY, for example 07-JUL-2010
#TIME        :             The time of day at which the spectrum was recorded, in 24-hour format
#OWNER       : PIXL Flight Model       (PIXL will use this to indicate which instrument took the data.)
#NPOINTS     : 4096     Number of data points in the spectrum (This can be zero for configuration only files)
#NCOLUMNS    : 2     Number of data columns in the spectrum (This can be zero for configuration only files)
#XUNITS      : eV
#YUNITS      : COUNTS
#DATATYPE    : YY
#XPERCHAN    : 7.862, 7.881   eV per channel (separate by commas if more than one detector)
#OFFSET      : 18.5, -22.4         eV of first channel  (separate by commas if more than one detector
#SIGNALTYPE  : XRF
#YP_TEMP     : 2.332
#LIVETIME    : 8.56193, 8.35724   seconds (separate by commas if more than one detector)
#REALTIME    : 10, 10.0   seconds (separate by commas if more than one detector)
#SPECTRUM    : start of spectrum data
0, 0
0, 0
0, 0
0, 0
0, 0
0, 0
0, 0
0, 0
0, 1
3, 1
3, 3
41, 39
71, 58
7, 6
4, 8
109, 100
456, 410
107, 114
5, 4
2, 1
2, 7
9, 13
7, 9
8, 14
32, 58
69, 114
20, 70
15, 17
3, 2
0, 2
1, 3
4, 1
11, 5
20, 14
25, 18
3, 8
9, 4
1, 10
5, 5
5, 9
12, 4
16, 17
13, 23
23, 15
24, 4
12, 5
14, 11
17, 11
6, 11
13, 19
22, 33
22, 32
16, 23
44, 57
62, 66
36, 30
35, 39
506, 583
2367, 2220
1691, 1264
218, 134
66, 24
83, 13
114, 112
359, 320
200, 173
26, 33
8, 14
16, 12
11, 5
9, 8
2, 4
3, 10
3, 4
9, 7
14, 9
3, 6
10, 6
8, 6
5, 7
5, 2
5, 4
5, 5
8, 10
1, 9
7, 7
3, 5
4, 8
2, 6
3, 3
6, 4
8, 6
4, 2
4, 3
5, 1
4, 3
5, 3
6, 2
1, 1
4, 4
3, 1
4, 1
3, 4
2, 1
4, 1
2, 3
0, 4
1, 3
5, 2
1, 0
2, 1
2, 1
1, 1
4, 3
1, 3
4, 0
1, 4
3, 3
4, 2
3, 2
3, 0
1, 3
4, 1
2, 1
2, 1
0, 2
0, 1
1, 0
1, 0
0, 1
2, 0
0, 2
2, 0
0, 0
1, 4
2, 0
0, 0
1, 0
1, 0
0, 0
0, 0
1, 0
0, 0
0, 0
1, 0
0, 1
0, 0
0, 0
0, 0
0, 0
0, 0
1, 0
0, 0
1, 0
0, 1
0, 0
0, 0
0, 0
0, 0
1, 0
1, 0
1, 0
0, 0
0, 1
0, 1
0, 1
0, 0
0, 0
1, 0
0, 0
0, 1
0, 0
0, 0
0, 0
0, 0
0, 0
0, 0
0, 0
0, 0
0, 1
0, 0
0, 0
0, 0
0, 0
0, 0
1, 1
0, 0
0, 0
0, 0
0, 0
0, 0
1, 0
0, 0
0, 0
0, 0
1, 0
0, 0
0, 0
0, 0
0, 0
0, 0
0, 0
0, 0
0, 0
0, 0
0, 0
0, 0
0, 0
0, 0
0, 0
0, 0
0, 0
0, 0
0, 0
0, 0
0, 0
0, 0
0, 1
0, 0
0, 0
0, 0
0, 0
0, 0
0, 0
0, 0
0, 1
0, 0
0, 0
0, 0
0, 0
0, 0
0, 0
0, 0
0, 0
0, 0
0, 0
0, 0
0, 0
0, 0
0, 0
0, 0
0, 0
0, 0
0, 0
0, 0
0, 0
0, 0
0, 0
0, 0
0, 0
0, 0
0, 0
0, 0
0, 0
0, 0
0, 0
0, 0
0, 0
0, 0
0, 0
0, 0
0, 0
0, 0
0, 0
0, 0
0, 0
0, 0
0, 0
0, 0
0, 0
0, 0
0, 0
0, 0
0, 0
0, 0
0, 0
0, 0
0, 0
0, 0
0, 0
0, 0
0, 0
0, 0
0, 0
0, 0
0, 0
0, 0
0, 0
0, 0
0, 0
0, 0
0, 0
0, 0
0, 0
#ENDOFDATA     end of spectrum data

File: ps__0852shot_2194.msa
#FORMAT      : EMSA/MAS spectral data file
#VERSION     : TC202v2.0 PIXL
#TITLE       : N/A
#DATE        :       Date in the format DD-MMM-YYYY, for example 07-JUL-2010
#TIME        :             The time of day at which the spectrum was recorded, in 24-hour format
#OWNER       : PIXL Flight Model       (PIXL will use this to indicate which instrument took the data.)
#NPOINTS     : 4096     Number of data points in the spectrum (This can be zero for configuration only files)
#NCOLUMNS    : 2     Number of data columns in the spectrum (This can be zero for configuration only files)
#XUNITS      : eV
#YUNITS      : COUNTS
#DATATYPE    : YY
#XPERCHAN    : 7.862, 7.881   eV per channel (separate by commas if more than one detector)
#OFFSET      : 18.5, -22.4         eV of first channel  (separate by commas if more than one detector
#SIGNALTYPE  : XRF
#YP_TEMP     : 1.979
#LIVETIME    : 8.57436, 8.55352   seconds (separate by commas if more than one detector)
#REALTIME    : 10, 10.0   seconds (separate by commas if more than one detector)
#SPECTRUM    : start of spectrum data
0, 0
0, 0
0, 0
0, 0
0, 0
0, 0
0, 0
0, 0
0, 1
2, 1
4, 5
42, 54
79, 53
6, 6
7, 4
106, 107
478, 368
109, 87
9, 4
1, 2
1, 0
5, 8
3, 2
4, 19
42, 47
44, 80
26, 69
11, 11
2, 3
3, 3
4, 1
2, 2
4, 2
15, 14
31, 18
13, 4
8, 5
7, 7
5, 5
4, 6
7, 4
15, 3
19, 33
33, 25
27, 7
11, 12
11, 10
11, 8
10, 8
24, 14
23, 22
14, 24
14, 24
39, 44
57, 44
29, 27
31, 44
516, 514
2382, 2017
1778, 1260
220, 140
63, 20
79, 24
133, 107
371, 320
252, 176
28, 34
3, 11
18, 10
8, 6
2, 7
3, 3
7, 4
4, 11
9, 3
8, 4
11, 8
6, 1
8, 6
7, 2
4, 1
5, 5
7, 0
3, 3
7, 14
3, 11
6, 9
5, 5
5, 2
8, 7
4, 5
9, 7
9, 2
4, 5
3, 6
5, 3
2, 1
2, 1
2, 1
2, 0
3, 1
4, 1
1, 6
0, 1
3, 4
1, 7
2, 3
0, 1
1, 2
4, 2
3, 0
2, 3
5, 2
4, 1
1, 1
3, 3
2, 1
5, 2
2, 0
2, 0
0, 0
3, 1
2, 0
3, 2
0, 0
1, 1
1, 2
0, 2
3, 1
0, 0
1, 1
1, 2
1, 0
1, 2
0, 1
2, 2
0, 0
0, 2
4, 1
0, 0
1, 0
0, 1
1, 1
0, 3
0, 0
0, 0
1, 1
0, 0
2, 1
0, 1
0, 0
1, 1
0, 0
0, 0
1, 1
1, 0
0, 0
0, 0
0, 0
0, 1
0, 1
0, 0
2, 0
0, 0
2, 0
0, 1
0, 0
0, 0
0, 0
0, 0
0, 0
0, 1
0, 0
0, 0
0, 0
0, 0
1, 1
0, 0
0, 1
0, 0
0, 0
0, 0
0, 0
0, 0
0, 0
0, 0
0, 0
0, 0
0, 0
0, 0
0, 0
0, 0
0, 0
0, 0
0, 0
0, 0
0, 0
0, 0
0, 0
0, 0
0, 0
0, 0
0, 0
0, 0
0, 0
0, 0
0, 0
0, 1
0, 0
0, 0
0, 0
0, 0
0, 0
0, 0
0, 0
0, 0
0, 0
0, 0
0, 0
0, 0
0, 0
0, 0
0, 0
0, 0
0, 0
0, 0
0, 0
0, 0
0, 0
0, 0
0, 0
0, 0
0, 0
0, 0
0, 0
0, 0
0, 0
0, 0
0, 0
0, 0
0, 0
0, 0
0, 0
0, 0
0, 0
0, 0
0, 0
0, 0
0, 0
0, 0
0, 0
0, 0
0, 0
0, 0
0, 0
0, 0
0, 0
0, 0
0, 0
0, 0
0, 0
0, 0
0, 0
0, 0
0, 0
0, 0
0, 0
0, 0
0, 0
0, 0
0, 0
0, 0
0, 0
0, 0
0, 0
0, 0
0, 0
0, 0
0, 0
0, 0
0, 0
0, 0
0, 0
0, 0
0, 0
0, 0
0, 0
0, 0
0, 0
0, 0
0, 0
0, 0
0, 0
0, 0
#ENDOFDATA     end of spectrum data

File: ps__0852shot_2195.msa
#FORMAT      : EMSA/MAS spectral data file
#VERSION     : TC202v2.0 PIXL
#TITLE       : N/A
#DATE        :       Date in the format DD-MMM-YYYY, for example 07-JUL-2010
#TIME        :             The time of day at which the spectrum was recorded, in 24-hour format
#OWNER       : PIXL Flight Model       (PIXL will use this to indicate which instrument took the data.)
#NPOINTS     : 4096     Number of data points in the spectrum (This can be zero for configuration only files)
#NCOLUMNS    : 2     Number of data columns in the spectrum (This can be zero for configuration only files)
#XUNITS      : eV
#YUNITS      : COUNTS
#DATATYPE    : YY
#XPERCHAN    : 7.862, 7.881   eV per channel (separate by commas if more than one detector)
#OFFSET      : 18.5, -22.4         eV of first channel  (separate by commas if more than one detector
#SIGNALTYPE  : XRF
#YP_TEMP     : 2.428
#LIVETIME    : 8.55937, 8.56376   seconds (separate by commas if more than one detector)
#REALTIME    : 10, 10.0   seconds (separate by commas if more than one detector)
#SPECTRUM    : start of spectrum data
0, 0
0, 0
0, 0
0, 0
0, 0
0, 0
0, 0
0, 0
0, 0
1, 1
3, 3
70, 35
59, 55
6, 4
8, 5
106, 84
395, 369
135, 96
8, 6
3, 2
0, 0
8, 3
3, 5
3, 5
43, 55
33, 78
16, 37
17, 14
4, 1
5, 0
4, 1
3, 1
3, 5
18, 17
28, 26
7, 6
7, 10
8, 13
8, 12
3, 3
3, 8
10, 12
22, 20
43, 28
45, 6
17, 5
7, 5
10, 6
7, 6
13, 16
19, 17
9, 7
9, 9
29, 51
60, 64
26, 17
49, 43
506, 588
2297, 2216
1665, 1320
225, 131
45, 16
53, 31
106, 110
321, 364
257, 180
30, 25
12, 16
15, 17
13, 9
4, 2
2, 4
5, 6
5, 6
6, 5
9, 4
7, 5
7, 1
5, 9
8, 4
6, 1
3, 3
6, 8
5, 8
8, 15
2, 16
2, 14
9, 3
3, 3
10, 4
8, 5
4, 1
4, 5
2, 3
5, 0
2, 5
7, 4
0, 1
2, 2
1, 1
1, 0
4, 4
3, 3
6, 3
1, 2
2, 3
2, 3
3, 2
2, 2
1, 1
2, 3
1, 2
3, 3
1, 1
1, 3
5, 1
3, 2
4, 3
1, 2
1, 4
1, 1
1, 3
2, 3
2, 2
1, 4
1, 0
1, 0
2, 0
0, 0
2, 0
2, 0
1, 0
3, 1
1, 1
0, 2
0, 0
0, 0
1, 0
0, 1
0, 0
0, 1
1, 2
1, 0
0, 0
0, 0
0, 0
0, 0
1, 0
0, 1
0, 0
0, 1
1, 0
0, 0
0, 0
1, 0
0, 0
0, 0
0, 2
1, 0
1, 1
0, 0
0, 0
0, 0
0, 1
0, 0
0, 0
0, 1
1, 2
1, 0
0, 0
0, 0
0, 0
1, 0
0, 0
0, 0
0, 0
0, 0
0, 0
0, 0
0, 0
0, 0
0, 0
0, 0
0, 0
0, 0
0, 1
0, 0
0, 0
0, 0
0, 0
0, 0
0, 0
0, 0
0, 0
1, 0
0, 0
0, 0
0, 0
0, 0
0, 1
1, 0
1, 0
0, 0
0, 0
0, 1
0, 0
0, 0
0, 0
0, 0
0, 1
0, 0
0, 0
0, 0
0, 0
0, 0
0, 0
0, 0
0, 0
0, 0
0, 0
0, 0
0, 0
0, 0
0, 0
0, 0
0, 0
0, 0
0, 0
0, 0
0, 0
0, 0
0, 0
0, 0
0, 0
0, 0
0, 0
0, 0
0, 0
0, 0
0, 0
0, 0
0, 0
0, 0
0, 0
0, 0
0, 0
0, 0
0, 0
0, 0
0, 0
0, 0
0, 0
0, 0
0, 0
0, 0
0, 0
0, 0
0, 0
0, 0
0, 0
0, 0
0, 0
0, 0
0, 0
0, 0
0, 0
0, 0
0, 0
0, 0
0, 0
0, 0
0, 0
0, 0
0, 0
0, 0
0, 0
0, 0
0, 0
0, 0
0, 0
0, 0
0, 0
0, 0
0, 0
0, 0
0, 0
0, 0
0, 0
0, 0
0, 0
0, 0
0, 0
0, 0
0, 0
#ENDOFDATA     end of spectrum data

File: ps__0852shot_2196.msa
#FORMAT      : EMSA/MAS spectral data file
#VERSION     : TC202v2.0 PIXL
#TITLE       : N/A
#DATE        :       Date in the format DD-MMM-YYYY, for example 07-JUL-2010
#TIME        :             The time of day at which the spectrum was recorded, in 24-hour format
#OWNER       : PIXL Flight Model       (PIXL will use this to indicate which instrument took the data.)
#NPOINTS     : 4096     Number of data points in the spectrum (This can be zero for configuration only files)
#NCOLUMNS    : 2     Number of data columns in the spectrum (This can be zero for configuration only files)
#XUNITS      : eV
#YUNITS      : COUNTS
#DATATYPE    : YY
#XPERCHAN    : 7.862, 7.881   eV per channel (separate by commas if more than one detector)
#OFFSET      : 18.5, -22.4         eV of first channel  (separate by commas if more than one detector
#SIGNALTYPE  : XRF
#YP_TEMP     : 2.3
#LIVETIME    : 8.55545, 8.55283   seconds (separate by commas if more than one detector)
#REALTIME    : 10, 10.0   seconds (separate by commas if more than one detector)
#SPECTRUM    : start of spectrum data
0, 0
0, 0
0, 0
0, 0
0, 0
0, 0
0, 0
0, 0
1, 0
0, 2
3, 1
51, 32
74, 51
3, 5
2, 6
99, 80
454, 367
127, 86
9, 4
3, 1
1, 6
9, 15
4, 6
8, 7
32, 63
51, 79
23, 40
16, 14
8, 5
1, 4
2, 8
11, 3
15, 5
25, 16
34, 29
11, 20
3, 8
6, 7
6, 15
8, 3
8, 6
11, 9
15, 20
21, 18
22, 8
5, 7
4, 3
9, 6
6, 6
27, 21
13, 42
11, 23
10, 7
34, 38
65, 60
27, 28
40, 42
503, 545
2352, 2194
1690, 1301
209, 175
41, 29
91, 18
206, 109
419, 343
248, 183
32, 28
6, 11
16, 12
12, 8
5, 5
4, 6
3, 4
11, 7
6, 10
8, 4
4, 6
5, 3
7, 2
3, 4
6, 6
4, 4
3, 4
7, 4
2, 6
7, 7
3, 8
3, 1
5, 3
15, 2
6, 2
8, 0
5, 2
5, 1
8, 6
7, 4
5, 2
3, 1
5, 2
3, 0
3, 2
2, 4
1, 2
2, 3
3, 3
3, 0
3, 2
3, 1
1, 3
1, 2
0, 0
1, 2
3, 0
3, 0
1, 4
2, 2
5, 3
3, 2
2, 3
2, 1
1, 0
1, 0
0, 3
3, 1
1, 0
0, 1
1, 3
1, 6
0, 0
0, 1
4, 0
1, 0
0, 1
0, 0
1, 1
1, 0
1, 2
0, 3
1, 1
0, 0
0, 0
0, 0
1, 2
0, 0
1, 0
0, 1
0, 0
0, 0
0, 1
1, 1
0, 0
0, 0
0, 0
0, 0
0, 0
1, 1
0, 0
0, 0
0, 0
0, 0
0, 0
0, 0
0, 0
0, 0
0, 0
0, 0
0, 1
0, 0
0, 0
1, 0
0, 0
0, 0
0, 1
0, 0
0, 0
0, 0
0, 0
0, 0
0, 0
0, 0
0, 0
1, 0
0, 1
0, 0
0, 2
0, 0
0, 0
0, 0
0, 0
0, 0
0, 0
0, 0
0, 0
0, 1
0, 0
0, 0
0, 0
0, 0
0, 0
0, 0
0, 0
0, 0
0, 0
0, 0
0, 0
0, 0
0, 0
0, 0
0, 0
0, 0
0, 0
0, 0
0, 0
0, 0
0, 0
0, 0
0, 0
0, 0
0, 0
0, 0
0, 0
0, 0
0, 0
0, 0
0, 0
0, 0
0, 0
0, 0
0, 0
0, 0
0, 0
0, 0
0, 0
0, 0
0, 0
0, 0
0, 0
0, 0
0, 0
0, 0
0, 0
0, 0
0, 0
0, 0
0, 0
0, 0
0, 0
0, 0
0, 0
0, 0
0, 0
0, 0
0, 0
0, 0
0, 0
0, 0
0, 0
0, 0
0, 0
0, 0
0, 0
0, 0
0, 0
0, 0
0, 0
0, 0
0, 0
0, 0
0, 0
0, 0
0, 0
0, 0
0, 0
0, 0
0, 0
0, 0
0, 0
0, 0
0, 0
0, 0
0, 0
0, 0
0, 0
0, 0
0, 0
0, 0
0, 0
0, 0
0, 0
0, 0
0, 0
0, 0
0, 0
0, 0
#ENDOFDATA     end of spectrum data

File: ps__0852shot_2197.msa
#FORMAT      : EMSA/MAS spectral data file
#VERSION     : TC202v2.0 PIXL
#TITLE       : N/A
#DATE        :       Date in the format DD-MMM-YYYY, for example 07-JUL-2010
#TIME        :             The time of day at which the spectrum was recorded, in 24-hour format
#OWNER       : PIXL Flight Model       (PIXL will use this to indicate which instrument took the data.)
#NPOINTS     : 4096     Number of data points in the spectrum (This can be zero for configuration only files)
#NCOLUMNS    : 2     Number of data columns in the spectrum (This can be zero for configuration only files)
#XUNITS      : eV
#YUNITS      : COUNTS
#DATATYPE    : YY
#XPERCHAN    : 7.862, 7.881   eV per channel (separate by commas if more than one detector)
#OFFSET      : 18.5, -22.4         eV of first channel  (separate by commas if more than one detector
#SIGNALTYPE  : XRF
#YP_TEMP     : 2.3
#LIVETIME    : 8.57631, 8.56617   seconds (separate by commas if more than one detector)
#REALTIME    : 10, 10.0   seconds (separate by commas if more than one detector)
#SPECTRUM    : start of spectrum data
0, 0
0, 0
0, 0
0, 0
0, 0
0, 0
0, 0
0, 1
3, 2
1, 2
3, 4
40, 35
60, 47
4, 3
6, 4
85, 92
456, 379
120, 75
6, 3
3, 2
3, 1
7, 9
8, 2
13, 10
51, 57
42, 69
29, 35
13, 19
7, 4
2, 0
1, 1
20, 3
32, 2
30, 4
23, 17
4, 7
3, 8
3, 5
8, 8
4, 4
5, 3
10, 10
14, 13
11, 9
5, 4
8, 2
6, 5
7, 7
6, 14
30, 26
21, 51
23, 21
24, 13
45, 32
63, 44
22, 23
33, 31
467, 583
2301, 2150
1701, 1243
196, 185
29, 46
112, 19
279, 120
439, 329
235, 190
36, 19
5, 11
17, 4
6, 4
5, 5
5, 3
13, 5
12, 8
4, 7
8, 3
5, 2
2, 1
4, 10
7, 3
4, 2
3, 4
5, 3
4, 6
4, 4
9, 3
5, 5
3, 1
4, 3
2, 2
8, 3
3, 2
1, 6
8, 3
7, 5
9, 7
6, 2
6, 2
2, 3
4, 4
0, 3
2, 2
5, 2
6, 3
3, 2
2, 0
5, 4
1, 5
2, 2
2, 2
0, 1
3, 2
1, 3
0, 3
8, 1
3, 9
4, 3
4, 2
1, 3
2, 3
1, 3
3, 2
2, 0
3, 2
1, 1
0, 0
2, 0
2, 3
0, 2
0, 0
2, 0
2, 1
0, 0
2, 0
0, 1
2, 2
3, 0
0, 0
0, 0
0, 0
0, 0
0, 1
0, 0
1, 0
1, 0
1, 2
1, 0
1, 0
0, 0
1, 0
0, 0
0, 0
1, 0
0, 1
1, 0
1, 1
1, 1
2, 1
0, 0
1, 0
0, 0
0, 0
0, 0
1, 0
0, 0
0, 0
0, 0
0, 1
0, 0
1, 0
0, 1
0, 0
1, 1
0, 0
0, 0
0, 0
0, 0
0, 0
0, 0
0, 0
0, 0
0, 0
0, 0
0, 0
0, 1
0, 0
0, 0
0, 1
0, 0
0, 0
0, 0
0, 0
0, 0
0, 0
0, 0
0, 0
0, 0
0, 0
0, 1
0, 0
0, 0
0, 0
0, 0
0, 0
0, 0
0, 0
0, 0
0, 0
0, 0
0, 0
0, 0
0, 0
0, 0
0, 0
0, 0
0, 0
0, 0
0, 0
0, 0
0, 0
0, 0
0, 0
0, 0
0, 0
0, 0
0, 0
0, 0
0, 0
0, 0
0, 0
0, 0
0, 0
0, 0
0, 0
0, 0
0, 0
0, 0
0, 0
0, 0
0, 0
0, 0
0, 0
0, 0
0, 0
0, 0
0, 0
0, 0
0, 0
0, 0
0, 0
0, 0
0, 0
0, 0
0, 0
0, 0
0, 0
0, 0
0, 0
0, 0
0, 0
0, 0
0, 0
0, 0
0, 0
0, 0
0, 0
0, 0
0, 0
0, 0
0, 0
0, 0
0, 0
0, 0
0, 0
0, 0
0, 0
0, 0
0, 0
0, 0
0, 0
0, 0
0, 0
0, 0
0, 0
0, 0
0, 0
0, 0
0, 0
0, 0
0, 0
0, 0
0, 0
0, 0
0, 0
#ENDOFDATA     end of spectrum data

File: ps__0852shot_2198.msa
#FORMAT      : EMSA/MAS spectral data file
#VERSION     : TC202v2.0 PIXL
#TITLE       : N/A
#DATE        :       Date in the format DD-MMM-YYYY, for example 07-JUL-2010
#TIME        :             The time of day at which the spectrum was recorded, in 24-hour format
#OWNER       : PIXL Flight Model       (PIXL will use this to indicate which instrument took the data.)
#NPOINTS     : 4096     Number of data points in the spectrum (This can be zero for configuration only files)
#NCOLUMNS    : 2     Number of data columns in the spectrum (This can be zero for configuration only files)
#XUNITS      : eV
#YUNITS      : COUNTS
#DATATYPE    : YY
#XPERCHAN    : 7.862, 7.881   eV per channel (separate by commas if more than one detector)
#OFFSET      : 18.5, -22.4         eV of first channel  (separate by commas if more than one detector
#SIGNALTYPE  : XRF
#YP_TEMP     : 2.3
#LIVETIME    : 8.57663, 8.55181   seconds (separate by commas if more than one detector)
#REALTIME    : 10, 10.0   seconds (separate by commas if more than one detector)
#SPECTRUM    : start of spectrum data
0, 0
0, 0
0, 0
0, 0
0, 0
0, 0
0, 0
0, 0
0, 0
2, 2
2, 2
49, 40
76, 40
5, 5
5, 3
96, 92
435, 411
117, 91
5, 4
2, 2
2, 0
4, 5
4, 2
6, 7
41, 35
31, 44
31, 17
15, 9
7, 3
2, 2
0, 2
11, 1
39, 1
40, 8
30, 15
4, 6
2, 1
5, 8
5, 1
4, 2
3, 7
10, 19
11, 19
16, 14
6, 6
9, 7
7, 6
4, 9
13, 13
33, 28
28, 22
20, 12
27, 12
61, 28
81, 39
36, 19
25, 38
538, 555
2262, 2302
1723, 1304
222, 150
22, 21
30, 24
139, 100
346, 347
262, 192
35, 21
9, 5
8, 8
15, 5
2, 3
4, 2
6, 4
4, 8
4, 9
7, 4
8, 7
4, 7
0, 7
7, 5
7, 3
9, 4
14, 4
9, 2
5, 0
7, 5
6, 5
7, 1
5, 3
4, 2
5, 3
2, 2
4, 5
3, 4
6, 3
4, 2
3, 4
2, 3
2, 0
2, 3
0, 0
2, 2
3, 0
0, 2
6, 3
6, 2
5, 2
0, 1
0, 3
2, 3
1, 1
1, 4
2, 1
1, 2
2, 4
2, 4
7, 6
5, 2
3, 2
1, 0
1, 2
3, 2
2, 0
1, 0
1, 1
0, 0
0, 1
1, 3
1, 0
1, 1
1, 2
0, 2
2, 1
1, 0
0, 0
0, 1
2, 1
1, 2
3, 2
1, 0
0, 0
2, 0
1, 0
0, 0
0, 1
0, 0
0, 0
0, 0
1, 1
0, 0
2, 0
0, 0
0, 1
1, 1
0, 0
0, 1
1, 0
0, 1
0, 1
0, 0
0, 0
0, 0
0, 0
1, 0
0, 1
0, 0
0, 0
0, 1
0, 0
0, 0
0, 0
1, 1
0, 0
2, 0
0, 0
1, 0
0, 1
0, 0
0, 0
0, 0
2, 1
0, 0
0, 0
0, 0
1, 0
0, 0
0, 0
0, 1
0, 0
0, 0
0, 0
0, 0
1, 0
0, 0
0, 0
0, 1
0, 0
0, 0
0, 0
0, 0
0, 0
0, 0
0, 0
1, 0
0, 0
0, 0
0, 0
0, 0
0, 0
0, 0
0, 0
0, 1
0, 0
0, 0
0, 0
0, 0
0, 0
0, 0
0, 0
0, 0
0, 0
0, 0
0, 0
0, 0
0, 0
0, 0
0, 0
0, 0
0, 0
0, 0
0, 0
0, 0
0, 0
0, 0
0, 0
0, 0
0, 0
0, 0
0, 0
0, 0
0, 0
0, 0
0, 0
0, 0
0, 0
0, 0
0, 0
0, 0
0, 0
0, 0
0, 0
0, 0
0, 0
0, 0
0, 0
0, 0
0, 0
0, 0
0, 0
0, 0
0, 0
0, 0
0, 0
0, 0
0, 0
0, 0
0, 0
0, 0
0, 0
0, 0
0, 0
0, 0
0, 0
0, 0
0, 0
0, 0
0, 0
0, 0
0, 0
0, 0
0, 0
0, 0
0, 0
0, 0
0, 0
0, 0
0, 0
0, 0
0, 0
0, 0
0, 0
0, 0
0, 0
0, 0
#ENDOFDATA     end of spectrum data

File: ps__0852shot_2199.msa
#FORMAT      : EMSA/MAS spectral data file
#VERSION     : TC202v2.0 PIXL
#TITLE       : N/A
#DATE        :       Date in the format DD-MMM-YYYY, for example 07-JUL-2010
#TIME        :             The time of day at which the spectrum was recorded, in 24-hour format
#OWNER       : PIXL Flight Model       (PIXL will use this to indicate which instrument took the data.)
#NPOINTS     : 4096     Number of data points in the spectrum (This can be zero for configuration only files)
#NCOLUMNS    : 2     Number of data columns in the spectrum (This can be zero for configuration only files)
#XUNITS      : eV
#YUNITS      : COUNTS
#DATATYPE    : YY
#XPERCHAN    : 7.862, 7.881   eV per channel (separate by commas if more than one detector)
#OFFSET      : 18.5, -22.4         eV of first channel  (separate by commas if more than one detector
#SIGNALTYPE  : XRF
#YP_TEMP     : 2.332
#LIVETIME    : 8.5747, 8.5701   seconds (separate by commas if more than one detector)
#REALTIME    : 10, 10.0   seconds (separate by commas if more than one detector)
#SPECTRUM    : start of spectrum data
0, 0
0, 0
0, 0
0, 0
0, 0
0, 0
0, 0
0, 1
0, 0
0, 1
6, 1
38, 50
68, 51
10, 5
2, 5
96, 90
433, 412
109, 114
6, 6
2, 1
2, 0
7, 8
2, 2
9, 2
24, 22
26, 30
17, 11
19, 9
7, 1
3, 1
2, 0
6, 0
20, 3
18, 11
12, 18
6, 7
4, 5
2, 5
2, 4
4, 4
5, 16
10, 27
12, 15
9, 10
6, 3
5, 1
10, 8
7, 2
9, 7
14, 11
16, 9
9, 13
12, 7
38, 48
71, 56
41, 16
31, 36
478, 584
2290, 2259
1706, 1389
234, 110
18, 17
19, 37
87, 132
330, 370
248, 211
31, 25
8, 7
15, 13
9, 9
3, 9
3, 4
3, 3
5, 7
3, 16
2, 8
6, 4
1, 2
6, 5
6, 8
4, 8
11, 3
16, 6
12, 7
10, 7
6, 6
6, 7
4, 3
4, 4
3, 3
5, 2
4, 3
7, 4
4, 2
6, 2
2, 2
4, 5
2, 2
4, 3
5, 2
1, 0
3, 3
4, 2
3, 3
3, 5
1, 2
4, 4
3, 2
5, 0
2, 2
3, 2
5, 2
2, 1
4, 1
1, 1
2, 2
6, 2
4, 3
3, 1
1, 3
1, 1
1, 2
1, 3
3, 1
1, 0
2, 1
0, 3
0, 1
2, 0
2, 3
1, 2
2, 0
0, 2
0, 1
1, 0
2, 1
0, 1
0, 2
1, 2
1, 0
1, 0
1, 1
2, 0
1, 0
1, 1
0, 1
1, 0
0, 0
2, 0
0, 0
0, 0
2, 0
0, 0
0, 1
0, 0
0, 0
0, 1
0, 1
0, 1
0, 0
1, 0
0, 0
0, 0
0, 1
2, 0
0, 0
0, 0
0, 0
0, 0
0, 0
0, 0
1, 0
1, 0
0, 0
0, 0
0, 0
0, 0
0, 0
0, 0
0, 1
1, 0
0, 0
1, 1
0, 0
0, 0
0, 0
0, 0
0, 0
0, 0
0, 0
0, 1
0, 0
0, 0
0, 0
0, 0
0, 0
0, 0
0, 0
0, 0
0, 0
0, 0
0, 0
0, 0
0, 0
1, 0
0, 0
0, 0
0, 0
0, 0
0, 0
0, 0
0, 0
0, 0
0, 0
0, 0
1, 0
0, 0
0, 0
0, 0
0, 0
0, 0
0, 0
0, 0
0, 0
0, 0
0, 0
0, 0
0, 0
0, 0
0, 0
0, 0
0, 0
0, 0
0, 0
0, 0
0, 0
0, 0
0, 0
0, 0
0, 0
0, 0
0, 0
0, 0
0, 0
0, 0
0, 0
0, 0
0, 0
0, 0
0, 0
0, 0
0, 0
0, 0
0, 0
0, 0
0, 0
0, 0
0, 0
0, 0
0, 0
0, 0
0, 0
0, 0
0, 0
0, 0
0, 0
0, 0
0, 0
0, 0
0, 0
0, 0
0, 0
0, 0
0, 0
0, 0
0, 0
0, 0
0, 0
0, 0
0, 0
0, 0
0, 0
0, 0
0, 0
0, 0
0, 0
0, 0
0, 0
0, 0
0, 0
0, 0
0, 0
0, 0
0, 0
#ENDOFDATA     end of spectrum data