Folder: data-repository/host_upload/06-09-2024/ps_0852/dump3 (part 17)

File: ps__0852shot_2146.msa
#FORMAT      : EMSA/MAS spectral data file
#VERSION     : TC202v2.0 PIXL
#TITLE       : N/A
#DATE        :       Date in the format DD-MMM-YYYY, for example 07-JUL-2010
#TIME        :             The time of day at which the spectrum was recorded, in 24-hour format
#OWNER       : PIXL Flight Model       (PIXL will use this to indicate which instrument took the data.)
#NPOINTS     : 4096     Number of data points in the spectrum (This can be zero for configuration only files)
#NCOLUMNS    : 2     Number of data columns in the spectrum (This can be zero for configuration only files)
#XUNITS      : eV
#YUNITS      : COUNTS
#DATATYPE    : YY
#XPERCHAN    : 7.862, 7.881   eV per channel (separate by commas if more than one detector)
#OFFSET      : 18.5, -22.4         eV of first channel  (separate by commas if more than one detector
#SIGNALTYPE  : XRF
#YP_TEMP     : 2.492
#LIVETIME    : 8.57648, 8.57655   seconds (separate by commas if more than one detector)
#REALTIME    : 10, 10.0   seconds (separate by commas if more than one detector)
#SPECTRUM    : start of spectrum data
0, 0
0, 0
0, 0
0, 0
0, 0
0, 0
0, 0
0, 0
1, 0
3, 1
5, 1
52, 37
70, 59
8, 8
4, 4
99, 80
451, 387
107, 88
5, 7
1, 2
2, 3
4, 4
2, 3
5, 4
50, 19
80, 24
26, 23
9, 14
3, 5
3, 1
3, 1
2, 4
9, 6
46, 43
53, 55
12, 12
13, 7
11, 10
10, 9
5, 7
6, 4
11, 7
11, 11
6, 9
11, 6
5, 10
7, 5
9, 7
4, 1
15, 22
22, 17
21, 16
16, 14
68, 43
79, 61
26, 15
39, 33
499, 521
2125, 2141
1645, 1233
187, 132
12, 25
12, 34
98, 99
342, 363
232, 159
39, 33
8, 11
9, 20
4, 8
7, 6
6, 1
4, 5
6, 6
13, 3
4, 6
6, 2
8, 14
5, 7
5, 5
5, 4
3, 6
7, 9
2, 15
7, 11
3, 2
6, 3
2, 4
4, 8
5, 7
1, 4
2, 2
9, 6
0, 3
4, 2
4, 3
4, 3
5, 0
3, 1
3, 1
4, 2
2, 0
3, 0
1, 4
2, 0
2, 2
4, 3
4, 1
3, 4
6, 2
2, 0
6, 4
2, 2
2, 2
3, 0
2, 0
1, 4
4, 4
0, 1
2, 2
2, 0
2, 0
1, 1
3, 0
2, 0
1, 3
2, 2
0, 1
2, 1
1, 1
2, 1
2, 0
0, 1
0, 1
0, 0
1, 1
0, 1
0, 0
0, 1
2, 1
0, 0
0, 0
0, 0
0, 2
0, 1
1, 1
0, 0
1, 1
0, 1
0, 0
0, 0
0, 0
1, 0
0, 0
0, 0
1, 0
0, 0
0, 1
0, 0
0, 1
0, 0
0, 0
1, 0
1, 0
0, 0
1, 2
0, 1
1, 0
0, 0
0, 0
1, 0
0, 0
1, 0
0, 0
0, 0
0, 1
0, 0
0, 1
0, 0
1, 0
0, 0
0, 0
0, 0
0, 0
0, 0
0, 1
0, 0
0, 0
1, 0
0, 0
0, 0
0, 0
0, 0
0, 0
1, 0
0, 0
0, 0
2, 0
0, 0
0, 0
0, 0
0, 0
0, 0
0, 0
0, 0
0, 0
0, 0
0, 0
0, 0
0, 0
0, 0
0, 0
0, 0
0, 0
0, 0
0, 0
0, 0
0, 0
0, 0
0, 0
0, 0
0, 0
0, 0
0, 0
0, 0
0, 0
0, 0
0, 0
0, 0
0, 0
0, 0
0, 0
0, 0
0, 0
0, 0
0, 0
0, 0
0, 0
0, 0
0, 0
0, 0
0, 0
0, 0
0, 0
0, 0
0, 0
0, 0
0, 0
0, 0
0, 0
0, 0
0, 0
0, 0
0, 0
0, 0
0, 0
0, 0
0, 0
0, 0
0, 0
0, 0
0, 0
0, 0
0, 0
0, 0
0, 0
0, 0
0, 0
0, 0
0, 0
0, 0
0, 0
0, 0
0, 0
0, 0
0, 0
0, 0
0, 0
0, 0
0, 0
0, 0
0, 0
0, 0
0, 0
0, 0
0, 0
0, 0
0, 0
0, 0
0, 0
0, 0
0, 0
0, 0
0, 0
#ENDOFDATA     end of spectrum data

File: ps__0852shot_2147.msa
#FORMAT      : EMSA/MAS spectral data file
#VERSION     : TC202v2.0 PIXL
#TITLE       : N/A
#DATE        :       Date in the format DD-MMM-YYYY, for example 07-JUL-2010
#TIME        :             The time of day at which the spectrum was recorded, in 24-hour format
#OWNER       : PIXL Flight Model       (PIXL will use this to indicate which instrument took the data.)
#NPOINTS     : 4096     Number of data points in the spectrum (This can be zero for configuration only files)
#NCOLUMNS    : 2     Number of data columns in the spectrum (This can be zero for configuration only files)
#XUNITS      : eV
#YUNITS      : COUNTS
#DATATYPE    : YY
#XPERCHAN    : 7.862, 7.881   eV per channel (separate by commas if more than one detector)
#OFFSET      : 18.5, -22.4         eV of first channel  (separate by commas if more than one detector
#SIGNALTYPE  : XRF
#YP_TEMP     : 2.203
#LIVETIME    : 8.56516, 8.59158   seconds (separate by commas if more than one detector)
#REALTIME    : 10, 10.0   seconds (separate by commas if more than one detector)
#SPECTRUM    : start of spectrum data
0, 0
0, 0
0, 0
0, 0
0, 0
0, 0
0, 0
0, 0
0, 1
2, 1
2, 2
56, 39
61, 48
7, 3
8, 6
100, 95
474, 391
132, 77
7, 4
4, 3
2, 0
5, 2
3, 0
4, 3
40, 21
50, 26
20, 20
8, 14
3, 5
3, 1
3, 1
0, 4
8, 1
13, 8
20, 11
7, 2
4, 4
5, 2
5, 7
4, 1
5, 0
19, 5
14, 13
20, 7
6, 1
2, 7
7, 10
4, 11
6, 8
11, 14
23, 7
17, 18
13, 21
53, 40
79, 38
31, 20
25, 40
495, 537
2346, 2125
1717, 1318
202, 133
22, 20
27, 26
108, 109
368, 315
233, 182
42, 26
15, 9
16, 8
10, 7
10, 5
8, 5
9, 5
3, 8
6, 7
4, 8
2, 1
4, 5
3, 5
5, 6
7, 5
5, 4
3, 7
6, 32
5, 26
4, 11
1, 4
3, 3
4, 12
2, 10
1, 4
2, 2
3, 2
5, 1
2, 5
6, 6
4, 1
0, 3
0, 2
2, 2
3, 2
5, 1
1, 7
4, 3
3, 2
1, 1
5, 1
2, 2
4, 3
3, 0
0, 1
4, 0
1, 1
3, 0
2, 2
4, 0
2, 3
2, 3
3, 1
1, 1
1, 0
1, 2
2, 1
1, 1
4, 0
2, 1
1, 2
0, 0
1, 0
2, 1
1, 1
2, 0
4, 1
1, 0
0, 1
1, 1
1, 2
0, 1
0, 1
0, 0
0, 1
2, 1
1, 1
1, 1
1, 1
0, 0
1, 0
1, 1
0, 0
0, 0
0, 0
1, 0
0, 0
0, 0
0, 0
0, 0
1, 0
0, 0
0, 0
0, 0
0, 0
0, 0
0, 0
0, 0
0, 0
0, 1
0, 0
0, 0
0, 0
0, 0
0, 0
0, 0
0, 0
1, 2
0, 0
0, 0
0, 0
0, 1
0, 0
0, 0
0, 0
0, 0
0, 0
0, 0
1, 1
0, 0
0, 0
0, 0
0, 0
0, 0
0, 0
0, 0
0, 0
1, 0
0, 0
0, 0
0, 0
0, 0
0, 0
0, 1
0, 0
0, 0
0, 0
0, 0
0, 0
0, 0
0, 1
0, 0
0, 0
0, 0
0, 0
0, 0
0, 0
0, 0
0, 0
0, 0
0, 0
0, 0
0, 0
0, 0
0, 0
0, 0
0, 0
0, 0
0, 0
0, 0
0, 0
0, 0
0, 0
0, 0
0, 0
0, 0
0, 0
0, 0
0, 0
0, 0
0, 0
0, 0
0, 0
0, 0
0, 0
0, 0
0, 0
0, 0
0, 0
0, 0
0, 0
0, 0
0, 0
0, 0
0, 0
0, 0
0, 0
0, 0
0, 0
0, 0
0, 0
0, 0
0, 0
0, 0
0, 0
0, 0
0, 0
0, 0
0, 0
0, 0
0, 0
0, 0
0, 0
0, 0
0, 0
0, 0
0, 0
0, 0
0, 0
0, 0
0, 0
0, 0
0, 0
0, 0
0, 0
0, 0
0, 0
0, 0
0, 0
0, 0
0, 0
0, 0
0, 0
0, 0
0, 0
0, 0
0, 0
0, 0
#ENDOFDATA     end of spectrum data

File: ps__0852shot_2148.msa
#FORMAT      : EMSA/MAS spectral data file
#VERSION     : TC202v2.0 PIXL
#TITLE       : N/A
#DATE        :       Date in the format DD-MMM-YYYY, for example 07-JUL-2010
#TIME        :             The time of day at which the spectrum was recorded, in 24-hour format
#OWNER       : PIXL Flight Model       (PIXL will use this to indicate which instrument took the data.)
#NPOINTS     : 4096     Number of data points in the spectrum (This can be zero for configuration only files)
#NCOLUMNS    : 2     Number of data columns in the spectrum (This can be zero for configuration only files)
#XUNITS      : eV
#YUNITS      : COUNTS
#DATATYPE    : YY
#XPERCHAN    : 7.862, 7.881   eV per channel (separate by commas if more than one detector)
#OFFSET      : 18.5, -22.4         eV of first channel  (separate by commas if more than one detector
#SIGNALTYPE  : XRF
#YP_TEMP     : 2.332
#LIVETIME    : 8.57504, 8.35628   seconds (separate by commas if more than one detector)
#REALTIME    : 10, 10.0   seconds (separate by commas if more than one detector)
#SPECTRUM    : start of spectrum data
0, 0
0, 0
0, 0
0, 0
0, 0
0, 0
0, 0
0, 1
2, 0
2, 0
0, 5
48, 43
74, 65
13, 4
5, 2
94, 103
451, 419
90, 70
9, 7
1, 4
1, 0
5, 4
6, 4
3, 3
15, 22
22, 28
12, 18
10, 9
2, 3
5, 1
4, 0
2, 5
5, 2
23, 10
16, 17
1, 6
6, 2
5, 4
1, 2
4, 3
4, 5
4, 10
11, 24
17, 19
5, 8
6, 8
7, 8
6, 3
7, 11
20, 15
34, 9
25, 18
14, 24
46, 40
55, 53
19, 28
33, 28
467, 532
2173, 2142
1548, 1379
199, 154
15, 9
14, 22
86, 127
292, 336
244, 209
47, 14
14, 13
9, 11
9, 13
1, 6
2, 4
7, 3
2, 8
8, 12
7, 8
1, 6
2, 3
5, 2
4, 7
12, 3
4, 0
0, 7
2, 16
3, 25
5, 4
5, 2
3, 5
2, 4
0, 6
1, 2
2, 5
0, 4
2, 1
3, 2
6, 3
5, 2
4, 3
0, 1
1, 1
4, 3
1, 3
0, 3
2, 4
3, 2
1, 7
2, 2
0, 3
0, 0
2, 0
2, 2
2, 0
2, 2
5, 2
3, 5
2, 1
8, 3
3, 1
7, 1
1, 2
3, 2
2, 2
3, 2
3, 0
0, 0
3, 0
1, 0
1, 0
0, 2
2, 2
0, 1
0, 0
1, 0
2, 1
1, 0
0, 1
2, 0
0, 1
0, 0
1, 0
1, 0
0, 1
0, 0
1, 1
0, 0
1, 1
1, 0
0, 1
1, 0
0, 2
1, 1
1, 1
0, 1
0, 0
0, 1
0, 0
1, 0
0, 2
0, 0
2, 0
1, 1
0, 0
0, 1
0, 0
0, 1
1, 0
0, 0
0, 0
0, 0
0, 0
0, 0
0, 1
1, 0
0, 0
0, 1
0, 0
0, 0
0, 0
0, 0
0, 0
0, 0
0, 0
0, 0
0, 0
1, 0
0, 0
0, 0
0, 0
0, 0
1, 0
0, 1
0, 0
0, 0
0, 0
0, 0
0, 0
0, 0
0, 0
0, 0
0, 0
0, 0
0, 0
0, 0
0, 0
0, 0
0, 0
0, 0
0, 0
0, 0
0, 0
0, 0
0, 0
0, 0
0, 0
0, 0
0, 0
0, 0
0, 0
0, 0
0, 0
0, 0
0, 0
0, 0
0, 0
0, 0
0, 0
0, 0
0, 0
0, 0
0, 0
0, 0
0, 0
0, 0
0, 0
0, 0
0, 0
0, 0
0, 0
0, 0
0, 0
0, 0
0, 0
0, 0
0, 0
0, 0
0, 0
0, 0
0, 0
0, 0
0, 0
0, 0
0, 0
0, 0
0, 0
0, 0
0, 0
0, 0
0, 0
0, 0
0, 0
0, 0
0, 0
0, 0
0, 0
0, 0
0, 0
0, 0
0, 0
0, 0
0, 0
0, 0
0, 0
0, 0
0, 0
0, 0
0, 0
0, 0
0, 0
0, 0
0, 0
0, 0
0, 0
0, 0
0, 0
0, 0
0, 0
0, 0
0, 0
0, 0
0, 0
0, 0
0, 0
0, 0
0, 0
#ENDOFDATA     end of spectrum data

File: ps__0852shot_2149.msa
#FORMAT      : EMSA/MAS spectral data file
#VERSION     : TC202v2.0 PIXL
#TITLE       : N/A
#DATE        :       Date in the format DD-MMM-YYYY, for example 07-JUL-2010
#TIME        :             The time of day at which the spectrum was recorded, in 24-hour format
#OWNER       : PIXL Flight Model       (PIXL will use this to indicate which instrument took the data.)
#NPOINTS     : 4096     Number of data points in the spectrum (This can be zero for configuration only files)
#NCOLUMNS    : 2     Number of data columns in the spectrum (This can be zero for configuration only files)
#XUNITS      : eV
#YUNITS      : COUNTS
#DATATYPE    : YY
#XPERCHAN    : 7.862, 7.881   eV per channel (separate by commas if more than one detector)
#OFFSET      : 18.5, -22.4         eV of first channel  (separate by commas if more than one detector
#SIGNALTYPE  : XRF
#YP_TEMP     : 2.652
#LIVETIME    : 8.58518, 8.55314   seconds (separate by commas if more than one detector)
#REALTIME    : 10, 10.0   seconds (separate by commas if more than one detector)
#SPECTRUM    : start of spectrum data
0, 0
0, 0
0, 0
0, 0
0, 0
0, 0
0, 0
0, 2
1, 0
0, 1
3, 2
44, 33
57, 74
6, 6
4, 3
88, 95
429, 392
130, 86
6, 8
3, 0
1, 3
5, 9
4, 3
5, 6
22, 34
53, 41
22, 15
21, 17
6, 2
1, 5
2, 4
1, 3
5, 5
28, 22
55, 44
13, 6
8, 14
7, 11
5, 6
1, 5
5, 7
13, 5
13, 29
14, 25
5, 29
8, 11
6, 5
9, 6
13, 3
26, 16
22, 16
17, 12
8, 17
30, 48
79, 67
30, 15
44, 35
468, 587
2044, 2203
1581, 1348
192, 152
14, 15
26, 22
93, 116
338, 361
217, 214
37, 29
9, 7
12, 15
13, 9
1, 8
7, 5
6, 4
9, 9
7, 5
5, 3
4, 4
2, 4
5, 4
2, 2
5, 6
2, 2
1, 8
5, 10
3, 13
2, 7
7, 4
5, 2
2, 6
6, 6
1, 5
5, 1
9, 3
1, 3
0, 1
5, 2
3, 3
2, 3
0, 3
2, 1
1, 5
5, 2
4, 2
3, 2
2, 3
5, 3
1, 2
2, 2
1, 2
3, 3
2, 0
3, 2
6, 2
2, 1
3, 3
3, 3
1, 2
2, 2
5, 4
1, 3
2, 1
1, 1
2, 1
1, 0
2, 0
2, 0
0, 0
1, 0
3, 1
1, 0
1, 0
1, 1
1, 0
1, 1
0, 0
1, 1
0, 0
0, 2
0, 0
1, 1
1, 1
0, 0
0, 2
0, 0
1, 1
2, 0
1, 0
1, 1
0, 0
0, 0
2, 0
0, 1
0, 0
0, 1
0, 0
0, 0
0, 0
0, 0
0, 0
0, 0
0, 0
0, 1
1, 0
0, 0
1, 1
0, 1
0, 0
0, 0
0, 1
0, 0
0, 0
0, 0
0, 0
0, 0
0, 0
0, 0
0, 0
0, 0
0, 0
0, 0
1, 0
0, 0
0, 1
0, 0
0, 0
0, 0
0, 1
0, 0
0, 0
0, 0
0, 0
0, 0
0, 0
0, 0
0, 0
0, 0
0, 0
0, 0
0, 0
0, 0
0, 0
1, 0
0, 0
0, 0
0, 0
0, 0
0, 0
0, 0
0, 0
0, 0
0, 0
0, 0
0, 0
0, 0
0, 0
0, 0
0, 0
0, 0
0, 0
0, 0
0, 0
0, 0
0, 0
0, 1
0, 0
0, 0
0, 0
0, 0
0, 0
0, 0
0, 0
0, 0
0, 0
0, 0
0, 0
0, 0
0, 0
0, 0
0, 0
0, 0
0, 0
0, 0
0, 0
0, 0
0, 0
0, 0
0, 0
0, 0
0, 0
0, 0
0, 0
0, 0
0, 0
0, 0
0, 0
0, 0
0, 0
0, 0
0, 0
0, 0
0, 0
0, 0
0, 0
0, 0
0, 0
0, 0
0, 0
0, 0
0, 0
0, 0
0, 0
0, 0
0, 0
0, 0
0, 0
0, 0
0, 0
0, 0
0, 0
0, 0
0, 0
0, 0
0, 0
0, 0
0, 0
0, 0
0, 0
0, 0
0, 0
0, 0
0, 0
0, 0
0, 0
0, 0
#ENDOFDATA     end of spectrum data

File: ps__0852shot_2150.msa
#FORMAT      : EMSA/MAS spectral data file
#VERSION     : TC202v2.0 PIXL
#TITLE       : N/A
#DATE        :       Date in the format DD-MMM-YYYY, for example 07-JUL-2010
#TIME        :             The time of day at which the spectrum was recorded, in 24-hour format
#OWNER       : PIXL Flight Model       (PIXL will use this to indicate which instrument took the data.)
#NPOINTS     : 4096     Number of data points in the spectrum (This can be zero for configuration only files)
#NCOLUMNS    : 2     Number of data columns in the spectrum (This can be zero for configuration only files)
#XUNITS      : eV
#YUNITS      : COUNTS
#DATATYPE    : YY
#XPERCHAN    : 7.862, 7.881   eV per channel (separate by commas if more than one detector)
#OFFSET      : 18.5, -22.4         eV of first channel  (separate by commas if more than one detector
#SIGNALTYPE  : XRF
#YP_TEMP     : 2.203
#LIVETIME    : 8.54793, 8.55005   seconds (separate by commas if more than one detector)
#REALTIME    : 10, 10.0   seconds (separate by commas if more than one detector)
#SPECTRUM    : start of spectrum data
0, 0
0, 0
0, 0
0, 0
0, 0
0, 0
0, 0
0, 0
1, 0
1, 1
2, 2
61, 29
57, 43
9, 1
6, 2
98, 84
469, 376
113, 87
7, 5
3, 2
1, 1
13, 13
11, 3
6, 8
42, 34
47, 33
36, 22
10, 15
3, 4
2, 1
1, 1
3, 3
8, 9
75, 53
107, 88
21, 10
9, 5
26, 16
19, 14
14, 3
2, 4
16, 9
18, 6
8, 13
1, 12
7, 10
4, 9
10, 6
14, 7
20, 13
31, 10
14, 14
12, 18
43, 41
58, 53
24, 30
41, 28
481, 460
2137, 1750
1612, 1151
231, 112
14, 15
15, 18
104, 107
333, 273
220, 179
26, 20
16, 14
11, 4
17, 11
7, 2
4, 5
5, 1
4, 6
6, 10
5, 11
5, 5
3, 2
10, 6
4, 0
3, 6
9, 6
5, 6
4, 3
8, 4
8, 8
4, 1
4, 7
8, 3
6, 3
2, 1
2, 4
3, 0
1, 3
4, 2
3, 4
0, 3
0, 7
2, 0
1, 3
3, 0
3, 3
5, 2
4, 2
2, 0
4, 5
2, 3
1, 1
2, 0
3, 1
4, 1
1, 2
2, 0
4, 1
4, 1
2, 0
2, 4
6, 5
8, 0
2, 3
2, 2
1, 0
2, 2
0, 1
3, 2
3, 1
5, 1
1, 0
1, 0
3, 1
0, 0
0, 0
2, 2
2, 0
1, 2
0, 0
2, 0
1, 0
2, 1
0, 0
0, 0
0, 3
1, 0
0, 0
0, 0
1, 0
0, 1
1, 0
0, 1
0, 0
0, 0
0, 0
0, 0
1, 0
0, 0
1, 0
0, 0
0, 1
2, 0
1, 0
0, 0
0, 0
0, 0
1, 0
0, 0
0, 0
1, 0
0, 0
0, 1
0, 0
0, 0
0, 0
0, 0
0, 0
0, 0
1, 0
1, 0
0, 1
0, 0
0, 0
0, 0
0, 0
0, 1
0, 0
0, 0
0, 0
0, 0
0, 0
0, 0
0, 0
0, 1
0, 0
0, 0
0, 0
0, 0
0, 0
0, 0
0, 1
0, 0
0, 0
0, 0
0, 0
0, 0
0, 0
0, 0
0, 0
0, 0
0, 0
0, 1
0, 0
0, 0
0, 0
0, 0
0, 0
0, 0
0, 0
0, 0
0, 0
0, 0
0, 0
0, 0
0, 0
0, 0
0, 0
0, 0
0, 0
0, 0
0, 0
0, 0
0, 0
0, 0
0, 0
0, 0
0, 0
0, 0
0, 0
0, 0
0, 0
0, 0
0, 0
0, 0
0, 0
0, 0
0, 0
0, 0
0, 0
0, 0
0, 0
0, 0
0, 0
0, 0
0, 0
0, 0
0, 0
0, 0
0, 0
0, 0
0, 0
0, 0
0, 0
0, 0
0, 0
0, 0
0, 0
0, 0
0, 0
0, 0
0, 0
0, 0
0, 0
0, 0
0, 0
0, 0
0, 0
0, 0
0, 0
0, 0
0, 0
0, 0
0, 0
0, 0
0, 0
0, 0
0, 0
0, 0
0, 0
0, 0
0, 0
0, 0
0, 0
0, 0
0, 0
0, 0
0, 0
#ENDOFDATA     end of spectrum data

File: ps__0852shot_2151.msa
#FORMAT      : EMSA/MAS spectral data file
#VERSION     : TC202v2.0 PIXL
#TITLE       : N/A
#DATE        :       Date in the format DD-MMM-YYYY, for example 07-JUL-2010
#TIME        :             The time of day at which the spectrum was recorded, in 24-hour format
#OWNER       : PIXL Flight Model       (PIXL will use this to indicate which instrument took the data.)
#NPOINTS     : 4096     Number of data points in the spectrum (This can be zero for configuration only files)
#NCOLUMNS    : 2     Number of data columns in the spectrum (This can be zero for configuration only files)
#XUNITS      : eV
#YUNITS      : COUNTS
#DATATYPE    : YY
#XPERCHAN    : 7.862, 7.881   eV per channel (separate by commas if more than one detector)
#OFFSET      : 18.5, -22.4         eV of first channel  (separate by commas if more than one detector
#SIGNALTYPE  : XRF
#YP_TEMP     : 2.203
#LIVETIME    : 8.53595, 8.55998   seconds (separate by commas if more than one detector)
#REALTIME    : 10, 10.0   seconds (separate by commas if more than one detector)
#SPECTRUM    : start of spectrum data
0, 0
0, 0
0, 0
0, 0
0, 0
0, 0
0, 0
0, 0
0, 1
1, 1
5, 0
36, 49
79, 49
5, 5
4, 5
108, 101
446, 398
116, 98
2, 6
1, 2
4, 2
17, 18
8, 6
8, 12
37, 47
52, 45
25, 24
9, 9
2, 6
0, 2
2, 6
1, 4
3, 2
39, 38
70, 46
22, 6
9, 12
16, 11
22, 8
13, 1
7, 7
12, 12
14, 14
10, 9
7, 8
5, 10
10, 5
6, 6
13, 7
38, 19
39, 12
27, 13
6, 13
35, 32
59, 53
15, 45
42, 50
467, 536
2164, 2187
1522, 1303
163, 136
28, 23
34, 18
101, 122
339, 353
228, 202
25, 24
9, 6
9, 16
7, 11
2, 2
4, 6
8, 1
3, 5
6, 3
9, 11
6, 16
6, 4
0, 4
4, 5
2, 5
4, 3
2, 8
8, 1
7, 3
3, 5
2, 1
2, 7
6, 2
6, 3
8, 1
2, 6
4, 2
2, 1
3, 5
0, 2
3, 7
4, 4
4, 2
4, 5
2, 3
1, 2
3, 3
3, 0
1, 6
3, 1
1, 2
5, 4
4, 1
2, 4
2, 2
2, 2
2, 1
2, 2
1, 1
6, 0
2, 2
3, 0
1, 0
0, 0
2, 0
2, 2
2, 1
2, 0
2, 1
2, 2
3, 1
3, 1
0, 1
0, 2
0, 4
1, 2
2, 1
2, 1
1, 3
0, 1
1, 0
1, 1
0, 1
1, 0
1, 1
1, 1
0, 3
2, 0
2, 1
0, 2
1, 0
0, 0
0, 0
0, 0
0, 0
1, 0
0, 0
2, 1
0, 0
0, 0
0, 0
1, 0
1, 0
0, 1
0, 0
0, 0
0, 0
1, 0
0, 0
0, 0
0, 1
0, 0
1, 0
0, 1
0, 0
0, 0
0, 0
0, 0
0, 0
0, 0
0, 1
0, 1
0, 0
0, 0
0, 1
0, 0
0, 0
1, 0
0, 0
0, 0
0, 0
0, 0
0, 0
0, 0
1, 0
0, 0
0, 0
0, 0
0, 0
0, 0
0, 0
0, 0
0, 0
1, 0
0, 0
1, 0
0, 0
0, 0
0, 0
0, 0
0, 0
0, 0
0, 0
0, 0
0, 0
0, 0
0, 0
0, 0
0, 0
0, 0
0, 1
0, 0
0, 0
0, 0
0, 0
0, 0
0, 0
0, 0
0, 0
0, 0
0, 0
0, 0
0, 0
0, 0
0, 0
0, 0
0, 0
0, 0
0, 0
0, 0
0, 0
0, 0
0, 0
0, 0
0, 0
0, 0
0, 0
0, 0
0, 0
0, 0
0, 0
0, 0
0, 0
0, 0
0, 0
0, 0
0, 0
0, 0
0, 0
0, 0
0, 0
0, 0
0, 0
0, 0
0, 0
0, 0
0, 0
0, 0
0, 0
0, 0
0, 0
0, 0
0, 0
0, 0
0, 0
0, 0
0, 0
0, 0
0, 0
0, 0
0, 0
0, 0
0, 0
0, 0
0, 0
0, 0
0, 0
0, 0
0, 0
0, 0
0, 0
0, 0
0, 0
0, 0
0, 0
0, 0
0, 0
0, 0
#ENDOFDATA     end of spectrum data

File: ps__0852shot_2152.msa
#FORMAT      : EMSA/MAS spectral data file
#VERSION     : TC202v2.0 PIXL
#TITLE       : N/A
#DATE        :       Date in the format DD-MMM-YYYY, for example 07-JUL-2010
#TIME        :             The time of day at which the spectrum was recorded, in 24-hour format
#OWNER       : PIXL Flight Model       (PIXL will use this to indicate which instrument took the data.)
#NPOINTS     : 4096     Number of data points in the spectrum (This can be zero for configuration only files)
#NCOLUMNS    : 2     Number of data columns in the spectrum (This can be zero for configuration only files)
#XUNITS      : eV
#YUNITS      : COUNTS
#DATATYPE    : YY
#XPERCHAN    : 7.862, 7.881   eV per channel (separate by commas if more than one detector)
#OFFSET      : 18.5, -22.4         eV of first channel  (separate by commas if more than one detector
#SIGNALTYPE  : XRF
#YP_TEMP     : 2.556
#LIVETIME    : 8.5693, 8.54591   seconds (separate by commas if more than one detector)
#REALTIME    : 10, 10.0   seconds (separate by commas if more than one detector)
#SPECTRUM    : start of spectrum data
0, 0
0, 0
0, 0
0, 0
0, 0
0, 0
0, 0
0, 0
1, 1
2, 0
5, 1
40, 32
64, 38
5, 2
2, 8
105, 98
439, 392
114, 91
6, 3
2, 0
1, 2
14, 11
6, 14
10, 20
32, 41
59, 37
27, 21
14, 12
5, 4
3, 1
1, 4
7, 1
2, 1
24, 13
16, 18
2, 9
7, 7
3, 9
7, 22
9, 14
6, 3
9, 15
23, 15
16, 12
8, 7
7, 6
13, 9
17, 2
13, 12
47, 9
60, 12
30, 9
19, 12
35, 43
57, 56
28, 37
44, 40
486, 586
2219, 2049
1768, 1253
247, 147
51, 28
48, 14
103, 137
322, 366
264, 200
40, 19
10, 9
9, 10
8, 3
8, 7
0, 2
4, 3
6, 5
7, 4
3, 8
6, 12
4, 6
8, 11
7, 1
2, 4
5, 3
3, 4
4, 10
4, 7
1, 13
3, 6
2, 3
5, 3
3, 2
7, 5
6, 2
5, 2
6, 4
10, 0
3, 1
1, 3
3, 1
2, 1
1, 3
3, 5
2, 2
3, 2
3, 2
2, 3
0, 4
1, 3
3, 3
5, 4
3, 2
2, 2
0, 2
2, 1
3, 1
1, 3
2, 6
4, 2
3, 3
2, 0
4, 1
3, 1
1, 1
5, 2
2, 3
2, 3
1, 2
3, 1
1, 4
4, 0
1, 1
0, 0
2, 1
1, 1
0, 1
0, 1
2, 2
1, 2
0, 0
1, 4
1, 0
3, 0
1, 1
0, 1
0, 0
0, 0
0, 0
0, 0
0, 1
1, 2
1, 0
1, 1
1, 1
0, 0
1, 0
0, 0
0, 0
1, 0
0, 1
0, 0
0, 0
0, 1
1, 0
0, 1
0, 0
2, 0
0, 0
0, 0
0, 1
0, 0
0, 1
0, 1
0, 1
0, 0
0, 0
0, 0
0, 1
1, 0
0, 0
0, 0
0, 0
0, 0
0, 1
0, 0
2, 0
0, 0
0, 0
0, 0
0, 0
0, 0
0, 0
0, 0
0, 0
0, 0
1, 0
0, 0
0, 0
0, 0
0, 0
0, 0
0, 0
0, 0
0, 0
0, 0
0, 0
0, 0
0, 0
0, 0
0, 0
0, 0
0, 0
0, 0
0, 0
0, 0
0, 0
0, 0
0, 0
0, 0
0, 0
0, 0
0, 0
0, 0
0, 0
0, 0
0, 1
0, 0
0, 0
0, 0
0, 0
0, 0
0, 0
0, 0
0, 0
0, 0
0, 0
0, 0
0, 0
0, 0
0, 0
0, 0
0, 0
0, 0
0, 0
0, 0
0, 0
0, 0
0, 0
0, 0
0, 0
0, 0
0, 0
0, 0
0, 0
0, 0
0, 0
0, 0
0, 0
0, 0
0, 0
0, 0
0, 0
0, 0
0, 0
0, 0
0, 0
0, 0
0, 0
0, 0
0, 0
0, 0
0, 0
0, 0
0, 0
0, 0
0, 0
0, 0
0, 0
0, 0
0, 0
0, 0
0, 0
0, 0
0, 0
0, 0
0, 0
0, 0
0, 0
0, 0
0, 0
0, 0
0, 0
0, 0
0, 0
0, 0
0, 0
#ENDOFDATA     end of spectrum data

File: ps__0852shot_2153.msa
#FORMAT      : EMSA/MAS spectral data file
#VERSION     : TC202v2.0 PIXL
#TITLE       : N/A
#DATE        :       Date in the format DD-MMM-YYYY, for example 07-JUL-2010
#TIME        :             The time of day at which the spectrum was recorded, in 24-hour format
#OWNER       : PIXL Flight Model       (PIXL will use this to indicate which instrument took the data.)
#NPOINTS     : 4096     Number of data points in the spectrum (This can be zero for configuration only files)
#NCOLUMNS    : 2     Number of data columns in the spectrum (This can be zero for configuration only files)
#XUNITS      : eV
#YUNITS      : COUNTS
#DATATYPE    : YY
#XPERCHAN    : 7.862, 7.881   eV per channel (separate by commas if more than one detector)
#OFFSET      : 18.5, -22.4         eV of first channel  (separate by commas if more than one detector
#SIGNALTYPE  : XRF
#YP_TEMP     : 2.364
#LIVETIME    : 8.54236, 8.54223   seconds (separate by commas if more than one detector)
#REALTIME    : 10, 10.0   seconds (separate by commas if more than one detector)
#SPECTRUM    : start of spectrum data
0, 0
0, 0
0, 0
0, 0
0, 0
0, 0
0, 0
0, 0
1, 0
1, 2
2, 5
40, 41
59, 68
9, 8
5, 2
105, 99
414, 417
117, 86
8, 6
1, 0
5, 5
15, 22
6, 18
9, 16
36, 29
47, 33
30, 36
14, 15
0, 5
2, 1
1, 2
0, 2
5, 6
17, 13
24, 15
12, 9
6, 3
8, 7
5, 5
12, 6
5, 11
17, 9
18, 21
20, 22
8, 11
13, 6
9, 7
9, 12
14, 8
61, 14
49, 20
23, 11
22, 15
38, 37
49, 39
23, 14
36, 43
479, 614
2194, 2214
1668, 1347
209, 145
45, 20
40, 27
116, 122
342, 363
250, 234
39, 18
8, 13
12, 10
10, 9
5, 5
4, 4
1, 6
7, 4
4, 4
6, 10
6, 2
6, 12
5, 4
5, 11
4, 5
0, 4
4, 3
4, 6
6, 12
5, 9
6, 7
3, 3
6, 7
13, 0
3, 6
6, 3
4, 6
2, 5
5, 4
1, 2
6, 0
4, 1
6, 1
2, 1
5, 2
4, 6
4, 4
3, 3
3, 3
1, 4
1, 3
0, 4
1, 2
2, 2
7, 0
2, 2
3, 3
1, 0
4, 0
1, 3
5, 4
2, 2
2, 1
4, 1
2, 0
1, 0
5, 2
3, 1
1, 0
2, 3
0, 0
1, 0
1, 1
3, 0
1, 1
1, 0
1, 0
1, 2
1, 0
0, 1
0, 0
2, 0
0, 0
0, 1
0, 0
1, 1
0, 1
0, 0
0, 0
0, 1
1, 1
0, 0
2, 0
0, 2
1, 2
0, 1
0, 0
0, 0
1, 0
0, 0
1, 0
0, 0
0, 0
0, 0
0, 1
0, 1
1, 0
0, 0
0, 0
0, 0
0, 0
0, 0
0, 0
1, 1
0, 0
0, 0
0, 0
0, 1
1, 0
0, 0
0, 0
0, 0
0, 0
0, 2
0, 0
1, 0
1, 1
0, 0
0, 0
0, 0
0, 0
0, 0
1, 0
0, 0
0, 0
0, 0
0, 0
0, 0
0, 0
1, 0
0, 0
0, 0
0, 0
0, 0
0, 0
0, 0
0, 0
0, 0
0, 0
0, 0
0, 0
0, 0
0, 0
0, 0
0, 0
0, 0
1, 0
0, 0
0, 0
0, 0
0, 0
0, 0
0, 0
0, 0
0, 0
0, 0
0, 0
0, 0
0, 0
0, 0
0, 0
0, 0
0, 0
0, 0
0, 0
0, 0
0, 0
0, 0
0, 0
0, 0
0, 0
0, 0
0, 0
0, 0
0, 0
0, 0
0, 0
0, 0
0, 0
0, 0
0, 0
0, 0
0, 0
0, 0
0, 0
0, 0
0, 0
0, 0
0, 0
0, 0
0, 0
0, 0
0, 0
0, 0
0, 0
0, 0
0, 0
0, 0
0, 0
0, 0
0, 0
0, 0
0, 0
0, 0
0, 0
0, 0
0, 0
0, 0
0, 0
0, 0
0, 0
0, 0
0, 0
0, 0
0, 0
0, 0
0, 0
0, 0
0, 0
0, 0
0, 0
0, 0
0, 0
0, 0
0, 0
0, 0
0, 0
0, 0
#ENDOFDATA     end of spectrum data

File: ps__0852shot_2154.msa
#FORMAT      : EMSA/MAS spectral data file
#VERSION     : TC202v2.0 PIXL
#TITLE       : N/A
#DATE        :       Date in the format DD-MMM-YYYY, for example 07-JUL-2010
#TIME        :             The time of day at which the spectrum was recorded, in 24-hour format
#OWNER       : PIXL Flight Model       (PIXL will use this to indicate which instrument took the data.)
#NPOINTS     : 4096     Number of data points in the spectrum (This can be zero for configuration only files)
#NCOLUMNS    : 2     Number of data columns in the spectrum (This can be zero for configuration only files)
#XUNITS      : eV
#YUNITS      : COUNTS
#DATATYPE    : YY
#XPERCHAN    : 7.862, 7.881   eV per channel (separate by commas if more than one detector)
#OFFSET      : 18.5, -22.4         eV of first channel  (separate by commas if more than one detector
#SIGNALTYPE  : XRF
#YP_TEMP     : 2.46
#LIVETIME    : 8.54349, 8.5404   seconds (separate by commas if more than one detector)
#REALTIME    : 10, 10.0   seconds (separate by commas if more than one detector)
#SPECTRUM    : start of spectrum data
0, 0
0, 0
0, 0
0, 0
0, 0
0, 0
0, 0
0, 0
1, 0
2, 0
2, 3
41, 42
85, 64
3, 6
4, 4
85, 97
447, 376
105, 81
2, 2
0, 0
6, 4
32, 31
12, 10
13, 7
19, 19
25, 28
15, 27
14, 13
6, 4
2, 1
3, 2
2, 3
30, 1
42, 16
29, 12
5, 10
6, 8
8, 4
6, 6
4, 6
10, 3
7, 11
21, 18
17, 28
7, 5
6, 5
7, 9
17, 10
23, 13
90, 15
68, 8
16, 7
9, 10
38, 29
49, 58
19, 15
40, 43
463, 581
2119, 2258
1620, 1343
199, 147
38, 27
32, 21
120, 138
337, 382
253, 245
42, 50
9, 14
14, 14
6, 12
5, 7
1, 7
2, 6
2, 6
4, 6
8, 4
4, 3
3, 3
5, 3
4, 5
10, 5
4, 1
9, 5
4, 4
2, 15
8, 10
2, 4
2, 3
6, 6
4, 2
10, 2
3, 1
3, 4
8, 2
2, 2
1, 1
2, 3
3, 3
7, 3
4, 3
3, 3
1, 4
2, 3
1, 1
1, 3
2, 6
0, 2
2, 2
2, 5
1, 2
1, 2
6, 1
2, 1
1, 1
0, 1
1, 3
6, 5
3, 2
2, 2
1, 1
0, 2
2, 4
0, 1
3, 4
0, 0
0, 1
1, 0
0, 0
3, 1
1, 1
1, 2
1, 2
2, 2
0, 1
1, 2
0, 2
1, 0
1, 1
0, 0
0, 0
1, 0
1, 0
0, 0
0, 1
0, 1
0, 1
0, 0
1, 0
0, 3
2, 0
0, 1
0, 0
0, 0
1, 0
0, 1
0, 0
0, 0
0, 0
0, 1
0, 0
0, 0
0, 1
0, 0
0, 0
0, 0
0, 0
0, 0
0, 0
0, 0
0, 0
0, 0
0, 0
0, 0
0, 0
0, 0
0, 0
0, 0
0, 0
1, 0
0, 0
0, 0
0, 0
0, 0
0, 0
0, 0
0, 0
0, 0
0, 0
0, 1
0, 0
0, 0
0, 0
0, 0
0, 0
0, 0
0, 0
0, 0
0, 0
0, 0
0, 0
0, 0
0, 0
0, 0
0, 0
0, 0
0, 0
0, 0
0, 0
0, 0
0, 0
0, 0
0, 0
0, 0
0, 0
0, 0
0, 0
0, 0
0, 0
0, 0
0, 0
0, 0
0, 0
0, 0
0, 0
0, 0
0, 0
0, 0
0, 0
0, 0
0, 0
0, 0
0, 0
0, 0
0, 0
0, 0
0, 0
0, 0
0, 0
0, 0
0, 0
0, 0
0, 0
0, 0
0, 0
0, 0
0, 0
0, 0
0, 0
0, 0
0, 0
0, 0
0, 0
0, 0
0, 0
0, 0
0, 0
0, 0
0, 0
0, 0
0, 0
0, 0
0, 0
0, 0
0, 0
0, 0
0, 0
0, 0
0, 0
0, 0
0, 0
0, 0
0, 0
0, 0
0, 0
0, 0
0, 0
0, 0
0, 0
0, 0
0, 0
0, 0
0, 0
0, 0
0, 0
0, 0
0, 0
0, 0
0, 0
0, 0
0, 0
0, 0
0, 0
0, 0
0, 0
#ENDOFDATA     end of spectrum data