Folder: data-repository/host_upload/06-09-2024/ps_0852/dump3 (part 28)

File: ps__0852shot_2246.msa
#FORMAT      : EMSA/MAS spectral data file
#VERSION     : TC202v2.0 PIXL
#TITLE       : N/A
#DATE        :       Date in the format DD-MMM-YYYY, for example 07-JUL-2010
#TIME        :             The time of day at which the spectrum was recorded, in 24-hour format
#OWNER       : PIXL Flight Model       (PIXL will use this to indicate which instrument took the data.)
#NPOINTS     : 4096     Number of data points in the spectrum (This can be zero for configuration only files)
#NCOLUMNS    : 2     Number of data columns in the spectrum (This can be zero for configuration only files)
#XUNITS      : eV
#YUNITS      : COUNTS
#DATATYPE    : YY
#XPERCHAN    : 7.862, 7.881   eV per channel (separate by commas if more than one detector)
#OFFSET      : 18.5, -22.4         eV of first channel  (separate by commas if more than one detector
#SIGNALTYPE  : XRF
#YP_TEMP     : 2.011
#LIVETIME    : 8.56444, 8.57117   seconds (separate by commas if more than one detector)
#REALTIME    : 10, 10.0   seconds (separate by commas if more than one detector)
#SPECTRUM    : start of spectrum data
0, 0
0, 0
0, 0
0, 0
0, 0
0, 0
0, 0
0, 0
0, 0
2, 1
4, 2
47, 47
70, 68
5, 3
8, 3
96, 97
478, 450
127, 106
1, 3
1, 1
2, 0
0, 4
3, 3
6, 7
46, 29
51, 27
20, 28
9, 17
7, 10
3, 0
3, 2
1, 0
1, 3
13, 8
13, 19
4, 2
3, 2
2, 4
3, 4
3, 4
8, 4
56, 9
57, 17
15, 8
6, 3
1, 9
4, 9
8, 3
26, 5
12, 13
10, 18
11, 47
8, 100
33, 81
56, 63
20, 10
46, 40
534, 605
2259, 2370
1603, 1352
239, 141
33, 33
25, 42
109, 128
327, 349
262, 207
36, 27
9, 34
13, 28
12, 8
3, 4
4, 3
8, 4
5, 3
8, 7
5, 4
5, 7
6, 5
2, 19
1, 22
3, 6
2, 3
2, 4
10, 2
14, 7
27, 6
5, 9
5, 5
2, 2
3, 3
1, 1
2, 6
1, 9
0, 7
2, 5
3, 1
3, 2
5, 1
4, 3
6, 1
1, 2
2, 2
2, 2
0, 1
4, 2
1, 3
1, 2
2, 0
4, 1
5, 3
0, 0
1, 0
1, 1
5, 4
3, 3
3, 0
10, 5
4, 2
3, 1
5, 3
1, 0
2, 1
0, 4
1, 0
0, 0
0, 2
2, 0
0, 1
3, 1
1, 2
0, 0
0, 0
0, 0
0, 0
1, 1
0, 1
0, 3
1, 1
0, 1
0, 0
0, 0
0, 0
0, 1
2, 0
2, 0
0, 0
0, 2
2, 0
0, 0
0, 1
1, 0
0, 0
1, 1
0, 0
0, 1
0, 1
0, 2
1, 0
0, 0
1, 0
1, 0
1, 0
0, 0
0, 0
1, 0
0, 0
0, 2
1, 1
1, 0
0, 2
0, 0
0, 0
0, 0
2, 0
0, 0
0, 0
0, 0
0, 0
0, 0
0, 1
0, 0
0, 0
0, 0
0, 0
0, 0
0, 0
0, 0
0, 1
0, 0
0, 1
0, 0
0, 0
0, 0
0, 0
0, 0
0, 0
0, 0
0, 0
0, 0
0, 0
0, 0
0, 0
0, 0
0, 0
0, 0
0, 0
0, 0
0, 0
0, 0
0, 0
0, 0
0, 0
0, 0
0, 0
0, 0
0, 0
0, 0
0, 0
0, 0
0, 0
0, 0
0, 0
0, 0
0, 0
0, 0
0, 0
0, 0
0, 0
0, 0
0, 0
0, 0
0, 0
0, 0
0, 0
0, 0
0, 0
0, 0
0, 0
0, 0
0, 0
0, 0
0, 0
0, 0
0, 0
0, 0
0, 0
0, 0
0, 0
0, 0
0, 0
0, 0
0, 0
0, 0
0, 0
0, 0
0, 0
0, 0
0, 0
0, 0
0, 0
0, 0
0, 0
0, 0
0, 0
0, 0
0, 0
0, 0
0, 0
0, 0
0, 0
0, 0
0, 0
0, 0
0, 0
0, 0
0, 0
0, 0
0, 0
0, 0
0, 0
0, 0
0, 0
0, 0
0, 0
0, 0
0, 0
0, 0
0, 0
0, 0
0, 0
0, 0
0, 0
0, 0
0, 0
#ENDOFDATA     end of spectrum data

File: ps__0852shot_2247.msa
#FORMAT      : EMSA/MAS spectral data file
#VERSION     : TC202v2.0 PIXL
#TITLE       : N/A
#DATE        :       Date in the format DD-MMM-YYYY, for example 07-JUL-2010
#TIME        :             The time of day at which the spectrum was recorded, in 24-hour format
#OWNER       : PIXL Flight Model       (PIXL will use this to indicate which instrument took the data.)
#NPOINTS     : 4096     Number of data points in the spectrum (This can be zero for configuration only files)
#NCOLUMNS    : 2     Number of data columns in the spectrum (This can be zero for configuration only files)
#XUNITS      : eV
#YUNITS      : COUNTS
#DATATYPE    : YY
#XPERCHAN    : 7.862, 7.881   eV per channel (separate by commas if more than one detector)
#OFFSET      : 18.5, -22.4         eV of first channel  (separate by commas if more than one detector
#SIGNALTYPE  : XRF
#YP_TEMP     : 2.332
#LIVETIME    : 8.5592, 8.56343   seconds (separate by commas if more than one detector)
#REALTIME    : 10, 10.0   seconds (separate by commas if more than one detector)
#SPECTRUM    : start of spectrum data
0, 0
0, 0
0, 0
0, 0
0, 0
0, 0
0, 0
0, 1
1, 1
0, 2
6, 1
55, 52
64, 57
6, 3
7, 6
109, 99
437, 451
107, 121
8, 5
2, 0
1, 3
0, 3
1, 0
9, 3
24, 27
30, 56
12, 29
10, 8
6, 4
1, 4
2, 2
5, 1
2, 2
11, 10
12, 16
8, 3
3, 4
3, 2
2, 2
1, 1
23, 3
151, 8
132, 16
34, 10
4, 4
3, 5
5, 4
3, 4
10, 17
23, 10
14, 11
6, 24
14, 59
38, 50
57, 51
16, 21
40, 36
480, 606
2223, 2374
1627, 1465
211, 164
23, 78
20, 41
87, 124
324, 359
247, 206
43, 25
30, 17
22, 16
8, 6
3, 5
5, 6
2, 8
5, 8
4, 9
7, 7
8, 5
5, 6
4, 12
4, 7
8, 6
4, 3
4, 6
5, 7
8, 5
13, 13
4, 7
2, 5
3, 1
3, 1
0, 2
2, 0
4, 2
4, 6
2, 3
1, 2
3, 3
4, 3
0, 5
2, 6
6, 2
4, 1
4, 1
1, 2
0, 1
3, 4
4, 4
5, 1
4, 6
2, 3
0, 1
3, 2
3, 3
4, 1
3, 1
0, 4
0, 6
2, 5
1, 2
0, 0
1, 4
3, 2
1, 2
4, 2
4, 0
3, 4
2, 1
0, 1
1, 0
0, 0
0, 0
1, 2
0, 1
1, 2
0, 0
0, 2
1, 1
0, 0
0, 1
0, 0
0, 0
0, 0
0, 0
0, 0
1, 1
0, 0
0, 0
3, 1
0, 2
1, 1
0, 0
0, 0
0, 0
0, 0
0, 1
0, 0
0, 0
0, 0
0, 1
0, 0
1, 1
0, 1
0, 0
0, 0
0, 0
0, 0
0, 1
1, 0
1, 0
0, 1
0, 0
0, 1
0, 0
0, 1
0, 0
0, 0
0, 0
0, 0
0, 0
0, 0
1, 0
0, 0
0, 0
0, 0
0, 0
0, 0
0, 0
0, 0
0, 0
0, 0
0, 0
0, 0
0, 0
0, 0
0, 0
0, 0
0, 0
0, 0
0, 0
0, 0
0, 0
0, 0
0, 0
0, 0
0, 0
0, 0
0, 0
0, 0
0, 0
0, 0
0, 0
0, 0
0, 0
0, 0
0, 0
0, 0
0, 0
0, 0
0, 0
0, 0
0, 0
0, 0
0, 0
0, 0
0, 0
0, 0
0, 0
0, 0
0, 0
0, 0
0, 0
0, 0
0, 0
0, 0
0, 0
0, 0
0, 0
0, 0
0, 0
0, 0
0, 0
0, 0
0, 0
0, 0
0, 0
0, 0
0, 0
0, 0
0, 0
0, 0
0, 0
0, 0
0, 0
0, 0
0, 0
0, 0
0, 0
0, 0
0, 0
0, 0
0, 0
0, 0
0, 0
0, 0
0, 0
0, 0
0, 0
0, 0
0, 0
0, 0
0, 0
0, 0
0, 0
0, 0
0, 0
0, 0
0, 0
0, 0
0, 0
0, 0
0, 0
0, 0
0, 0
0, 0
0, 0
0, 0
0, 0
0, 0
0, 0
0, 0
0, 0
0, 0
0, 0
0, 0
#ENDOFDATA     end of spectrum data

File: ps__0852shot_2248.msa
#FORMAT      : EMSA/MAS spectral data file
#VERSION     : TC202v2.0 PIXL
#TITLE       : N/A
#DATE        :       Date in the format DD-MMM-YYYY, for example 07-JUL-2010
#TIME        :             The time of day at which the spectrum was recorded, in 24-hour format
#OWNER       : PIXL Flight Model       (PIXL will use this to indicate which instrument took the data.)
#NPOINTS     : 4096     Number of data points in the spectrum (This can be zero for configuration only files)
#NCOLUMNS    : 2     Number of data columns in the spectrum (This can be zero for configuration only files)
#XUNITS      : eV
#YUNITS      : COUNTS
#DATATYPE    : YY
#XPERCHAN    : 7.862, 7.881   eV per channel (separate by commas if more than one detector)
#OFFSET      : 18.5, -22.4         eV of first channel  (separate by commas if more than one detector
#SIGNALTYPE  : XRF
#YP_TEMP     : 2.332
#LIVETIME    : 8.57233, 8.56837   seconds (separate by commas if more than one detector)
#REALTIME    : 10, 10.0   seconds (separate by commas if more than one detector)
#SPECTRUM    : start of spectrum data
0, 0
0, 0
0, 0
0, 0
0, 0
0, 0
0, 0
1, 0
0, 0
0, 2
1, 2
42, 51
57, 49
4, 8
2, 2
78, 94
415, 436
98, 106
12, 7
1, 0
1, 2
3, 4
2, 3
8, 8
29, 52
34, 49
28, 26
11, 7
5, 5
2, 2
3, 4
0, 5
0, 3
2, 7
16, 12
5, 2
5, 8
1, 4
2, 6
2, 3
8, 3
48, 11
80, 13
14, 11
12, 7
5, 6
4, 3
8, 10
3, 49
15, 40
5, 9
19, 8
34, 13
47, 62
65, 56
30, 19
27, 36
489, 665
2170, 2415
1593, 1424
191, 164
15, 52
17, 35
101, 134
329, 342
240, 201
46, 19
40, 5
25, 12
11, 8
5, 3
2, 2
5, 6
7, 7
7, 6
4, 6
9, 7
2, 4
2, 0
11, 4
12, 3
3, 7
2, 2
6, 3
1, 9
1, 7
2, 4
1, 2
3, 5
5, 2
3, 1
4, 4
4, 5
9, 2
7, 4
5, 5
2, 5
3, 3
3, 5
4, 1
1, 4
1, 4
0, 7
0, 6
1, 0
2, 2
1, 3
0, 1
0, 2
3, 4
2, 2
0, 2
1, 2
2, 1
1, 1
3, 5
5, 2
1, 3
2, 0
1, 2
3, 1
4, 1
2, 2
1, 1
1, 2
0, 1
1, 2
1, 3
0, 2
1, 1
0, 1
1, 0
1, 1
2, 0
1, 2
1, 1
0, 1
0, 0
0, 2
2, 0
0, 0
1, 1
0, 1
1, 0
0, 0
0, 1
0, 2
0, 0
0, 0
0, 2
0, 0
1, 0
0, 0
0, 1
0, 1
1, 0
1, 0
0, 0
1, 0
0, 0
1, 1
0, 0
0, 0
0, 0
0, 0
0, 0
0, 0
0, 0
0, 1
0, 0
0, 0
1, 0
1, 0
0, 0
0, 0
0, 0
0, 0
0, 0
0, 0
0, 0
0, 0
1, 0
0, 0
0, 2
0, 1
0, 1
1, 0
0, 0
0, 0
0, 0
0, 0
0, 0
0, 0
0, 0
1, 1
0, 0
0, 0
0, 0
0, 0
0, 0
0, 0
0, 0
0, 0
0, 0
0, 0
0, 0
0, 0
0, 0
0, 0
0, 0
0, 0
0, 0
0, 0
0, 0
0, 0
0, 0
0, 0
0, 0
0, 0
0, 0
0, 0
0, 0
0, 0
0, 0
0, 0
0, 0
0, 0
0, 0
0, 0
0, 0
0, 0
0, 0
0, 0
0, 0
0, 0
0, 0
0, 0
0, 0
0, 0
0, 0
0, 0
0, 0
0, 0
0, 0
0, 0
0, 0
0, 0
0, 0
0, 0
0, 0
0, 0
0, 0
0, 0
0, 0
0, 0
0, 0
0, 0
0, 0
0, 0
0, 0
0, 0
0, 0
0, 0
0, 0
0, 0
0, 0
0, 0
0, 0
0, 0
0, 0
0, 0
0, 0
0, 0
0, 0
0, 0
0, 0
0, 0
0, 0
0, 0
0, 0
0, 0
0, 0
0, 0
0, 0
0, 0
0, 0
0, 0
0, 0
0, 0
0, 0
0, 0
0, 0
0, 0
0, 0
#ENDOFDATA     end of spectrum data

File: ps__0852shot_2249.msa
#FORMAT      : EMSA/MAS spectral data file
#VERSION     : TC202v2.0 PIXL
#TITLE       : N/A
#DATE        :       Date in the format DD-MMM-YYYY, for example 07-JUL-2010
#TIME        :             The time of day at which the spectrum was recorded, in 24-hour format
#OWNER       : PIXL Flight Model       (PIXL will use this to indicate which instrument took the data.)
#NPOINTS     : 4096     Number of data points in the spectrum (This can be zero for configuration only files)
#NCOLUMNS    : 2     Number of data columns in the spectrum (This can be zero for configuration only files)
#XUNITS      : eV
#YUNITS      : COUNTS
#DATATYPE    : YY
#XPERCHAN    : 7.862, 7.881   eV per channel (separate by commas if more than one detector)
#OFFSET      : 18.5, -22.4         eV of first channel  (separate by commas if more than one detector
#SIGNALTYPE  : XRF
#YP_TEMP     : 2.588
#LIVETIME    : 8.56292, 8.55433   seconds (separate by commas if more than one detector)
#REALTIME    : 10, 10.0   seconds (separate by commas if more than one detector)
#SPECTRUM    : start of spectrum data
0, 0
0, 0
0, 0
0, 0
0, 0
0, 0
0, 0
0, 0
1, 0
0, 1
5, 2
56, 49
57, 58
11, 3
6, 7
103, 90
467, 418
111, 94
3, 4
2, 1
0, 6
3, 5
4, 3
2, 8
30, 32
42, 29
15, 21
14, 8
8, 6
1, 3
4, 7
7, 3
11, 3
9, 5
10, 11
1, 6
3, 5
1, 3
3, 0
3, 1
4, 8
10, 12
13, 17
9, 6
4, 4
6, 10
5, 5
5, 21
3, 38
17, 34
17, 12
11, 3
29, 6
47, 39
78, 49
29, 22
38, 42
484, 609
2075, 2405
1648, 1465
204, 146
34, 19
30, 16
100, 122
344, 355
222, 203
34, 26
14, 13
21, 14
13, 7
4, 2
3, 2
1, 3
3, 7
1, 13
4, 12
6, 8
7, 3
2, 6
9, 1
6, 1
13, 6
23, 4
4, 5
5, 2
10, 1
4, 3
9, 3
2, 1
2, 2
4, 4
4, 1
4, 1
2, 2
4, 1
4, 2
2, 5
1, 5
2, 3
3, 1
5, 0
1, 4
2, 2
0, 3
1, 1
5, 2
1, 2
3, 2
1, 1
1, 1
1, 2
1, 0
1, 3
1, 1
5, 1
0, 4
7, 4
3, 2
3, 0
4, 2
1, 3
1, 0
4, 3
2, 0
1, 3
7, 2
0, 2
2, 3
0, 4
1, 0
1, 1
1, 0
2, 0
2, 1
0, 3
0, 0
2, 0
0, 1
0, 2
0, 0
0, 0
0, 0
0, 0
1, 1
0, 1
0, 0
0, 0
0, 0
0, 0
0, 0
0, 0
0, 0
0, 1
0, 0
0, 0
0, 1
0, 0
1, 1
0, 0
0, 0
0, 0
0, 0
0, 0
0, 0
0, 0
0, 0
0, 0
0, 1
0, 0
1, 0
0, 0
0, 0
1, 0
0, 1
0, 0
0, 0
0, 0
0, 0
0, 2
0, 0
0, 0
2, 0
0, 1
0, 0
0, 1
0, 0
0, 1
0, 0
0, 0
0, 0
0, 0
0, 1
0, 0
0, 0
0, 0
0, 0
0, 0
0, 0
0, 0
0, 0
0, 0
0, 0
0, 0
0, 0
0, 0
0, 0
0, 0
0, 0
0, 0
0, 0
0, 0
0, 0
0, 0
0, 0
0, 0
0, 0
0, 0
0, 0
0, 0
0, 0
0, 0
0, 0
0, 0
0, 0
0, 0
0, 0
0, 0
0, 0
0, 0
0, 0
0, 0
0, 0
0, 0
0, 0
0, 0
0, 0
0, 0
0, 0
0, 0
0, 0
0, 0
0, 0
0, 0
0, 0
0, 0
0, 0
0, 0
0, 0
0, 0
0, 0
0, 0
0, 0
0, 0
0, 0
0, 0
0, 0
0, 0
0, 0
0, 0
0, 0
0, 0
0, 0
0, 0
0, 0
0, 0
0, 0
0, 0
0, 0
0, 0
0, 0
0, 0
0, 0
0, 0
0, 0
0, 0
0, 0
0, 0
0, 0
0, 0
0, 0
0, 0
0, 0
0, 0
0, 0
0, 0
0, 0
0, 0
0, 0
0, 0
0, 0
0, 0
0, 0
0, 0
0, 0
#ENDOFDATA     end of spectrum data

File: ps__0852shot_2250.msa
#FORMAT      : EMSA/MAS spectral data file
#VERSION     : TC202v2.0 PIXL
#TITLE       : N/A
#DATE        :       Date in the format DD-MMM-YYYY, for example 07-JUL-2010
#TIME        :             The time of day at which the spectrum was recorded, in 24-hour format
#OWNER       : PIXL Flight Model       (PIXL will use this to indicate which instrument took the data.)
#NPOINTS     : 4096     Number of data points in the spectrum (This can be zero for configuration only files)
#NCOLUMNS    : 2     Number of data columns in the spectrum (This can be zero for configuration only files)
#XUNITS      : eV
#YUNITS      : COUNTS
#DATATYPE    : YY
#XPERCHAN    : 7.862, 7.881   eV per channel (separate by commas if more than one detector)
#OFFSET      : 18.5, -22.4         eV of first channel  (separate by commas if more than one detector
#SIGNALTYPE  : XRF
#YP_TEMP     : 2.332
#LIVETIME    : 8.55044, 8.56812   seconds (separate by commas if more than one detector)
#REALTIME    : 10, 10.0   seconds (separate by commas if more than one detector)
#SPECTRUM    : start of spectrum data
0, 0
0, 0
0, 0
0, 0
0, 0
0, 0
0, 0
0, 0
0, 0
1, 1
5, 2
53, 60
83, 76
7, 6
2, 5
111, 105
472, 440
121, 112
3, 3
1, 0
3, 1
1, 3
5, 0
7, 6
16, 13
29, 20
14, 10
17, 13
2, 4
2, 4
0, 1
4, 2
8, 1
17, 14
17, 17
4, 2
4, 3
3, 1
2, 2
2, 2
1, 8
6, 16
10, 23
6, 9
4, 5
6, 4
2, 4
3, 9
9, 6
14, 12
12, 8
8, 14
11, 9
42, 40
108, 51
55, 30
34, 30
459, 596
2288, 2400
1606, 1360
213, 138
11, 16
17, 27
94, 135
346, 356
208, 199
26, 26
9, 6
15, 11
7, 8
2, 3
3, 5
0, 2
4, 11
6, 20
7, 14
5, 5
6, 2
3, 5
5, 4
10, 2
21, 2
21, 2
8, 5
7, 7
3, 2
6, 5
7, 3
1, 3
1, 3
2, 2
3, 1
0, 0
3, 4
3, 0
1, 4
2, 2
2, 3
4, 4
4, 3
4, 1
2, 4
1, 1
0, 7
2, 1
2, 3
1, 3
3, 2
1, 3
0, 6
2, 3
0, 1
2, 4
1, 2
2, 5
1, 4
12, 3
6, 2
1, 4
1, 1
1, 0
0, 1
3, 1
3, 1
2, 1
3, 3
1, 0
0, 1
1, 0
4, 0
0, 0
0, 1
1, 0
0, 2
0, 0
1, 0
0, 2
0, 0
1, 1
0, 3
0, 1
0, 3
0, 0
0, 3
0, 0
0, 0
0, 1
0, 0
0, 1
1, 0
0, 0
0, 1
0, 0
2, 0
0, 0
0, 0
0, 0
0, 0
0, 0
0, 0
1, 1
0, 0
0, 1
0, 0
0, 0
2, 1
0, 0
0, 0
0, 1
0, 0
0, 0
1, 0
0, 1
0, 0
0, 0
0, 0
0, 0
0, 0
1, 0
0, 0
0, 0
0, 0
0, 1
1, 0
0, 0
0, 0
0, 0
0, 0
0, 0
0, 0
0, 0
0, 0
0, 0
0, 0
0, 0
0, 0
0, 0
0, 0
0, 0
0, 1
0, 0
0, 0
0, 0
0, 0
0, 0
0, 0
0, 0
0, 0
0, 0
0, 0
0, 0
0, 0
0, 0
0, 0
0, 0
0, 0
0, 0
0, 0
0, 0
0, 1
0, 0
0, 0
0, 0
0, 0
0, 0
0, 0
0, 0
0, 0
0, 0
0, 0
0, 0
0, 0
0, 0
0, 0
0, 0
0, 0
0, 0
0, 0
0, 0
0, 0
0, 0
0, 0
0, 0
0, 0
0, 0
0, 0
0, 0
0, 0
0, 0
0, 0
0, 0
0, 0
0, 0
0, 0
0, 0
0, 0
0, 0
0, 0
0, 0
0, 0
0, 0
0, 0
0, 0
0, 0
0, 0
0, 0
0, 0
0, 0
0, 0
0, 0
0, 0
0, 0
0, 0
0, 0
0, 0
0, 0
0, 0
0, 0
0, 0
0, 0
0, 0
0, 0
0, 0
0, 0
0, 0
0, 0
0, 0
0, 0
0, 0
0, 0
0, 0
0, 0
0, 0
0, 0
#ENDOFDATA     end of spectrum data

File: ps__0852shot_2251.msa
#FORMAT      : EMSA/MAS spectral data file
#VERSION     : TC202v2.0 PIXL
#TITLE       : N/A
#DATE        :       Date in the format DD-MMM-YYYY, for example 07-JUL-2010
#TIME        :             The time of day at which the spectrum was recorded, in 24-hour format
#OWNER       : PIXL Flight Model       (PIXL will use this to indicate which instrument took the data.)
#NPOINTS     : 4096     Number of data points in the spectrum (This can be zero for configuration only files)
#NCOLUMNS    : 2     Number of data columns in the spectrum (This can be zero for configuration only files)
#XUNITS      : eV
#YUNITS      : COUNTS
#DATATYPE    : YY
#XPERCHAN    : 7.862, 7.881   eV per channel (separate by commas if more than one detector)
#OFFSET      : 18.5, -22.4         eV of first channel  (separate by commas if more than one detector
#SIGNALTYPE  : XRF
#YP_TEMP     : 2.46
#LIVETIME    : 8.55148, 8.57957   seconds (separate by commas if more than one detector)
#REALTIME    : 10, 10.0   seconds (separate by commas if more than one detector)
#SPECTRUM    : start of spectrum data
0, 0
0, 0
0, 0
0, 0
0, 0
0, 0
0, 0
0, 0
1, 0
0, 1
4, 1
51, 47
54, 70
7, 7
7, 4
93, 104
432, 438
96, 88
11, 8
0, 3
2, 1
2, 4
3, 3
4, 5
30, 20
32, 35
12, 19
13, 16
3, 4
2, 3
3, 3
11, 2
21, 0
46, 12
22, 14
10, 1
6, 4
10, 3
1, 3
2, 3
2, 6
6, 13
7, 11
13, 8
3, 7
2, 4
5, 4
2, 9
15, 11
25, 17
15, 14
8, 3
17, 17
46, 40
78, 66
47, 22
46, 43
507, 609
2264, 2374
1724, 1350
201, 135
24, 18
28, 29
126, 123
366, 368
247, 175
31, 26
11, 1
14, 17
4, 7
4, 3
5, 5
1, 6
0, 8
7, 20
7, 17
4, 5
6, 5
2, 3
5, 6
5, 3
17, 5
21, 3
12, 3
2, 1
5, 1
6, 3
4, 7
2, 4
2, 1
3, 1
1, 3
2, 1
1, 1
6, 4
7, 1
2, 6
4, 1
3, 2
1, 3
2, 2
0, 2
5, 3
2, 0
1, 2
4, 1
4, 1
0, 4
0, 6
1, 2
2, 5
1, 0
3, 1
1, 3
3, 3
4, 3
7, 3
7, 3
5, 0
4, 2
1, 3
4, 1
2, 4
1, 1
1, 2
1, 2
2, 1
0, 0
1, 4
1, 0
0, 2
1, 0
2, 1
1, 1
0, 0
0, 0
2, 1
3, 0
0, 0
2, 1
2, 0
1, 1
1, 1
1, 0
1, 0
0, 0
1, 0
0, 1
0, 0
1, 0
0, 1
1, 0
0, 0
0, 0
1, 1
0, 0
0, 0
2, 0
0, 1
0, 0
0, 0
1, 0
0, 0
0, 0
0, 0
0, 0
0, 0
1, 0
0, 0
0, 0
0, 1
1, 0
0, 1
0, 0
0, 0
0, 0
0, 0
0, 0
0, 0
0, 1
0, 0
0, 0
0, 0
0, 0
0, 0
0, 0
0, 0
0, 0
0, 0
0, 0
0, 0
0, 0
1, 0
0, 0
0, 0
0, 0
0, 0
0, 0
0, 0
0, 0
0, 0
0, 0
0, 0
0, 0
0, 0
0, 0
0, 0
0, 0
0, 0
0, 0
0, 0
0, 0
0, 0
0, 0
0, 0
0, 0
0, 0
0, 0
0, 0
0, 0
0, 0
0, 0
0, 0
0, 0
0, 0
0, 0
0, 0
0, 0
0, 0
0, 0
0, 0
0, 0
0, 0
0, 0
0, 0
0, 0
0, 0
0, 0
0, 0
0, 0
0, 0
0, 0
0, 0
0, 0
0, 0
0, 0
0, 0
0, 0
0, 0
0, 0
0, 0
0, 0
0, 0
0, 0
0, 0
0, 0
0, 0
0, 0
0, 0
0, 0
0, 0
0, 0
0, 0
0, 0
0, 0
0, 0
0, 0
0, 0
0, 0
0, 0
0, 0
0, 0
0, 0
0, 0
0, 0
0, 0
0, 0
0, 0
0, 0
0, 0
0, 0
0, 0
0, 0
0, 0
0, 0
0, 0
0, 0
0, 0
0, 0
0, 0
0, 0
0, 0
0, 0
0, 0
#ENDOFDATA     end of spectrum data

File: ps__0852shot_2252.msa
#FORMAT      : EMSA/MAS spectral data file
#VERSION     : TC202v2.0 PIXL
#TITLE       : N/A
#DATE        :       Date in the format DD-MMM-YYYY, for example 07-JUL-2010
#TIME        :             The time of day at which the spectrum was recorded, in 24-hour format
#OWNER       : PIXL Flight Model       (PIXL will use this to indicate which instrument took the data.)
#NPOINTS     : 4096     Number of data points in the spectrum (This can be zero for configuration only files)
#NCOLUMNS    : 2     Number of data columns in the spectrum (This can be zero for configuration only files)
#XUNITS      : eV
#YUNITS      : COUNTS
#DATATYPE    : YY
#XPERCHAN    : 7.862, 7.881   eV per channel (separate by commas if more than one detector)
#OFFSET      : 18.5, -22.4         eV of first channel  (separate by commas if more than one detector
#SIGNALTYPE  : XRF
#YP_TEMP     : 2.396
#LIVETIME    : 8.58823, 8.56648   seconds (separate by commas if more than one detector)
#REALTIME    : 10, 10.0   seconds (separate by commas if more than one detector)
#SPECTRUM    : start of spectrum data
0, 0
0, 0
0, 0
0, 0
0, 0
0, 0
0, 0
0, 0
1, 2
1, 0
4, 2
49, 34
57, 57
6, 4
6, 7
106, 100
489, 366
114, 110
7, 4
1, 1
2, 1
8, 8
5, 9
18, 20
64, 52
50, 64
22, 31
19, 15
5, 4
2, 4
4, 3
21, 3
42, 1
70, 32
61, 47
7, 16
14, 13
6, 6
12, 3
4, 3
8, 5
14, 16
7, 8
13, 11
6, 4
5, 9
6, 6
6, 4
19, 12
47, 46
19, 37
7, 26
13, 7
35, 29
54, 42
17, 19
28, 41
517, 625
2253, 2235
1699, 1381
204, 180
25, 28
95, 9
276, 106
419, 335
262, 189
37, 18
12, 5
17, 12
8, 4
7, 3
8, 0
19, 5
9, 5
6, 6
6, 1
7, 2
4, 2
2, 3
7, 5
5, 6
5, 2
3, 4
2, 1
4, 3
6, 3
1, 3
7, 2
3, 4
6, 1
1, 6
3, 4
6, 3
3, 1
6, 3
4, 4
4, 5
1, 3
4, 1
4, 3
4, 1
2, 3
0, 3
7, 0
7, 3
2, 1
2, 2
0, 3
0, 2
0, 1
1, 3
1, 1
2, 3
3, 3
4, 1
1, 2
3, 4
5, 0
0, 5
0, 0
0, 1
0, 2
1, 2
1, 3
1, 0
1, 1
1, 0
1, 0
1, 2
1, 1
0, 2
1, 1
0, 0
1, 2
0, 5
0, 0
1, 0
0, 0
1, 0
1, 0
0, 0
1, 0
0, 3
0, 0
0, 0
0, 0
1, 0
1, 0
0, 0
0, 0
0, 0
0, 0
2, 0
1, 0
1, 1
0, 0
2, 0
0, 0
0, 1
0, 0
0, 0
0, 0
1, 0
1, 1
0, 0
0, 0
0, 0
2, 1
0, 0
2, 0
1, 0
0, 1
0, 1
0, 0
0, 0
0, 0
0, 1
0, 1
0, 0
0, 0
0, 0
0, 0
0, 0
0, 0
0, 0
0, 0
0, 0
0, 0
0, 0
0, 0
0, 0
0, 0
0, 0
0, 0
0, 0
0, 0
0, 0
0, 0
0, 0
0, 0
0, 0
0, 0
0, 0
0, 0
0, 0
0, 0
0, 0
0, 1
0, 0
0, 0
0, 0
0, 0
0, 0
0, 0
0, 0
0, 0
0, 0
0, 0
0, 0
0, 0
0, 0
0, 0
0, 0
0, 0
0, 0
0, 0
0, 0
0, 0
0, 0
0, 0
0, 0
0, 0
0, 0
0, 0
0, 0
0, 0
0, 0
0, 0
0, 0
0, 0
0, 0
0, 0
0, 0
0, 0
0, 0
0, 0
0, 0
0, 0
0, 0
0, 0
0, 0
0, 0
0, 0
0, 0
0, 0
0, 0
0, 0
0, 0
0, 0
0, 0
0, 0
0, 0
0, 0
0, 0
0, 0
0, 0
0, 0
0, 0
0, 0
0, 0
0, 0
0, 0
0, 0
0, 0
0, 0
0, 0
0, 0
0, 0
0, 0
0, 0
0, 0
0, 0
0, 0
0, 0
0, 0
0, 0
0, 0
0, 0
0, 0
0, 0
0, 0
0, 0
0, 0
0, 0
#ENDOFDATA     end of spectrum data

File: ps__0852shot_2253.msa
#FORMAT      : EMSA/MAS spectral data file
#VERSION     : TC202v2.0 PIXL
#TITLE       : N/A
#DATE        :       Date in the format DD-MMM-YYYY, for example 07-JUL-2010
#TIME        :             The time of day at which the spectrum was recorded, in 24-hour format
#OWNER       : PIXL Flight Model       (PIXL will use this to indicate which instrument took the data.)
#NPOINTS     : 4096     Number of data points in the spectrum (This can be zero for configuration only files)
#NCOLUMNS    : 2     Number of data columns in the spectrum (This can be zero for configuration only files)
#XUNITS      : eV
#YUNITS      : COUNTS
#DATATYPE    : YY
#XPERCHAN    : 7.862, 7.881   eV per channel (separate by commas if more than one detector)
#OFFSET      : 18.5, -22.4         eV of first channel  (separate by commas if more than one detector
#SIGNALTYPE  : XRF
#YP_TEMP     : 2.3
#LIVETIME    : 8.56681, 8.55657   seconds (separate by commas if more than one detector)
#REALTIME    : 10, 10.0   seconds (separate by commas if more than one detector)
#SPECTRUM    : start of spectrum data
0, 0
0, 0
0, 0
0, 0
0, 0
0, 0
0, 0
0, 0
1, 0
1, 0
3, 2
44, 29
54, 52
11, 4
6, 3
129, 105
479, 430
101, 95
8, 4
1, 2
5, 2
10, 5
6, 4
15, 13
61, 70
49, 66
28, 34
17, 21
8, 2
2, 2
3, 5
16, 5
25, 6
49, 44
95, 59
14, 13
7, 13
21, 14
8, 11
5, 2
5, 1
17, 11
22, 14
33, 13
16, 7
8, 6
6, 5
11, 9
9, 12
25, 31
18, 36
13, 20
9, 11
41, 47
55, 50
31, 18
28, 36
471, 541
2233, 2144
1607, 1373
230, 180
35, 34
100, 31
264, 93
421, 309
247, 182
40, 20
8, 8
13, 16
9, 7
5, 4
5, 2
3, 3
7, 7
8, 4
3, 7
1, 1
1, 3
5, 2
8, 0
3, 4
3, 2
4, 4
6, 3
5, 4
6, 7
8, 3
5, 1
2, 3
8, 3
3, 4
4, 3
7, 9
3, 5
4, 2
4, 8
4, 5
3, 0
5, 0
4, 0
4, 1
5, 0
3, 2
3, 0
5, 1
1, 2
3, 1
1, 1
3, 0
2, 2
2, 6
4, 3
4, 1
5, 2
4, 4
4, 3
10, 1
4, 4
1, 1
4, 0
3, 2
1, 2
3, 0
3, 1
6, 3
0, 1
1, 1
1, 0
2, 2
0, 3
0, 2
2, 2
0, 3
1, 2
1, 1
0, 1
0, 0
0, 0
0, 2
0, 0
1, 0
1, 0
1, 3
1, 1
1, 0
2, 0
0, 0
0, 0
0, 0
1, 1
0, 0
1, 0
0, 1
1, 0
0, 0
0, 0
0, 1
0, 0
1, 0
0, 0
1, 0
2, 0
0, 0
0, 0
0, 0
0, 0
0, 0
1, 0
0, 0
0, 2
1, 0
0, 0
0, 0
0, 0
0, 1
0, 0
0, 0
1, 0
0, 1
0, 0
0, 0
0, 0
0, 0
0, 1
0, 0
0, 0
0, 0
0, 0
0, 1
0, 0
0, 0
0, 0
0, 0
0, 0
0, 0
0, 0
0, 0
0, 0
0, 0
0, 0
0, 0
0, 0
0, 0
0, 0
0, 0
1, 0
0, 0
0, 0
0, 0
0, 0
0, 0
0, 0
0, 0
0, 0
1, 0
0, 0
0, 0
0, 0
0, 0
0, 0
0, 0
0, 0
0, 0
0, 0
0, 0
0, 0
0, 0
0, 0
0, 0
0, 0
0, 0
0, 0
0, 0
0, 0
0, 0
0, 0
0, 0
0, 0
0, 0
0, 0
0, 0
0, 0
0, 0
0, 0
0, 0
0, 0
0, 0
0, 0
0, 0
0, 0
0, 0
0, 0
0, 0
0, 0
0, 0
0, 0
0, 0
0, 0
0, 0
0, 0
0, 0
0, 0
0, 0
0, 0
0, 0
0, 0
0, 0
0, 0
0, 0
0, 0
0, 0
0, 0
0, 0
0, 0
0, 0
0, 0
0, 0
0, 0
0, 0
0, 0
0, 0
0, 0
0, 0
0, 0
0, 0
0, 0
0, 0
0, 0
0, 0
0, 0
0, 0
0, 0
0, 0
0, 0
#ENDOFDATA     end of spectrum data

File: ps__0852shot_2254.msa
#FORMAT      : EMSA/MAS spectral data file
#VERSION     : TC202v2.0 PIXL
#TITLE       : N/A
#DATE        :       Date in the format DD-MMM-YYYY, for example 07-JUL-2010
#TIME        :             The time of day at which the spectrum was recorded, in 24-hour format
#OWNER       : PIXL Flight Model       (PIXL will use this to indicate which instrument took the data.)
#NPOINTS     : 4096     Number of data points in the spectrum (This can be zero for configuration only files)
#NCOLUMNS    : 2     Number of data columns in the spectrum (This can be zero for configuration only files)
#XUNITS      : eV
#YUNITS      : COUNTS
#DATATYPE    : YY
#XPERCHAN    : 7.862, 7.881   eV per channel (separate by commas if more than one detector)
#OFFSET      : 18.5, -22.4         eV of first channel  (separate by commas if more than one detector
#SIGNALTYPE  : XRF
#YP_TEMP     : 2.364
#LIVETIME    : 8.58024, 8.57009   seconds (separate by commas if more than one detector)
#REALTIME    : 10, 10.0   seconds (separate by commas if more than one detector)
#SPECTRUM    : start of spectrum data
0, 0
0, 0
0, 0
0, 0
0, 0
0, 0
0, 0
1, 0
1, 0
0, 2
1, 1
47, 48
75, 56
8, 6
1, 6
115, 90
438, 398
114, 94
12, 3
2, 1
2, 4
6, 6
3, 0
7, 13
26, 23
33, 35
17, 26
16, 12
5, 6
5, 4
2, 2
6, 0
5, 4
26, 17
43, 35
10, 5
10, 7
7, 17
8, 20
5, 9
10, 7
14, 7
19, 25
54, 30
64, 13
19, 4
8, 12
2, 5
8, 8
15, 11
17, 14
7, 12
12, 12
42, 40
52, 49
15, 13
37, 43
532, 557
2264, 2300
1664, 1338
221, 142
62, 11
70, 25
118, 103
323, 357
248, 203
39, 24
8, 9
12, 13
15, 8
9, 0
4, 4
6, 4
8, 4
8, 4
6, 3
3, 7
3, 4
3, 5
4, 6
5, 4
3, 5
2, 3
2, 5
4, 10
5, 25
9, 17
7, 3
6, 2
17, 1
20, 6
4, 2
3, 3
2, 4
4, 3
5, 3
3, 3
1, 4
2, 4
4, 4
4, 4
1, 3
6, 2
3, 3
2, 2
3, 7
0, 3
1, 4
1, 5
2, 1
2, 1
4, 1
3, 1
0, 1
2, 3
3, 3
4, 5
6, 5
3, 0
3, 1
2, 1
0, 2
2, 1
4, 2
0, 1
1, 0
1, 3
1, 1
1, 0
1, 3
4, 1
2, 1
2, 0
1, 2
2, 1
0, 0
1, 0
0, 0
0, 1
1, 0
0, 2
0, 0
0, 2
0, 0
1, 0
0, 0
0, 0
0, 0
0, 0
1, 2
0, 0
0, 0
0, 1
0, 0
0, 1
0, 0
1, 0
0, 1
0, 0
1, 0
0, 1
0, 0
0, 0
1, 1
0, 0
0, 0
0, 0
0, 0
0, 1
0, 0
0, 0
0, 1
0, 0
0, 1
0, 0
0, 0
0, 1
1, 0
0, 0
0, 0
0, 1
1, 0
0, 0
0, 1
0, 0
0, 1
0, 0
0, 0
0, 0
0, 0
0, 0
0, 0
0, 0
0, 0
0, 0
0, 0
0, 1
0, 0
0, 1
0, 0
0, 0
0, 0
0, 0
0, 0
0, 0
0, 0
0, 0
0, 0
0, 0
0, 0
0, 0
0, 0
0, 0
0, 0
0, 0
0, 0
0, 0
0, 0
0, 0
0, 0
0, 0
0, 0
0, 0
0, 0
0, 0
0, 0
0, 0
0, 0
0, 0
0, 0
0, 0
0, 0
0, 0
0, 0
0, 0
0, 0
0, 0
0, 0
0, 0
0, 0
0, 0
0, 0
0, 0
0, 0
0, 0
0, 0
0, 0
0, 0
0, 0
0, 0
0, 0
0, 0
0, 0
0, 0
0, 0
0, 0
0, 0
0, 0
0, 0
0, 0
0, 0
0, 0
0, 0
0, 0
0, 0
0, 0
0, 0
0, 0
0, 0
0, 0
0, 0
0, 0
0, 0
0, 0
0, 0
0, 0
0, 0
0, 0
0, 0
0, 0
0, 0
0, 0
0, 0
0, 0
0, 0
0, 0
0, 0
0, 0
0, 0
0, 0
0, 0
0, 0
0, 0
0, 0
#ENDOFDATA     end of spectrum data