Folder: data-repository/host_upload/06-09-2024/ps_0852/dump3 (part 36)

File: ps__0852shot_2318.msa
#FORMAT      : EMSA/MAS spectral data file
#VERSION     : TC202v2.0 PIXL
#TITLE       : N/A
#DATE        :       Date in the format DD-MMM-YYYY, for example 07-JUL-2010
#TIME        :             The time of day at which the spectrum was recorded, in 24-hour format
#OWNER       : PIXL Flight Model       (PIXL will use this to indicate which instrument took the data.)
#NPOINTS     : 4096     Number of data points in the spectrum (This can be zero for configuration only files)
#NCOLUMNS    : 2     Number of data columns in the spectrum (This can be zero for configuration only files)
#XUNITS      : eV
#YUNITS      : COUNTS
#DATATYPE    : YY
#XPERCHAN    : 7.862, 7.881   eV per channel (separate by commas if more than one detector)
#OFFSET      : 18.5, -22.4         eV of first channel  (separate by commas if more than one detector
#SIGNALTYPE  : XRF
#YP_TEMP     : 2.332
#LIVETIME    : 8.55424, 8.54517   seconds (separate by commas if more than one detector)
#REALTIME    : 10, 10.0   seconds (separate by commas if more than one detector)
#SPECTRUM    : start of spectrum data
0, 0
0, 0
0, 0
0, 0
0, 0
0, 0
0, 0
0, 0
0, 4
3, 0
2, 4
23, 29
38, 32
7, 4
6, 5
102, 100
416, 445
100, 97
5, 12
4, 9
14, 17
109, 102
49, 34
24, 35
87, 82
67, 77
31, 41
18, 14
10, 8
4, 5
5, 8
6, 8
10, 14
209, 248
371, 390
54, 69
33, 58
57, 56
8, 6
6, 2
6, 9
31, 20
18, 15
31, 7
58, 6
10, 9
5, 10
5, 6
13, 18
41, 49
48, 28
17, 9
9, 12
42, 58
80, 56
34, 25
22, 31
377, 503
1695, 1921
1224, 1120
145, 104
8, 9
31, 19
87, 107
270, 288
201, 154
29, 24
11, 5
11, 13
4, 5
3, 4
7, 4
0, 6
3, 7
6, 2
8, 7
7, 5
7, 5
9, 3
7, 7
6, 8
4, 4
7, 3
11, 8
5, 3
5, 3
3, 4
3, 5
7, 5
6, 6
3, 4
8, 8
2, 3
2, 3
3, 6
5, 4
4, 4
1, 3
3, 1
2, 5
2, 4
4, 4
1, 2
4, 3
2, 5
2, 3
8, 2
0, 2
1, 1
2, 3
1, 1
2, 3
2, 2
3, 0
0, 1
2, 3
3, 1
2, 2
3, 0
2, 0
1, 1
0, 3
0, 3
1, 3
1, 2
1, 1
0, 0
2, 0
0, 1
2, 2
0, 0
0, 0
1, 0
1, 1
2, 1
0, 2
1, 0
0, 1
2, 0
1, 1
0, 1
4, 0
0, 0
0, 1
0, 0
0, 1
0, 1
0, 0
1, 1
1, 0
1, 1
0, 0
1, 1
0, 1
0, 1
0, 0
0, 0
0, 0
0, 0
0, 0
0, 0
0, 0
0, 1
0, 0
0, 1
0, 0
0, 0
0, 1
0, 0
2, 0
0, 0
0, 1
0, 0
0, 0
0, 0
0, 0
0, 0
0, 0
0, 0
0, 0
0, 0
0, 0
1, 0
0, 0
0, 0
0, 0
0, 0
1, 0
0, 0
0, 0
1, 0
0, 0
0, 0
0, 0
0, 0
1, 0
0, 0
0, 0
0, 1
0, 0
0, 0
0, 0
0, 0
0, 0
0, 0
0, 0
0, 0
0, 0
0, 0
0, 0
0, 0
0, 0
0, 1
0, 0
0, 0
0, 0
0, 0
0, 0
0, 0
0, 0
0, 0
0, 0
0, 0
0, 0
0, 1
0, 0
0, 0
0, 0
0, 0
0, 0
0, 0
0, 0
0, 0
0, 0
0, 0
0, 0
0, 0
0, 0
0, 0
0, 0
0, 0
0, 0
0, 0
0, 0
0, 0
0, 0
0, 0
0, 0
0, 0
0, 0
0, 0
0, 0
0, 0
0, 0
0, 0
0, 0
0, 0
0, 0
0, 0
0, 0
0, 0
0, 0
0, 0
0, 0
0, 0
0, 0
0, 0
0, 0
0, 0
0, 0
0, 0
0, 0
0, 0
0, 0
0, 0
0, 0
0, 0
0, 0
0, 0
0, 0
0, 0
0, 0
0, 0
0, 0
0, 0
0, 0
0, 0
0, 0
0, 0
0, 0
0, 0
0, 0
0, 0
0, 0
#ENDOFDATA     end of spectrum data

File: ps__0852shot_2319.msa
#FORMAT      : EMSA/MAS spectral data file
#VERSION     : TC202v2.0 PIXL
#TITLE       : N/A
#DATE        :       Date in the format DD-MMM-YYYY, for example 07-JUL-2010
#TIME        :             The time of day at which the spectrum was recorded, in 24-hour format
#OWNER       : PIXL Flight Model       (PIXL will use this to indicate which instrument took the data.)
#NPOINTS     : 4096     Number of data points in the spectrum (This can be zero for configuration only files)
#NCOLUMNS    : 2     Number of data columns in the spectrum (This can be zero for configuration only files)
#XUNITS      : eV
#YUNITS      : COUNTS
#DATATYPE    : YY
#XPERCHAN    : 7.862, 7.881   eV per channel (separate by commas if more than one detector)
#OFFSET      : 18.5, -22.4         eV of first channel  (separate by commas if more than one detector
#SIGNALTYPE  : XRF
#YP_TEMP     : 2.428
#LIVETIME    : 8.54354, 8.53609   seconds (separate by commas if more than one detector)
#REALTIME    : 10, 10.0   seconds (separate by commas if more than one detector)
#SPECTRUM    : start of spectrum data
0, 0
0, 0
0, 0
0, 0
0, 0
0, 0
0, 0
0, 0
3, 2
2, 1
3, 1
28, 23
48, 26
5, 2
6, 7
96, 63
428, 330
103, 75
11, 5
3, 1
5, 6
38, 30
11, 18
19, 18
106, 80
77, 70
33, 34
20, 22
9, 5
6, 4
7, 2
3, 3
14, 7
126, 112
177, 173
44, 34
36, 21
29, 27
10, 9
11, 7
9, 9
28, 16
28, 13
32, 9
88, 2
55, 5
11, 4
8, 9
21, 24
88, 87
59, 55
13, 15
11, 7
56, 54
82, 82
43, 23
33, 31
510, 494
2174, 1932
1651, 1145
187, 113
23, 17
25, 18
103, 94
369, 285
223, 189
41, 18
13, 2
15, 8
10, 6
8, 4
5, 6
9, 6
12, 3
16, 3
17, 2
3, 4
8, 3
5, 5
8, 5
7, 4
4, 5
5, 8
6, 5
5, 4
3, 4
0, 3
6, 1
11, 1
1, 3
6, 3
4, 2
2, 4
1, 2
3, 3
4, 1
2, 2
3, 0
1, 1
4, 2
6, 6
2, 4
7, 3
4, 3
3, 3
3, 0
3, 5
4, 9
4, 1
1, 2
2, 0
0, 0
0, 0
1, 3
3, 3
0, 2
5, 2
0, 1
3, 2
0, 2
3, 1
1, 0
2, 0
1, 0
0, 3
1, 2
1, 0
2, 0
2, 1
2, 0
2, 2
2, 0
1, 0
1, 1
1, 0
1, 1
2, 0
2, 2
0, 2
1, 0
0, 1
0, 1
0, 1
0, 1
0, 0
1, 0
0, 0
2, 0
2, 0
0, 0
0, 0
2, 0
1, 0
0, 0
1, 1
0, 1
2, 0
0, 0
0, 1
0, 0
0, 0
1, 0
0, 0
1, 0
0, 0
0, 1
1, 1
2, 0
0, 1
0, 0
0, 1
0, 0
0, 0
1, 0
0, 0
0, 0
0, 0
0, 0
0, 0
1, 0
1, 0
0, 0
0, 0
0, 0
0, 0
0, 0
0, 0
0, 0
0, 0
0, 0
0, 0
0, 0
0, 0
0, 0
0, 0
0, 0
0, 0
0, 0
0, 0
0, 0
1, 0
0, 0
0, 0
0, 0
0, 0
0, 0
1, 0
0, 0
1, 0
0, 0
0, 0
0, 0
0, 0
0, 0
0, 0
0, 0
0, 0
0, 0
0, 0
0, 0
0, 0
0, 0
0, 0
0, 0
0, 0
0, 0
0, 0
0, 0
0, 0
0, 0
0, 0
0, 0
0, 0
0, 0
0, 0
0, 0
0, 0
0, 0
0, 0
0, 0
0, 0
0, 0
0, 0
0, 0
0, 0
0, 0
0, 0
0, 0
0, 0
0, 0
0, 0
0, 0
0, 0
0, 0
0, 0
0, 0
0, 0
0, 0
0, 0
0, 0
0, 0
0, 0
0, 0
0, 0
0, 0
0, 0
0, 0
0, 0
0, 0
0, 0
0, 0
0, 0
0, 0
0, 0
0, 0
0, 0
0, 0
0, 0
0, 0
0, 0
0, 0
0, 0
0, 0
0, 0
0, 0
0, 0
0, 0
0, 0
0, 0
0, 0
0, 0
0, 0
0, 0
0, 0
#ENDOFDATA     end of spectrum data

File: ps__0852shot_2320.msa
#FORMAT      : EMSA/MAS spectral data file
#VERSION     : TC202v2.0 PIXL
#TITLE       : N/A
#DATE        :       Date in the format DD-MMM-YYYY, for example 07-JUL-2010
#TIME        :             The time of day at which the spectrum was recorded, in 24-hour format
#OWNER       : PIXL Flight Model       (PIXL will use this to indicate which instrument took the data.)
#NPOINTS     : 4096     Number of data points in the spectrum (This can be zero for configuration only files)
#NCOLUMNS    : 2     Number of data columns in the spectrum (This can be zero for configuration only files)
#XUNITS      : eV
#YUNITS      : COUNTS
#DATATYPE    : YY
#XPERCHAN    : 7.862, 7.881   eV per channel (separate by commas if more than one detector)
#OFFSET      : 18.5, -22.4         eV of first channel  (separate by commas if more than one detector
#SIGNALTYPE  : XRF
#YP_TEMP     : 2.46
#LIVETIME    : 8.55963, 8.54408   seconds (separate by commas if more than one detector)
#REALTIME    : 10, 10.0   seconds (separate by commas if more than one detector)
#SPECTRUM    : start of spectrum data
0, 0
0, 0
0, 0
0, 0
0, 0
0, 0
0, 0
0, 0
1, 2
1, 0
5, 2
33, 46
54, 39
6, 7
4, 2
93, 103
414, 435
116, 81
2, 8
3, 1
4, 3
9, 4
8, 0
17, 14
64, 64
52, 42
21, 27
19, 22
4, 4
4, 3
6, 2
3, 2
4, 3
35, 26
56, 40
19, 6
60, 5
64, 10
2, 5
6, 12
6, 4
8, 10
11, 13
32, 13
58, 6
27, 8
11, 6
3, 10
8, 7
18, 23
18, 10
21, 7
8, 12
40, 41
82, 68
26, 11
31, 39
513, 585
2196, 2121
1604, 1307
207, 150
23, 16
20, 13
108, 144
329, 349
262, 183
36, 26
7, 2
22, 19
13, 12
7, 3
11, 5
29, 6
23, 8
30, 4
7, 9
6, 6
2, 8
1, 4
5, 4
2, 5
4, 4
3, 1
3, 5
10, 2
1, 3
3, 5
3, 3
4, 6
6, 4
2, 5
6, 5
4, 2
3, 4
4, 3
1, 4
4, 5
3, 7
2, 3
2, 3
2, 6
0, 4
2, 6
3, 2
2, 4
2, 1
5, 5
0, 1
2, 6
3, 1
0, 1
2, 2
3, 4
1, 2
2, 3
1, 2
5, 6
7, 5
2, 3
1, 2
2, 4
1, 0
3, 5
1, 0
3, 1
0, 5
1, 1
1, 1
0, 1
0, 1
1, 1
0, 1
1, 0
1, 1
2, 2
1, 2
0, 0
0, 1
0, 1
1, 0
1, 2
1, 0
1, 0
0, 0
1, 1
1, 0
0, 0
1, 0
1, 0
0, 0
0, 0
0, 0
0, 3
0, 1
0, 0
0, 1
0, 1
0, 2
0, 0
0, 0
1, 0
1, 1
0, 0
2, 1
1, 0
2, 0
0, 0
0, 1
1, 0
0, 0
0, 0
0, 0
1, 2
1, 0
0, 0
0, 0
0, 0
0, 1
0, 0
0, 0
0, 0
0, 0
1, 1
0, 0
0, 0
0, 0
1, 0
0, 0
0, 0
0, 0
0, 0
0, 0
0, 0
0, 0
0, 0
0, 0
0, 0
0, 0
1, 0
0, 0
0, 0
0, 0
0, 0
0, 0
0, 0
0, 0
0, 0
0, 0
0, 0
0, 0
0, 0
0, 0
0, 0
0, 0
0, 0
0, 0
0, 0
0, 0
0, 0
0, 0
0, 0
0, 0
0, 0
0, 0
0, 0
0, 0
0, 0
0, 0
0, 0
0, 0
0, 0
0, 0
0, 0
0, 0
0, 0
0, 0
0, 0
0, 0
0, 0
0, 0
0, 0
0, 0
0, 0
0, 0
0, 0
0, 0
0, 0
0, 0
0, 0
0, 0
0, 0
0, 0
0, 0
0, 0
0, 0
0, 0
0, 0
0, 0
0, 0
0, 0
0, 0
0, 0
0, 0
0, 0
0, 0
0, 0
0, 0
0, 0
0, 0
0, 0
0, 0
0, 0
0, 0
0, 0
0, 0
0, 0
0, 0
0, 0
0, 0
0, 0
0, 0
0, 0
0, 0
0, 0
0, 0
0, 0
0, 0
0, 0
0, 0
0, 0
0, 0
0, 0
0, 0
0, 0
#ENDOFDATA     end of spectrum data

File: ps__0852shot_2321.msa
#FORMAT      : EMSA/MAS spectral data file
#VERSION     : TC202v2.0 PIXL
#TITLE       : N/A
#DATE        :       Date in the format DD-MMM-YYYY, for example 07-JUL-2010
#TIME        :             The time of day at which the spectrum was recorded, in 24-hour format
#OWNER       : PIXL Flight Model       (PIXL will use this to indicate which instrument took the data.)
#NPOINTS     : 4096     Number of data points in the spectrum (This can be zero for configuration only files)
#NCOLUMNS    : 2     Number of data columns in the spectrum (This can be zero for configuration only files)
#XUNITS      : eV
#YUNITS      : COUNTS
#DATATYPE    : YY
#XPERCHAN    : 7.862, 7.881   eV per channel (separate by commas if more than one detector)
#OFFSET      : 18.5, -22.4         eV of first channel  (separate by commas if more than one detector
#SIGNALTYPE  : XRF
#YP_TEMP     : 2.139
#LIVETIME    : 8.57287, 8.55474   seconds (separate by commas if more than one detector)
#REALTIME    : 10, 10.0   seconds (separate by commas if more than one detector)
#SPECTRUM    : start of spectrum data
0, 0
0, 0
0, 0
0, 0
0, 0
0, 0
0, 0
1, 1
0, 0
1, 0
2, 2
42, 46
49, 65
6, 6
5, 6
98, 99
408, 483
84, 109
6, 9
0, 1
4, 1
4, 4
4, 9
10, 14
49, 51
47, 35
21, 12
14, 24
4, 11
0, 4
2, 5
3, 2
3, 4
19, 18
33, 24
28, 7
81, 4
29, 10
7, 3
0, 3
3, 5
8, 10
14, 17
9, 13
6, 5
7, 2
7, 7
4, 20
7, 11
24, 28
20, 15
10, 5
6, 12
31, 36
57, 58
15, 24
27, 37
453, 636
2110, 2542
1516, 1460
155, 138
8, 9
22, 19
100, 133
327, 406
213, 211
31, 26
7, 11
20, 15
6, 14
15, 7
46, 5
48, 8
29, 9
4, 9
0, 5
7, 2
6, 3
4, 6
6, 9
8, 6
2, 5
10, 5
7, 4
2, 2
2, 5
9, 4
5, 2
3, 1
2, 4
3, 6
1, 4
1, 1
4, 5
3, 4
0, 4
1, 2
5, 4
3, 2
4, 2
4, 3
3, 3
0, 2
1, 2
4, 1
3, 4
0, 2
2, 2
5, 1
2, 2
2, 1
1, 4
2, 0
0, 2
4, 2
0, 6
2, 8
1, 5
6, 1
0, 1
0, 1
0, 1
6, 1
0, 1
0, 1
1, 1
2, 0
1, 0
1, 0
2, 0
0, 0
0, 1
0, 0
1, 1
0, 0
0, 0
3, 1
2, 3
2, 1
1, 0
1, 2
0, 0
0, 1
0, 2
1, 0
0, 1
0, 1
0, 2
1, 0
2, 0
0, 0
1, 0
0, 1
0, 0
0, 1
1, 1
0, 0
1, 1
0, 1
0, 0
0, 0
0, 0
0, 1
1, 0
1, 0
0, 0
0, 1
1, 0
0, 0
1, 0
1, 1
0, 0
1, 0
1, 0
0, 0
0, 0
0, 0
0, 0
0, 0
0, 0
0, 0
0, 0
0, 0
0, 0
1, 1
0, 0
0, 0
0, 0
0, 0
0, 0
0, 0
1, 0
0, 0
0, 0
0, 0
0, 0
0, 0
0, 0
1, 0
0, 0
0, 0
0, 0
0, 0
0, 0
0, 0
0, 0
0, 0
0, 0
0, 0
0, 0
0, 0
0, 0
0, 0
0, 0
0, 0
0, 0
0, 0
0, 0
0, 0
0, 0
0, 0
0, 0
0, 0
0, 0
0, 0
0, 0
0, 0
0, 0
0, 0
0, 0
0, 0
0, 0
0, 0
0, 0
0, 0
0, 0
0, 0
0, 0
0, 0
0, 0
0, 0
0, 0
0, 0
0, 0
0, 0
0, 0
0, 0
0, 0
0, 0
0, 0
0, 0
0, 0
0, 0
0, 0
0, 0
0, 0
0, 0
0, 0
0, 0
0, 0
0, 0
0, 0
0, 0
0, 0
0, 0
0, 0
0, 0
0, 0
0, 0
0, 0
0, 0
0, 0
0, 0
0, 0
0, 0
0, 0
0, 0
0, 0
0, 0
0, 0
0, 0
0, 0
0, 0
0, 0
0, 0
0, 0
0, 0
0, 0
0, 0
0, 0
0, 0
0, 0
0, 0
0, 0
#ENDOFDATA     end of spectrum data

File: ps__0852shot_2322.msa
#FORMAT      : EMSA/MAS spectral data file
#VERSION     : TC202v2.0 PIXL
#TITLE       : N/A
#DATE        :       Date in the format DD-MMM-YYYY, for example 07-JUL-2010
#TIME        :             The time of day at which the spectrum was recorded, in 24-hour format
#OWNER       : PIXL Flight Model       (PIXL will use this to indicate which instrument took the data.)
#NPOINTS     : 4096     Number of data points in the spectrum (This can be zero for configuration only files)
#NCOLUMNS    : 2     Number of data columns in the spectrum (This can be zero for configuration only files)
#XUNITS      : eV
#YUNITS      : COUNTS
#DATATYPE    : YY
#XPERCHAN    : 7.862, 7.881   eV per channel (separate by commas if more than one detector)
#OFFSET      : 18.5, -22.4         eV of first channel  (separate by commas if more than one detector
#SIGNALTYPE  : XRF
#YP_TEMP     : 2.139
#LIVETIME    : 8.58195, 8.5687   seconds (separate by commas if more than one detector)
#REALTIME    : 10, 10.0   seconds (separate by commas if more than one detector)
#SPECTRUM    : start of spectrum data
0, 0
0, 0
0, 0
0, 0
0, 0
0, 0
0, 0
0, 0
0, 0
0, 1
1, 4
43, 44
60, 56
5, 3
3, 3
88, 111
422, 480
107, 114
8, 5
0, 1
4, 0
2, 1
5, 1
10, 8
44, 28
51, 38
18, 23
14, 23
4, 6
1, 2
2, 10
2, 0
6, 5
43, 43
56, 58
29, 7
39, 8
17, 9
6, 10
4, 3
10, 5
18, 15
10, 24
13, 14
10, 8
11, 8
8, 8
9, 9
15, 22
66, 62
55, 48
15, 17
9, 14
38, 63
63, 77
20, 32
25, 45
440, 581
2037, 2459
1535, 1409
186, 143
20, 18
20, 31
108, 162
313, 355
217, 208
25, 16
10, 7
10, 15
10, 12
13, 5
21, 3
21, 5
8, 2
10, 10
5, 11
5, 2
3, 4
4, 5
3, 4
3, 1
9, 3
8, 2
9, 2
3, 5
7, 1
9, 1
8, 2
1, 2
6, 4
1, 4
3, 2
3, 6
4, 5
5, 3
2, 5
2, 5
1, 3
3, 1
3, 5
1, 2
3, 2
2, 0
1, 1
3, 5
2, 4
0, 2
0, 1
3, 2
1, 1
2, 3
0, 3
2, 4
0, 2
2, 3
2, 5
4, 6
3, 4
5, 1
0, 0
2, 2
6, 5
2, 2
0, 3
1, 0
1, 2
2, 1
3, 1
1, 0
1, 0
0, 2
3, 1
0, 0
0, 2
0, 0
0, 2
0, 0
1, 0
0, 0
2, 2
1, 0
0, 1
0, 3
1, 0
1, 0
0, 1
0, 1
1, 0
2, 2
0, 0
0, 0
1, 1
0, 0
1, 0
0, 1
0, 0
0, 0
1, 0
1, 0
0, 0
0, 0
1, 0
0, 0
0, 0
0, 0
0, 0
1, 0
0, 0
0, 2
0, 0
1, 0
0, 0
0, 0
0, 0
0, 0
0, 0
0, 0
1, 0
0, 1
0, 0
0, 0
0, 0
0, 0
0, 0
0, 0
0, 0
0, 0
0, 0
0, 0
0, 0
0, 0
0, 1
0, 0
0, 0
0, 0
0, 0
0, 0
0, 0
0, 0
0, 0
0, 0
0, 0
1, 0
0, 0
0, 0
0, 0
0, 0
0, 0
0, 0
0, 0
0, 0
0, 0
0, 0
0, 0
0, 0
0, 0
0, 0
0, 0
0, 0
0, 0
0, 0
0, 0
0, 0
0, 0
0, 0
0, 0
0, 0
0, 0
0, 0
0, 0
0, 0
0, 0
0, 0
0, 0
0, 0
0, 0
0, 0
0, 0
0, 0
0, 0
0, 0
0, 0
0, 0
0, 0
0, 0
0, 0
0, 0
0, 0
0, 0
0, 0
0, 0
0, 0
0, 0
0, 0
0, 0
0, 0
0, 0
0, 0
0, 0
0, 0
0, 0
0, 0
0, 0
0, 0
0, 0
0, 0
0, 0
0, 0
0, 0
0, 0
0, 0
0, 0
0, 0
0, 0
0, 0
0, 0
0, 0
0, 0
0, 0
0, 0
0, 0
0, 0
0, 0
0, 0
0, 0
0, 0
0, 0
0, 0
0, 0
0, 0
0, 0
0, 0
0, 0
0, 0
#ENDOFDATA     end of spectrum data

File: ps__0852shot_2323.msa
#FORMAT      : EMSA/MAS spectral data file
#VERSION     : TC202v2.0 PIXL
#TITLE       : N/A
#DATE        :       Date in the format DD-MMM-YYYY, for example 07-JUL-2010
#TIME        :             The time of day at which the spectrum was recorded, in 24-hour format
#OWNER       : PIXL Flight Model       (PIXL will use this to indicate which instrument took the data.)
#NPOINTS     : 4096     Number of data points in the spectrum (This can be zero for configuration only files)
#NCOLUMNS    : 2     Number of data columns in the spectrum (This can be zero for configuration only files)
#XUNITS      : eV
#YUNITS      : COUNTS
#DATATYPE    : YY
#XPERCHAN    : 7.862, 7.881   eV per channel (separate by commas if more than one detector)
#OFFSET      : 18.5, -22.4         eV of first channel  (separate by commas if more than one detector
#SIGNALTYPE  : XRF
#YP_TEMP     : 2.492
#LIVETIME    : 8.56151, 8.55457   seconds (separate by commas if more than one detector)
#REALTIME    : 10, 10.0   seconds (separate by commas if more than one detector)
#SPECTRUM    : start of spectrum data
0, 0
0, 0
0, 0
0, 0
0, 0
0, 0
0, 0
0, 0
0, 0
0, 3
0, 4
50, 37
65, 60
2, 2
0, 5
82, 119
464, 419
121, 98
8, 4
2, 1
1, 2
3, 3
3, 4
10, 12
36, 30
64, 30
41, 21
16, 12
4, 6
4, 4
0, 3
2, 3
6, 8
73, 73
110, 106
29, 16
9, 16
13, 21
6, 4
6, 7
7, 2
8, 19
10, 16
10, 9
5, 11
11, 4
11, 10
9, 8
29, 11
33, 26
48, 13
28, 18
8, 32
32, 67
71, 70
25, 41
30, 50
462, 520
2129, 1983
1563, 1198
202, 141
27, 22
24, 31
109, 114
301, 311
232, 179
36, 22
5, 7
15, 7
9, 8
10, 7
8, 7
11, 2
15, 4
16, 7
4, 6
11, 7
2, 3
4, 5
6, 7
2, 4
4, 4
6, 2
2, 3
3, 5
2, 4
2, 1
5, 7
8, 1
4, 11
5, 11
1, 9
1, 4
5, 5
1, 1
2, 1
0, 3
2, 3
5, 3
1, 6
4, 3
3, 2
5, 2
4, 1
3, 1
1, 3
3, 4
1, 3
2, 4
3, 1
5, 3
1, 2
6, 1
3, 1
4, 3
3, 0
2, 4
6, 0
2, 1
0, 1
2, 3
2, 1
1, 3
3, 3
2, 2
4, 2
2, 0
0, 1
1, 0
0, 1
1, 0
0, 0
1, 0
0, 2
2, 0
1, 0
0, 0
0, 1
1, 2
0, 1
0, 0
1, 1
0, 0
1, 0
0, 0
1, 0
0, 0
1, 0
0, 4
1, 0
0, 1
1, 0
0, 0
0, 0
0, 1
0, 0
2, 0
1, 0
1, 1
0, 1
0, 0
0, 0
0, 0
0, 0
0, 0
0, 0
0, 0
0, 1
1, 0
0, 2
1, 0
0, 0
0, 0
0, 0
0, 1
0, 0
1, 0
0, 0
0, 0
0, 1
0, 0
0, 0
0, 0
0, 0
1, 0
0, 0
0, 0
0, 0
0, 0
0, 0
0, 0
0, 0
0, 0
0, 0
0, 0
0, 0
0, 0
0, 0
0, 0
0, 0
0, 0
0, 0
0, 0
0, 0
0, 0
0, 0
0, 0
0, 0
0, 0
0, 0
0, 0
0, 0
0, 0
0, 0
0, 0
0, 0
0, 0
0, 0
0, 0
0, 0
0, 0
0, 0
0, 0
0, 0
0, 0
0, 0
0, 0
0, 0
0, 0
0, 0
0, 0
0, 0
0, 0
0, 0
0, 0
0, 0
0, 0
0, 0
0, 0
0, 0
0, 0
0, 0
0, 0
0, 0
0, 0
0, 0
0, 0
0, 0
0, 0
0, 0
0, 0
0, 0
0, 0
0, 0
0, 0
0, 0
0, 0
0, 0
0, 0
0, 0
0, 0
0, 0
0, 0
0, 0
0, 0
0, 0
0, 0
0, 0
0, 0
0, 0
0, 0
0, 0
0, 0
0, 0
0, 0
0, 0
0, 0
0, 0
0, 0
0, 0
0, 0
0, 0
0, 0
0, 0
0, 0
0, 0
0, 0
0, 0
0, 0
0, 0
0, 0
0, 0
0, 0
0, 0
#ENDOFDATA     end of spectrum data

File: ps__0852shot_2324.msa
#FORMAT      : EMSA/MAS spectral data file
#VERSION     : TC202v2.0 PIXL
#TITLE       : N/A
#DATE        :       Date in the format DD-MMM-YYYY, for example 07-JUL-2010
#TIME        :             The time of day at which the spectrum was recorded, in 24-hour format
#OWNER       : PIXL Flight Model       (PIXL will use this to indicate which instrument took the data.)
#NPOINTS     : 4096     Number of data points in the spectrum (This can be zero for configuration only files)
#NCOLUMNS    : 2     Number of data columns in the spectrum (This can be zero for configuration only files)
#XUNITS      : eV
#YUNITS      : COUNTS
#DATATYPE    : YY
#XPERCHAN    : 7.862, 7.881   eV per channel (separate by commas if more than one detector)
#OFFSET      : 18.5, -22.4         eV of first channel  (separate by commas if more than one detector
#SIGNALTYPE  : XRF
#YP_TEMP     : 2.524
#LIVETIME    : 8.55703, 8.53199   seconds (separate by commas if more than one detector)
#REALTIME    : 10, 10.0   seconds (separate by commas if more than one detector)
#SPECTRUM    : start of spectrum data
0, 0
0, 0
0, 0
0, 0
0, 0
0, 0
0, 0
0, 0
0, 2
0, 2
1, 1
47, 50
61, 57
6, 3
4, 3
93, 93
413, 419
108, 85
7, 6
1, 2
1, 3
4, 3
1, 0
4, 3
33, 37
54, 23
25, 24
17, 18
5, 4
2, 3
2, 3
2, 4
5, 8
37, 36
49, 51
11, 10
16, 6
10, 4
4, 2
3, 10
3, 7
26, 19
21, 20
14, 14
8, 4
8, 9
6, 7
10, 6
35, 31
121, 111
105, 84
32, 26
9, 17
40, 64
93, 96
39, 74
29, 49
474, 543
1991, 2246
1391, 1300
181, 131
22, 24
18, 35
111, 112
309, 342
213, 211
28, 23
11, 7
11, 8
5, 6
3, 5
5, 4
3, 2
8, 5
17, 8
9, 5
3, 3
6, 4
3, 3
9, 6
4, 4
4, 4
1, 11
3, 6
2, 6
2, 4
3, 11
7, 8
5, 4
7, 11
4, 3
5, 4
4, 3
7, 5
1, 3
3, 5
3, 3
0, 2
2, 3
4, 2
6, 4
4, 4
4, 1
4, 2
3, 1
5, 2
5, 4
4, 0
3, 1
4, 2
1, 0
1, 1
2, 2
0, 2
0, 0
2, 4
2, 5
3, 3
0, 2
0, 2
0, 2
2, 3
2, 1
2, 4
1, 0
1, 1
0, 2
0, 2
0, 1
0, 0
2, 2
0, 2
0, 1
0, 0
1, 0
1, 0
0, 0
1, 1
2, 1
0, 2
0, 1
1, 0
0, 1
0, 1
0, 1
0, 0
0, 0
2, 0
0, 0
0, 0
0, 0
0, 1
0, 0
1, 0
0, 0
0, 0
0, 0
0, 1
0, 0
0, 0
0, 0
0, 0
2, 0
0, 1
0, 0
0, 1
0, 0
0, 0
0, 0
0, 0
0, 0
0, 0
0, 1
1, 0
1, 0
0, 0
1, 0
0, 0
0, 0
0, 0
0, 0
0, 0
0, 0
2, 0
0, 0
0, 0
0, 0
0, 0
0, 0
0, 0
0, 0
0, 0
0, 0
0, 0
0, 0
1, 0
0, 0
0, 0
0, 1
0, 0
0, 1
0, 0
0, 0
0, 0
0, 0
0, 0
0, 0
0, 0
0, 0
0, 0
0, 0
0, 0
0, 1
0, 0
0, 0
0, 0
0, 0
0, 0
0, 1
0, 0
0, 0
0, 0
0, 0
1, 0
0, 0
0, 0
0, 0
0, 0
0, 0
0, 0
0, 0
0, 0
0, 0
0, 0
0, 0
0, 0
0, 0
0, 0
0, 0
0, 0
0, 0
0, 0
0, 0
0, 0
0, 0
0, 0
0, 0
0, 0
0, 0
0, 0
0, 0
0, 0
0, 0
0, 0
0, 0
0, 0
0, 0
0, 0
0, 0
0, 0
0, 0
0, 0
0, 0
0, 0
0, 0
0, 0
0, 0
0, 0
0, 0
0, 0
0, 0
0, 0
0, 0
0, 0
0, 0
0, 0
0, 0
0, 0
0, 0
0, 0
0, 0
0, 0
0, 0
0, 0
0, 0
0, 0
0, 0
0, 0
0, 0
0, 0
0, 0
0, 0
0, 0
0, 0
#ENDOFDATA     end of spectrum data

File: ps__0852shot_2325.msa
#FORMAT      : EMSA/MAS spectral data file
#VERSION     : TC202v2.0 PIXL
#TITLE       : N/A
#DATE        :       Date in the format DD-MMM-YYYY, for example 07-JUL-2010
#TIME        :             The time of day at which the spectrum was recorded, in 24-hour format
#OWNER       : PIXL Flight Model       (PIXL will use this to indicate which instrument took the data.)
#NPOINTS     : 4096     Number of data points in the spectrum (This can be zero for configuration only files)
#NCOLUMNS    : 2     Number of data columns in the spectrum (This can be zero for configuration only files)
#XUNITS      : eV
#YUNITS      : COUNTS
#DATATYPE    : YY
#XPERCHAN    : 7.862, 7.881   eV per channel (separate by commas if more than one detector)
#OFFSET      : 18.5, -22.4         eV of first channel  (separate by commas if more than one detector
#SIGNALTYPE  : XRF
#YP_TEMP     : 2.267
#LIVETIME    : 8.57302, 8.54519   seconds (separate by commas if more than one detector)
#REALTIME    : 10, 10.0   seconds (separate by commas if more than one detector)
#SPECTRUM    : start of spectrum data
0, 0
0, 0
0, 0
0, 0
0, 0
0, 0
0, 0
0, 0
3, 0
0, 0
3, 2
45, 48
61, 53
5, 3
4, 3
112, 100
439, 375
109, 60
2, 6
1, 0
2, 0
2, 0
0, 1
12, 4
29, 27
39, 36
20, 16
9, 12
5, 2
3, 3
5, 1
4, 5
6, 1
23, 12
22, 17
6, 4
4, 3
3, 1
1, 4
9, 4
6, 3
15, 14
16, 16
10, 12
4, 11
6, 6
7, 5
9, 6
18, 15
91, 63
66, 51
27, 18
14, 17
67, 48
68, 57
29, 31
43, 35
456, 569
2177, 2139
1702, 1215
202, 116
18, 18
17, 20
118, 101
343, 330
251, 178
51, 30
12, 5
15, 11
14, 9
8, 2
2, 6
4, 7
7, 3
2, 4
4, 4
4, 5
5, 1
11, 5
5, 5
4, 3
2, 2
3, 6
4, 17
4, 15
4, 7
2, 4
1, 4
2, 5
2, 11
2, 1
2, 2
1, 5
4, 0
4, 4
1, 2
3, 2
1, 0
4, 4
2, 3
4, 1
6, 1
1, 5
2, 3
3, 4
3, 1
2, 5
3, 4
2, 3
4, 2
3, 2
3, 0
6, 0
8, 3
3, 0
2, 2
4, 2
4, 2
2, 1
5, 3
2, 1
1, 1
0, 4
0, 1
0, 2
1, 2
0, 3
2, 0
2, 0
0, 1
0, 0
4, 1
2, 2
1, 1
1, 1
1, 1
1, 0
2, 0
0, 2
0, 0
0, 0
0, 0
0, 2
0, 1
0, 0
0, 2
1, 0
1, 0
2, 0
0, 1
1, 0
0, 0
2, 0
0, 0
0, 0
1, 0
0, 0
0, 1
0, 0
0, 1
0, 0
0, 2
0, 0
1, 0
0, 0
0, 0
0, 1
0, 0
0, 0
0, 0
0, 0
0, 0
0, 0
0, 1
0, 0
0, 0
0, 0
0, 0
0, 0
0, 0
0, 0
0, 0
0, 0
0, 0
0, 0
0, 0
0, 0
0, 0
0, 0
0, 0
1, 0
0, 1
0, 0
0, 0
0, 0
0, 0
0, 0
0, 1
1, 0
0, 0
0, 0
0, 0
0, 0
0, 0
0, 0
0, 0
0, 0
0, 0
0, 1
0, 0
0, 0
0, 1
0, 0
0, 0
0, 0
0, 0
0, 0
0, 0
0, 0
0, 0
0, 0
0, 0
0, 0
0, 0
0, 0
0, 0
0, 0
0, 0
0, 0
0, 0
0, 0
0, 0
0, 0
0, 0
0, 0
0, 0
0, 0
0, 0
0, 0
0, 0
0, 0
0, 0
0, 0
0, 0
0, 0
0, 0
0, 0
0, 0
0, 0
0, 0
0, 0
0, 0
0, 0
0, 0
0, 0
0, 0
0, 0
0, 0
0, 0
0, 0
0, 0
0, 0
0, 0
0, 0
0, 0
0, 0
0, 0
0, 0
0, 0
0, 0
0, 0
0, 0
0, 0
0, 0
0, 0
0, 0
0, 0
0, 0
0, 0
0, 0
0, 0
0, 0
0, 0
0, 0
0, 0
0, 0
0, 0
0, 0
0, 0
0, 0
0, 0
0, 0
0, 0
0, 0
#ENDOFDATA     end of spectrum data

File: ps__0852shot_2327.msa
#FORMAT      : EMSA/MAS spectral data file
#VERSION     : TC202v2.0 PIXL
#TITLE       : N/A
#DATE        :       Date in the format DD-MMM-YYYY, for example 07-JUL-2010
#TIME        :             The time of day at which the spectrum was recorded, in 24-hour format
#OWNER       : PIXL Flight Model       (PIXL will use this to indicate which instrument took the data.)
#NPOINTS     : 4096     Number of data points in the spectrum (This can be zero for configuration only files)
#NCOLUMNS    : 2     Number of data columns in the spectrum (This can be zero for configuration only files)
#XUNITS      : eV
#YUNITS      : COUNTS
#DATATYPE    : YY
#XPERCHAN    : 7.862, 7.881   eV per channel (separate by commas if more than one detector)
#OFFSET      : 18.5, -22.4         eV of first channel  (separate by commas if more than one detector
#SIGNALTYPE  : XRF
#YP_TEMP     : 2.332
#LIVETIME    : 8.57899, 8.5589   seconds (separate by commas if more than one detector)
#REALTIME    : 10, 10.0   seconds (separate by commas if more than one detector)
#SPECTRUM    : start of spectrum data
0, 0
0, 0
0, 0
0, 0
0, 0
0, 0
0, 0
0, 1
0, 1
1, 1
2, 1
48, 37
67, 55
9, 4
5, 4
104, 95
470, 449
118, 98
7, 5
2, 2
1, 1
6, 1
1, 3
6, 6
35, 14
29, 31
22, 19
9, 8
6, 5
4, 2
4, 1
0, 3
9, 3
24, 19
24, 10
7, 4
5, 5
4, 10
3, 7
4, 6
2, 4
12, 7
13, 16
11, 12
5, 11
5, 7
7, 13
7, 15
2, 11
20, 5
28, 20
24, 22
11, 29
52, 54
68, 52
27, 16
29, 37
474, 618
2173, 2256
1590, 1350
169, 150
15, 19
23, 18
101, 116
383, 329
226, 160
43, 12
10, 7
16, 13
7, 8
3, 2
2, 5
2, 4
3, 11
7, 6
7, 9
4, 3
2, 3
6, 1
4, 7
7, 3
8, 2
1, 5
6, 17
4, 18
0, 5
5, 5
3, 4
4, 6
6, 4
1, 4
0, 1
0, 3
1, 5
1, 0
5, 2
4, 2
2, 2
2, 2
5, 0
6, 2
2, 4
3, 4
2, 2
2, 2
0, 2
0, 2
3, 3
2, 2
0, 1
4, 3
2, 1
1, 4
4, 2
3, 1
3, 4
7, 7
7, 7
4, 1
0, 1
1, 0
1, 1
2, 4
2, 2
2, 1
0, 1
1, 3
0, 1
2, 0
5, 1
1, 3
1, 1
0, 0
1, 1
1, 1
0, 0
0, 0
1, 1
0, 2
0, 0
0, 0
0, 1
0, 0
1, 0
0, 0
2, 0
0, 0
1, 0
0, 0
1, 1
0, 0
1, 0
0, 0
0, 0
0, 0
1, 0
0, 0
0, 0
1, 0
0, 0
1, 2
0, 0
0, 0
1, 0
0, 0
0, 0
1, 0
0, 0
0, 0
1, 0
1, 1
0, 0
0, 1
0, 0
0, 0
1, 0
0, 0
1, 0
0, 0
1, 0
0, 1
0, 0
0, 0
1, 1
0, 0
0, 0
0, 0
0, 0
0, 0
0, 0
0, 0
0, 0
0, 1
0, 0
0, 0
1, 0
0, 0
0, 0
0, 0
0, 0
0, 0
0, 0
0, 0
0, 0
0, 0
0, 0
0, 0
0, 0
0, 0
0, 0
0, 0
0, 0
0, 0
0, 0
0, 0
0, 0
0, 0
0, 0
0, 0
0, 0
0, 0
0, 0
0, 0
0, 0
0, 0
0, 0
0, 0
0, 0
0, 0
0, 0
0, 0
0, 0
0, 0
0, 0
0, 0
0, 0
0, 0
0, 0
0, 0
0, 0
0, 0
0, 0
0, 0
0, 0
0, 0
0, 0
0, 0
0, 0
0, 0
0, 0
0, 0
0, 0
0, 0
0, 0
0, 0
0, 0
0, 0
0, 0
0, 0
0, 0
0, 0
0, 0
0, 0
0, 0
0, 0
0, 0
0, 0
0, 0
0, 0
0, 0
0, 0
0, 0
0, 0
0, 0
0, 0
0, 0
0, 0
0, 0
0, 0
0, 0
0, 0
0, 0
0, 0
0, 0
0, 0
0, 0
0, 0
0, 0
0, 0
0, 0
0, 0
0, 0
0, 0
0, 0
#ENDOFDATA     end of spectrum data