Folder: data-repository/host_upload/06-09-2024/ps_0852/dump3 (part 43)

File: ps__0852shot_2383.msa
#FORMAT      : EMSA/MAS spectral data file
#VERSION     : TC202v2.0 PIXL
#TITLE       : N/A
#DATE        :       Date in the format DD-MMM-YYYY, for example 07-JUL-2010
#TIME        :             The time of day at which the spectrum was recorded, in 24-hour format
#OWNER       : PIXL Flight Model       (PIXL will use this to indicate which instrument took the data.)
#NPOINTS     : 4096     Number of data points in the spectrum (This can be zero for configuration only files)
#NCOLUMNS    : 2     Number of data columns in the spectrum (This can be zero for configuration only files)
#XUNITS      : eV
#YUNITS      : COUNTS
#DATATYPE    : YY
#XPERCHAN    : 7.862, 7.881   eV per channel (separate by commas if more than one detector)
#OFFSET      : 18.5, -22.4         eV of first channel  (separate by commas if more than one detector
#SIGNALTYPE  : XRF
#YP_TEMP     : 2.332
#LIVETIME    : 8.55261, 8.58354   seconds (separate by commas if more than one detector)
#REALTIME    : 10, 10.0   seconds (separate by commas if more than one detector)
#SPECTRUM    : start of spectrum data
0, 0
0, 0
0, 0
0, 0
0, 0
0, 0
0, 0
0, 0
0, 1
1, 1
3, 3
42, 49
58, 57
5, 9
4, 6
98, 115
443, 426
110, 79
11, 7
6, 3
3, 0
4, 9
6, 15
11, 18
47, 34
57, 31
25, 26
18, 28
4, 6
0, 4
0, 1
2, 1
6, 3
18, 27
27, 20
14, 4
8, 3
4, 1
4, 6
5, 5
4, 9
11, 11
12, 19
14, 31
6, 5
5, 15
7, 13
9, 5
4, 8
13, 18
23, 15
14, 7
14, 18
39, 55
75, 48
38, 18
42, 39
506, 559
2330, 2409
1731, 1388
216, 137
22, 18
33, 25
110, 140
341, 371
249, 203
39, 31
13, 7
16, 11
12, 11
1, 8
4, 4
4, 5
8, 11
8, 11
8, 5
9, 8
2, 4
3, 5
4, 5
1, 3
5, 6
11, 4
6, 8
7, 4
4, 5
4, 5
10, 5
9, 4
3, 5
6, 1
5, 4
5, 5
2, 1
1, 3
4, 4
5, 1
1, 4
7, 2
3, 1
7, 1
0, 2
3, 1
2, 0
0, 1
4, 3
0, 6
4, 2
3, 1
2, 3
2, 1
1, 6
1, 3
1, 3
3, 1
3, 2
2, 4
5, 6
4, 2
2, 3
0, 0
3, 3
2, 4
5, 2
2, 1
2, 2
1, 2
3, 2
1, 0
1, 2
1, 0
1, 0
3, 0
0, 2
3, 1
4, 1
1, 2
0, 0
1, 0
0, 0
0, 5
0, 1
1, 0
2, 0
0, 1
2, 1
1, 0
0, 1
0, 1
0, 0
0, 1
0, 1
0, 0
0, 1
0, 0
0, 0
2, 0
0, 0
0, 0
1, 0
0, 0
0, 0
0, 0
1, 0
2, 0
0, 0
0, 0
0, 1
0, 0
1, 0
1, 0
0, 0
0, 0
1, 0
0, 0
0, 0
0, 0
0, 0
0, 0
0, 0
0, 0
0, 0
0, 0
0, 0
0, 1
0, 0
0, 0
0, 0
0, 0
0, 0
0, 0
0, 0
0, 0
0, 0
0, 0
0, 0
0, 0
0, 0
0, 0
0, 0
0, 0
0, 0
0, 0
0, 0
0, 0
0, 0
0, 0
0, 0
0, 0
0, 0
0, 0
0, 0
0, 0
0, 0
0, 0
0, 0
0, 0
0, 0
0, 0
0, 0
0, 0
0, 0
0, 0
0, 0
0, 0
0, 0
0, 0
0, 0
0, 0
0, 0
0, 0
0, 0
0, 0
0, 0
0, 0
0, 0
0, 0
0, 0
0, 0
0, 0
0, 0
0, 0
0, 0
0, 0
0, 0
0, 0
0, 0
0, 0
0, 0
0, 0
0, 0
0, 0
0, 0
0, 0
0, 0
0, 0
0, 0
0, 0
0, 0
0, 0
0, 0
0, 0
0, 0
0, 0
0, 0
0, 0
0, 0
0, 0
0, 0
0, 0
0, 0
0, 0
0, 0
0, 0
0, 0
0, 0
0, 0
0, 0
0, 0
0, 0
0, 0
0, 0
0, 0
0, 0
0, 0
0, 0
0, 0
0, 0
0, 0
0, 0
0, 0
0, 0
0, 0
0, 0
#ENDOFDATA     end of spectrum data

File: ps__0852shot_2384.msa
#FORMAT      : EMSA/MAS spectral data file
#VERSION     : TC202v2.0 PIXL
#TITLE       : N/A
#DATE        :       Date in the format DD-MMM-YYYY, for example 07-JUL-2010
#TIME        :             The time of day at which the spectrum was recorded, in 24-hour format
#OWNER       : PIXL Flight Model       (PIXL will use this to indicate which instrument took the data.)
#NPOINTS     : 4096     Number of data points in the spectrum (This can be zero for configuration only files)
#NCOLUMNS    : 2     Number of data columns in the spectrum (This can be zero for configuration only files)
#XUNITS      : eV
#YUNITS      : COUNTS
#DATATYPE    : YY
#XPERCHAN    : 7.862, 7.881   eV per channel (separate by commas if more than one detector)
#OFFSET      : 18.5, -22.4         eV of first channel  (separate by commas if more than one detector
#SIGNALTYPE  : XRF
#YP_TEMP     : 2.332
#LIVETIME    : 8.5519, 8.56453   seconds (separate by commas if more than one detector)
#REALTIME    : 10, 10.0   seconds (separate by commas if more than one detector)
#SPECTRUM    : start of spectrum data
0, 0
0, 0
0, 0
0, 0
0, 0
0, 0
0, 0
0, 1
0, 0
0, 0
3, 4
40, 56
55, 61
7, 11
6, 7
72, 114
429, 436
100, 118
8, 3
1, 5
3, 4
4, 3
2, 13
13, 33
46, 55
50, 40
26, 20
10, 13
2, 1
4, 2
0, 2
3, 5
1, 5
16, 15
18, 23
6, 5
6, 7
2, 10
5, 7
4, 7
2, 3
6, 10
7, 14
9, 17
9, 9
9, 11
7, 13
7, 11
4, 14
17, 13
23, 11
23, 12
10, 11
39, 48
50, 54
24, 26
29, 61
436, 680
2042, 2515
1513, 1523
182, 135
15, 17
31, 24
104, 148
332, 369
190, 221
35, 30
7, 10
21, 15
12, 15
5, 6
4, 5
6, 5
5, 8
3, 0
6, 6
8, 2
5, 5
6, 4
2, 3
9, 7
7, 12
24, 13
18, 5
10, 4
2, 6
1, 5
5, 6
11, 2
9, 2
0, 4
1, 2
1, 4
2, 5
5, 5
1, 4
1, 5
1, 4
4, 2
6, 6
3, 2
8, 2
3, 0
0, 4
3, 7
3, 2
1, 9
0, 2
5, 5
1, 3
1, 2
3, 4
0, 1
1, 2
3, 4
2, 5
2, 5
5, 5
5, 1
2, 4
1, 0
1, 1
2, 3
4, 3
1, 1
4, 1
0, 0
0, 2
3, 2
0, 1
0, 1
2, 1
0, 0
0, 0
0, 0
0, 2
0, 0
0, 4
0, 1
1, 0
0, 1
1, 0
2, 0
1, 1
0, 0
0, 1
1, 1
0, 1
0, 0
0, 0
0, 2
1, 2
0, 0
1, 1
0, 0
0, 1
0, 0
0, 0
0, 1
0, 1
0, 2
0, 0
0, 1
0, 0
0, 0
1, 1
0, 0
2, 0
0, 0
1, 0
0, 0
0, 0
0, 1
1, 0
0, 0
1, 0
0, 0
0, 0
0, 0
0, 0
0, 0
0, 0
1, 0
0, 0
0, 0
0, 0
0, 0
0, 1
0, 0
1, 0
0, 0
0, 0
0, 0
0, 0
0, 0
0, 0
0, 0
0, 0
0, 0
0, 0
0, 0
0, 0
0, 0
0, 0
0, 0
0, 0
0, 0
0, 0
0, 0
0, 0
0, 0
0, 0
0, 0
0, 0
0, 0
0, 0
0, 0
0, 0
0, 0
0, 0
0, 0
0, 0
0, 0
0, 0
0, 0
0, 0
0, 0
0, 0
0, 0
0, 0
0, 0
0, 0
0, 0
0, 0
0, 0
0, 0
0, 0
0, 0
0, 0
0, 0
0, 0
0, 0
0, 0
0, 0
0, 0
0, 0
0, 0
0, 0
0, 0
0, 0
0, 0
0, 0
0, 0
0, 0
0, 0
0, 0
0, 0
0, 0
0, 0
0, 0
0, 0
0, 0
0, 0
0, 0
0, 0
0, 0
0, 0
0, 0
0, 0
0, 0
0, 0
0, 0
0, 0
0, 0
0, 0
0, 0
0, 0
0, 0
0, 0
0, 0
0, 0
0, 0
0, 0
0, 0
0, 0
0, 0
0, 0
0, 0
0, 0
0, 0
0, 0
0, 0
0, 0
0, 0
#ENDOFDATA     end of spectrum data

File: ps__0852shot_2385.msa
#FORMAT      : EMSA/MAS spectral data file
#VERSION     : TC202v2.0 PIXL
#TITLE       : N/A
#DATE        :       Date in the format DD-MMM-YYYY, for example 07-JUL-2010
#TIME        :             The time of day at which the spectrum was recorded, in 24-hour format
#OWNER       : PIXL Flight Model       (PIXL will use this to indicate which instrument took the data.)
#NPOINTS     : 4096     Number of data points in the spectrum (This can be zero for configuration only files)
#NCOLUMNS    : 2     Number of data columns in the spectrum (This can be zero for configuration only files)
#XUNITS      : eV
#YUNITS      : COUNTS
#DATATYPE    : YY
#XPERCHAN    : 7.862, 7.881   eV per channel (separate by commas if more than one detector)
#OFFSET      : 18.5, -22.4         eV of first channel  (separate by commas if more than one detector
#SIGNALTYPE  : XRF
#YP_TEMP     : 2.203
#LIVETIME    : 8.57941, 8.59273   seconds (separate by commas if more than one detector)
#REALTIME    : 10, 10.0   seconds (separate by commas if more than one detector)
#SPECTRUM    : start of spectrum data
0, 0
0, 0
0, 0
0, 0
0, 0
0, 0
0, 0
0, 0
1, 0
0, 0
0, 0
34, 48
49, 60
9, 6
6, 7
119, 100
429, 460
115, 110
16, 11
8, 9
7, 2
12, 3
4, 3
15, 19
50, 58
54, 54
27, 26
15, 15
10, 4
4, 5
7, 16
12, 5
2, 4
21, 20
27, 36
8, 6
6, 7
8, 4
5, 4
3, 4
9, 12
19, 13
39, 22
19, 7
11, 6
8, 11
6, 5
6, 3
9, 10
23, 12
55, 11
40, 8
7, 17
38, 48
66, 71
22, 23
28, 94
490, 735
2150, 2307
1651, 1401
222, 137
16, 21
17, 14
113, 137
324, 346
225, 207
42, 18
7, 3
19, 9
17, 6
11, 4
3, 3
6, 2
7, 7
7, 7
8, 6
2, 2
8, 2
4, 2
4, 3
1, 1
17, 21
31, 25
13, 10
4, 5
1, 1
4, 6
4, 4
4, 1
3, 4
5, 3
2, 1
2, 1
2, 2
2, 5
1, 2
3, 4
2, 4
4, 5
2, 3
10, 2
6, 2
6, 2
0, 3
2, 7
0, 4
3, 4
3, 2
6, 1
1, 0
0, 1
0, 2
1, 3
3, 8
1, 2
2, 3
5, 5
3, 2
1, 2
2, 3
1, 3
0, 2
3, 4
3, 1
4, 1
0, 2
0, 1
0, 1
0, 1
0, 2
1, 1
0, 0
0, 1
1, 0
0, 2
0, 3
0, 1
0, 1
0, 0
0, 0
0, 1
0, 0
0, 0
0, 0
0, 0
0, 0
1, 1
0, 0
1, 1
1, 0
0, 0
1, 0
0, 0
1, 1
0, 0
1, 1
1, 0
1, 1
0, 0
0, 0
0, 0
0, 0
0, 0
0, 0
0, 0
1, 0
0, 0
0, 0
0, 0
0, 0
1, 1
1, 0
0, 0
1, 0
0, 0
0, 0
0, 0
0, 0
0, 1
0, 0
0, 0
0, 0
0, 0
0, 0
0, 0
0, 0
0, 0
0, 0
1, 0
0, 0
1, 0
0, 0
0, 0
0, 0
0, 1
0, 0
0, 0
1, 0
0, 0
0, 0
0, 0
0, 0
1, 0
0, 0
0, 0
0, 0
0, 0
0, 0
0, 0
0, 0
0, 0
0, 0
0, 0
0, 0
0, 0
0, 0
0, 0
0, 0
0, 0
0, 0
0, 0
0, 0
0, 0
0, 0
0, 0
0, 0
0, 0
0, 0
0, 0
0, 0
0, 0
0, 0
0, 0
0, 0
0, 0
0, 0
0, 0
0, 0
0, 0
0, 0
0, 0
0, 0
0, 0
0, 0
0, 0
0, 0
0, 0
0, 0
0, 0
0, 0
0, 0
0, 0
0, 0
0, 0
0, 0
0, 0
0, 0
0, 0
0, 0
0, 0
0, 0
0, 0
0, 0
0, 0
0, 0
0, 0
0, 0
0, 0
0, 0
0, 0
0, 0
0, 0
0, 0
0, 0
0, 0
0, 0
0, 0
0, 0
0, 0
0, 0
0, 0
0, 0
0, 0
0, 0
0, 0
0, 0
0, 0
0, 0
0, 0
0, 0
0, 0
0, 0
0, 0
0, 0
#ENDOFDATA     end of spectrum data

File: ps__0852shot_2386.msa
#FORMAT      : EMSA/MAS spectral data file
#VERSION     : TC202v2.0 PIXL
#TITLE       : N/A
#DATE        :       Date in the format DD-MMM-YYYY, for example 07-JUL-2010
#TIME        :             The time of day at which the spectrum was recorded, in 24-hour format
#OWNER       : PIXL Flight Model       (PIXL will use this to indicate which instrument took the data.)
#NPOINTS     : 4096     Number of data points in the spectrum (This can be zero for configuration only files)
#NCOLUMNS    : 2     Number of data columns in the spectrum (This can be zero for configuration only files)
#XUNITS      : eV
#YUNITS      : COUNTS
#DATATYPE    : YY
#XPERCHAN    : 7.862, 7.881   eV per channel (separate by commas if more than one detector)
#OFFSET      : 18.5, -22.4         eV of first channel  (separate by commas if more than one detector
#SIGNALTYPE  : XRF
#YP_TEMP     : 2.011
#LIVETIME    : 8.56261, 8.55379   seconds (separate by commas if more than one detector)
#REALTIME    : 10, 10.0   seconds (separate by commas if more than one detector)
#SPECTRUM    : start of spectrum data
0, 0
0, 0
0, 0
0, 0
0, 0
0, 0
0, 0
0, 0
1, 1
2, 2
2, 3
48, 34
53, 57
12, 9
10, 16
98, 103
401, 408
118, 116
16, 14
16, 11
5, 2
16, 6
8, 6
17, 10
92, 76
56, 58
43, 29
33, 15
10, 2
4, 3
16, 25
8, 10
3, 6
30, 39
66, 37
6, 12
7, 15
11, 19
7, 3
33, 5
63, 4
41, 22
33, 15
17, 9
8, 8
7, 9
5, 6
8, 5
6, 12
16, 20
28, 12
16, 14
56, 17
106, 47
81, 58
25, 21
36, 37
482, 499
2082, 2080
1496, 1198
173, 138
18, 14
22, 28
95, 93
313, 314
228, 179
37, 17
17, 4
24, 16
16, 6
5, 3
5, 4
8, 3
7, 6
4, 6
9, 8
5, 7
9, 9
10, 7
8, 6
9, 13
4, 19
12, 9
3, 3
2, 3
3, 5
3, 3
5, 1
4, 3
3, 5
3, 2
10, 3
13, 8
7, 14
5, 7
3, 6
4, 7
3, 3
1, 4
4, 2
4, 3
3, 0
2, 3
6, 4
1, 2
1, 3
3, 1
5, 2
4, 3
4, 2
1, 3
4, 3
3, 2
1, 0
3, 2
2, 5
4, 4
4, 3
1, 2
3, 1
2, 1
2, 3
1, 2
0, 3
0, 2
1, 1
0, 2
2, 2
1, 0
2, 4
1, 2
0, 0
2, 2
0, 1
0, 1
0, 1
1, 1
0, 0
0, 3
2, 2
0, 0
0, 0
1, 1
0, 1
1, 2
1, 2
1, 0
0, 1
0, 0
0, 0
0, 0
0, 0
0, 0
0, 1
0, 1
0, 0
0, 0
0, 0
0, 0
0, 0
0, 0
0, 3
0, 0
0, 0
0, 0
0, 0
1, 0
0, 1
0, 0
0, 0
0, 1
0, 0
0, 0
0, 0
1, 1
1, 0
1, 0
0, 0
0, 0
0, 0
0, 0
0, 0
1, 0
0, 0
0, 1
0, 0
0, 1
0, 0
0, 0
0, 0
1, 0
0, 0
0, 0
0, 0
0, 0
0, 0
0, 0
0, 0
0, 0
0, 0
0, 0
0, 0
0, 0
0, 0
0, 0
0, 0
0, 0
0, 0
0, 0
0, 0
0, 0
0, 0
0, 0
0, 0
0, 0
0, 0
0, 0
0, 0
0, 0
0, 0
0, 0
0, 0
0, 0
0, 0
0, 0
0, 0
0, 0
0, 0
0, 0
0, 0
0, 0
0, 0
0, 0
0, 0
0, 0
0, 0
0, 0
0, 0
0, 0
0, 0
0, 0
0, 0
0, 0
0, 0
0, 0
0, 0
0, 0
0, 0
0, 0
0, 0
0, 0
0, 0
0, 0
0, 0
0, 0
0, 0
0, 0
0, 0
0, 0
0, 0
0, 0
0, 0
0, 0
0, 0
0, 0
0, 0
0, 0
0, 0
0, 0
0, 0
0, 0
0, 0
0, 0
0, 0
0, 0
0, 0
0, 0
0, 0
0, 0
0, 0
0, 0
0, 0
0, 0
0, 0
0, 0
0, 0
0, 0
0, 0
0, 0
0, 0
0, 0
0, 0
0, 0
0, 0
#ENDOFDATA     end of spectrum data

File: ps__0852shot_2387.msa
#FORMAT      : EMSA/MAS spectral data file
#VERSION     : TC202v2.0 PIXL
#TITLE       : N/A
#DATE        :       Date in the format DD-MMM-YYYY, for example 07-JUL-2010
#TIME        :             The time of day at which the spectrum was recorded, in 24-hour format
#OWNER       : PIXL Flight Model       (PIXL will use this to indicate which instrument took the data.)
#NPOINTS     : 4096     Number of data points in the spectrum (This can be zero for configuration only files)
#NCOLUMNS    : 2     Number of data columns in the spectrum (This can be zero for configuration only files)
#XUNITS      : eV
#YUNITS      : COUNTS
#DATATYPE    : YY
#XPERCHAN    : 7.862, 7.881   eV per channel (separate by commas if more than one detector)
#OFFSET      : 18.5, -22.4         eV of first channel  (separate by commas if more than one detector
#SIGNALTYPE  : XRF
#YP_TEMP     : 2.364
#LIVETIME    : 8.54624, 8.57013   seconds (separate by commas if more than one detector)
#REALTIME    : 10, 10.0   seconds (separate by commas if more than one detector)
#SPECTRUM    : start of spectrum data
0, 0
0, 0
0, 0
0, 0
0, 0
0, 0
0, 0
0, 0
1, 0
0, 0
4, 4
43, 40
69, 69
3, 5
5, 3
101, 92
440, 435
109, 98
9, 3
1, 2
1, 1
3, 3
2, 6
1, 4
11, 22
18, 19
27, 18
29, 8
10, 1
4, 1
3, 3
2, 4
6, 1
7, 18
19, 10
7, 7
5, 6
6, 10
6, 2
68, 5
97, 6
34, 4
11, 14
8, 11
3, 6
1, 8
3, 12
3, 10
10, 2
10, 16
8, 27
36, 19
78, 11
150, 43
101, 53
38, 23
36, 25
474, 560
2233, 2344
1561, 1437
190, 136
18, 17
19, 25
93, 127
333, 339
235, 210
34, 29
11, 12
16, 10
7, 8
6, 3
1, 4
2, 2
3, 4
5, 3
5, 5
5, 4
5, 10
10, 14
24, 4
14, 10
2, 25
2, 10
4, 4
6, 3
4, 2
3, 5
2, 2
2, 2
1, 2
8, 4
4, 7
13, 10
7, 26
5, 17
1, 5
1, 6
2, 6
4, 5
2, 1
4, 2
1, 2
3, 3
2, 0
2, 2
4, 1
2, 1
1, 3
2, 1
2, 0
3, 2
6, 2
1, 4
0, 3
2, 2
4, 3
2, 5
8, 4
5, 2
1, 1
0, 1
0, 2
5, 3
2, 4
2, 0
1, 2
3, 3
0, 2
1, 0
0, 1
2, 0
0, 2
2, 0
1, 0
1, 1
0, 0
1, 1
1, 2
2, 0
0, 0
1, 1
3, 0
0, 0
0, 2
2, 1
0, 0
1, 1
0, 1
1, 0
0, 2
1, 0
1, 0
0, 0
2, 0
0, 0
1, 1
0, 0
0, 0
2, 0
0, 1
0, 1
0, 0
0, 0
0, 0
0, 0
0, 0
0, 0
0, 0
0, 1
0, 0
0, 0
1, 1
1, 0
0, 0
1, 0
0, 0
0, 0
0, 1
1, 0
0, 0
1, 0
0, 0
0, 0
0, 2
0, 1
1, 0
0, 0
0, 0
0, 0
0, 0
0, 0
0, 0
0, 0
0, 0
0, 0
1, 0
0, 0
0, 0
0, 0
0, 0
0, 0
0, 0
0, 0
0, 0
0, 1
0, 0
1, 0
0, 0
0, 0
0, 0
0, 0
0, 0
0, 0
0, 0
0, 0
0, 0
0, 0
0, 0
0, 0
0, 0
0, 0
0, 0
0, 0
0, 0
0, 0
0, 0
0, 0
0, 0
0, 0
0, 0
0, 0
0, 0
0, 0
0, 0
0, 0
0, 0
0, 0
0, 0
0, 0
0, 0
0, 0
0, 0
0, 0
0, 0
0, 0
0, 0
0, 0
0, 0
0, 0
0, 0
0, 0
0, 0
0, 0
0, 0
0, 0
0, 0
0, 0
0, 0
0, 0
0, 0
0, 0
0, 0
0, 0
0, 0
0, 0
0, 0
0, 0
0, 0
0, 0
0, 0
0, 0
0, 0
0, 0
0, 0
0, 0
0, 0
0, 0
0, 0
0, 0
0, 0
0, 0
0, 0
0, 0
0, 0
0, 0
0, 0
0, 0
0, 0
0, 0
0, 0
0, 0
0, 0
0, 0
0, 0
#ENDOFDATA     end of spectrum data

File: ps__0852shot_2388.msa
#FORMAT      : EMSA/MAS spectral data file
#VERSION     : TC202v2.0 PIXL
#TITLE       : N/A
#DATE        :       Date in the format DD-MMM-YYYY, for example 07-JUL-2010
#TIME        :             The time of day at which the spectrum was recorded, in 24-hour format
#OWNER       : PIXL Flight Model       (PIXL will use this to indicate which instrument took the data.)
#NPOINTS     : 4096     Number of data points in the spectrum (This can be zero for configuration only files)
#NCOLUMNS    : 2     Number of data columns in the spectrum (This can be zero for configuration only files)
#XUNITS      : eV
#YUNITS      : COUNTS
#DATATYPE    : YY
#XPERCHAN    : 7.862, 7.881   eV per channel (separate by commas if more than one detector)
#OFFSET      : 18.5, -22.4         eV of first channel  (separate by commas if more than one detector
#SIGNALTYPE  : XRF
#YP_TEMP     : 2.332
#LIVETIME    : 8.55876, 8.54661   seconds (separate by commas if more than one detector)
#REALTIME    : 10, 10.0   seconds (separate by commas if more than one detector)
#SPECTRUM    : start of spectrum data
0, 0
0, 0
0, 0
0, 0
0, 0
0, 0
0, 0
0, 1
0, 1
2, 1
1, 2
54, 44
68, 71
7, 4
4, 4
94, 96
471, 406
126, 92
2, 1
0, 0
1, 0
4, 3
2, 0
4, 2
31, 17
56, 20
26, 12
20, 12
2, 4
1, 1
2, 3
0, 2
1, 4
12, 25
17, 18
7, 5
5, 6
4, 6
4, 3
29, 3
45, 3
12, 9
18, 10
14, 10
9, 5
8, 6
4, 17
6, 8
4, 10
15, 23
19, 31
22, 12
45, 15
92, 55
80, 51
33, 16
48, 30
521, 603
2270, 2124
1698, 1325
196, 126
18, 21
19, 27
97, 128
392, 307
227, 177
36, 13
14, 8
17, 13
5, 6
6, 0
4, 4
4, 3
3, 2
7, 5
6, 7
6, 3
6, 2
10, 11
11, 5
5, 7
3, 5
1, 5
6, 0
2, 0
7, 5
3, 2
3, 5
4, 1
1, 5
3, 4
5, 5
7, 2
5, 14
2, 4
4, 3
4, 1
2, 4
4, 4
2, 1
2, 0
2, 3
2, 5
0, 3
1, 2
1, 5
2, 0
6, 2
2, 0
2, 1
0, 4
1, 1
3, 4
2, 3
2, 0
3, 1
5, 5
2, 2
1, 1
3, 3
6, 1
0, 0
3, 4
2, 0
0, 1
0, 0
2, 1
2, 2
2, 1
1, 1
1, 0
1, 0
1, 1
1, 1
1, 0
0, 1
1, 0
0, 2
0, 0
0, 0
0, 0
0, 2
0, 1
0, 0
1, 1
1, 1
1, 0
0, 1
1, 0
1, 0
0, 0
0, 1
0, 0
0, 1
0, 0
0, 0
1, 0
0, 0
1, 0
0, 0
1, 0
1, 0
0, 0
0, 0
0, 1
0, 0
1, 1
0, 0
0, 0
0, 0
0, 0
0, 1
0, 1
1, 0
0, 0
0, 0
0, 0
0, 0
0, 0
0, 0
0, 0
0, 0
0, 2
0, 1
0, 0
1, 0
0, 0
0, 0
0, 0
0, 0
0, 0
0, 0
0, 0
0, 0
0, 0
0, 0
0, 0
0, 1
0, 0
0, 0
0, 0
0, 0
0, 0
0, 0
0, 0
0, 0
0, 0
0, 0
0, 0
0, 0
0, 0
0, 0
0, 0
0, 0
0, 0
0, 0
0, 0
0, 0
0, 0
0, 0
0, 0
0, 0
0, 0
0, 0
0, 0
0, 0
0, 0
0, 0
0, 0
0, 0
0, 0
0, 0
0, 0
0, 0
0, 0
0, 0
0, 0
0, 0
0, 0
0, 0
0, 0
0, 0
0, 0
0, 0
0, 0
0, 0
0, 0
0, 0
0, 0
0, 0
0, 0
0, 0
0, 0
0, 0
0, 0
0, 0
0, 0
0, 0
0, 0
0, 0
0, 0
0, 0
0, 0
0, 0
0, 0
0, 0
0, 0
0, 0
0, 0
0, 0
0, 0
0, 0
0, 0
0, 0
0, 0
0, 0
0, 0
0, 0
0, 0
0, 0
0, 0
0, 0
0, 0
0, 0
0, 0
0, 0
0, 0
0, 0
0, 0
0, 0
0, 0
0, 0
0, 0
0, 0
#ENDOFDATA     end of spectrum data

File: ps__0852shot_2389.msa
#FORMAT      : EMSA/MAS spectral data file
#VERSION     : TC202v2.0 PIXL
#TITLE       : N/A
#DATE        :       Date in the format DD-MMM-YYYY, for example 07-JUL-2010
#TIME        :             The time of day at which the spectrum was recorded, in 24-hour format
#OWNER       : PIXL Flight Model       (PIXL will use this to indicate which instrument took the data.)
#NPOINTS     : 4096     Number of data points in the spectrum (This can be zero for configuration only files)
#NCOLUMNS    : 2     Number of data columns in the spectrum (This can be zero for configuration only files)
#XUNITS      : eV
#YUNITS      : COUNTS
#DATATYPE    : YY
#XPERCHAN    : 7.862, 7.881   eV per channel (separate by commas if more than one detector)
#OFFSET      : 18.5, -22.4         eV of first channel  (separate by commas if more than one detector
#SIGNALTYPE  : XRF
#YP_TEMP     : 2.267
#LIVETIME    : 8.55167, 8.55142   seconds (separate by commas if more than one detector)
#REALTIME    : 10, 10.0   seconds (separate by commas if more than one detector)
#SPECTRUM    : start of spectrum data
0, 0
0, 0
0, 0
0, 0
0, 0
0, 0
0, 0
0, 0
1, 0
4, 1
4, 3
42, 47
59, 56
14, 4
10, 8
109, 108
436, 416
129, 111
8, 0
0, 3
1, 3
3, 6
5, 1
8, 4
67, 16
113, 23
32, 18
11, 10
4, 2
2, 4
1, 3
3, 2
3, 9
6, 22
16, 20
5, 7
5, 4
11, 7
11, 1
16, 3
21, 4
13, 9
21, 11
11, 10
1, 7
5, 13
1, 12
7, 24
6, 14
10, 39
9, 43
12, 16
22, 14
71, 39
87, 52
22, 20
41, 34
527, 549
2261, 2236
1647, 1360
198, 118
15, 20
22, 37
103, 116
377, 326
217, 185
40, 15
20, 8
21, 8
11, 6
5, 4
2, 1
0, 1
8, 3
6, 2
16, 5
8, 6
1, 13
4, 11
6, 7
13, 9
5, 9
1, 5
5, 4
2, 4
7, 2
3, 2
3, 4
4, 5
5, 4
13, 4
11, 1
8, 6
4, 14
6, 10
0, 4
7, 4
1, 6
6, 3
2, 3
3, 2
1, 2
2, 1
6, 4
2, 1
0, 2
2, 0
4, 2
2, 3
3, 0
0, 2
2, 1
1, 3
4, 4
0, 3
4, 3
5, 5
11, 3
4, 2
0, 1
2, 2
2, 2
0, 1
2, 2
1, 0
1, 0
0, 2
0, 1
2, 3
2, 0
2, 3
1, 0
1, 1
2, 3
0, 1
1, 0
0, 1
0, 1
0, 0
1, 2
1, 1
0, 2
1, 1
0, 1
0, 1
0, 2
0, 1
0, 0
2, 0
0, 0
0, 0
0, 2
0, 1
1, 0
1, 0
1, 2
1, 0
0, 0
1, 0
1, 0
1, 0
0, 1
1, 1
0, 0
0, 0
0, 0
0, 0
1, 1
2, 0
0, 0
0, 0
0, 0
1, 0
0, 1
0, 0
0, 0
0, 0
0, 0
0, 0
0, 0
0, 0
0, 1
1, 1
1, 0
0, 0
0, 0
0, 0
0, 0
0, 0
0, 0
0, 0
0, 0
0, 0
0, 0
0, 0
0, 0
0, 0
0, 0
0, 0
0, 0
0, 0
0, 0
0, 0
0, 0
0, 0
0, 0
0, 0
0, 0
0, 0
0, 0
0, 0
0, 0
0, 0
0, 0
0, 0
0, 0
0, 0
0, 0
0, 0
0, 0
0, 0
0, 0
0, 0
0, 0
0, 0
0, 0
0, 0
0, 0
0, 0
0, 0
0, 0
0, 0
0, 0
0, 0
0, 0
0, 0
0, 0
0, 0
0, 0
0, 0
0, 0
0, 0
0, 0
0, 0
0, 0
0, 0
0, 0
0, 0
0, 0
0, 0
0, 0
0, 0
0, 0
0, 0
0, 0
0, 0
0, 0
0, 0
0, 0
0, 0
0, 0
0, 0
0, 0
0, 0
0, 0
0, 0
0, 0
0, 0
0, 0
0, 0
0, 0
0, 0
0, 0
0, 0
0, 0
0, 0
0, 0
0, 0
0, 0
0, 0
0, 0
0, 0
0, 0
0, 0
0, 0
0, 0
0, 0
0, 0
0, 0
0, 0
0, 0
0, 0
0, 0
0, 0
#ENDOFDATA     end of spectrum data

File: ps__0852shot_2390.msa
#FORMAT      : EMSA/MAS spectral data file
#VERSION     : TC202v2.0 PIXL
#TITLE       : N/A
#DATE        :       Date in the format DD-MMM-YYYY, for example 07-JUL-2010
#TIME        :             The time of day at which the spectrum was recorded, in 24-hour format
#OWNER       : PIXL Flight Model       (PIXL will use this to indicate which instrument took the data.)
#NPOINTS     : 4096     Number of data points in the spectrum (This can be zero for configuration only files)
#NCOLUMNS    : 2     Number of data columns in the spectrum (This can be zero for configuration only files)
#XUNITS      : eV
#YUNITS      : COUNTS
#DATATYPE    : YY
#XPERCHAN    : 7.862, 7.881   eV per channel (separate by commas if more than one detector)
#OFFSET      : 18.5, -22.4         eV of first channel  (separate by commas if more than one detector
#SIGNALTYPE  : XRF
#YP_TEMP     : 2.46
#LIVETIME    : 8.5818, 8.55082   seconds (separate by commas if more than one detector)
#REALTIME    : 10, 10.0   seconds (separate by commas if more than one detector)
#SPECTRUM    : start of spectrum data
0, 0
0, 0
0, 0
0, 0
0, 0
0, 0
0, 0
0, 0
1, 0
2, 0
2, 6
57, 53
61, 41
9, 9
15, 12
101, 114
481, 451
109, 88
7, 2
3, 0
1, 4
7, 5
7, 5
2, 7
45, 13
74, 16
20, 16
20, 11
4, 3
4, 3
9, 7
3, 5
4, 2
12, 18
19, 26
4, 7
6, 5
7, 8
10, 2
29, 3
52, 1
13, 7
13, 17
12, 13
7, 9
5, 6
3, 13
3, 20
7, 8
14, 22
21, 34
28, 2
48, 6
105, 38
90, 53
18, 15
34, 39
462, 624
2201, 2247
1607, 1350
190, 122
16, 21
17, 24
110, 94
358, 364
229, 197
45, 22
14, 10
9, 16
7, 8
9, 3
5, 4
0, 4
7, 7
3, 5
10, 4
2, 8
7, 16
7, 11
15, 10
8, 18
5, 14
1, 5
4, 4
1, 0
2, 2
2, 7
3, 5
1, 8
4, 8
6, 2
7, 7
5, 9
6, 7
6, 7
5, 6
3, 4
3, 2
1, 3
3, 3
3, 3
1, 0
5, 1
3, 5
1, 1
5, 6
1, 1
1, 2
1, 4
0, 2
4, 1
3, 0
2, 2
3, 3
5, 4
2, 2
7, 0
3, 2
3, 3
1, 2
0, 0
0, 1
0, 1
1, 1
3, 0
1, 0
5, 0
1, 2
1, 0
0, 1
3, 1
0, 2
2, 1
1, 0
1, 1
1, 2
0, 1
0, 1
2, 1
0, 1
0, 1
0, 0
2, 1
0, 1
0, 0
0, 0
0, 0
0, 0
0, 1
0, 0
0, 0
1, 1
0, 1
1, 1
2, 0
2, 0
1, 0
1, 0
1, 1
1, 1
0, 1
0, 0
1, 0
0, 0
0, 0
1, 0
1, 2
1, 0
0, 0
1, 1
1, 0
0, 0
0, 1
0, 0
0, 0
1, 0
0, 0
0, 1
0, 0
0, 0
0, 0
0, 1
0, 0
1, 0
0, 1
0, 1
0, 0
0, 0
1, 0
0, 0
0, 0
0, 0
0, 0
0, 1
0, 0
0, 0
0, 0
0, 1
0, 0
0, 0
0, 0
0, 0
0, 0
0, 0
0, 0
0, 0
0, 0
0, 0
0, 0
0, 0
0, 0
0, 1
0, 0
0, 0
0, 0
0, 0
0, 0
0, 0
0, 1
0, 0
0, 0
0, 0
0, 0
0, 0
0, 0
0, 0
0, 0
0, 0
0, 0
0, 0
0, 0
0, 0
0, 0
0, 0
0, 0
0, 0
0, 0
0, 0
0, 0
0, 0
0, 0
0, 0
0, 0
0, 0
0, 0
0, 0
0, 0
0, 0
0, 0
0, 0
0, 0
0, 0
0, 0
0, 0
0, 0
0, 0
0, 0
0, 0
0, 0
0, 0
0, 0
0, 0
0, 0
0, 0
0, 0
0, 0
0, 0
0, 0
0, 0
0, 0
0, 0
0, 0
0, 0
0, 0
0, 0
0, 0
0, 0
0, 0
0, 0
0, 0
0, 0
0, 0
0, 0
0, 0
0, 0
0, 0
0, 0
0, 0
0, 0
0, 0
0, 0
0, 0
0, 0
0, 0
#ENDOFDATA     end of spectrum data

File: ps__0852shot_2391.msa
#FORMAT      : EMSA/MAS spectral data file
#VERSION     : TC202v2.0 PIXL
#TITLE       : N/A
#DATE        :       Date in the format DD-MMM-YYYY, for example 07-JUL-2010
#TIME        :             The time of day at which the spectrum was recorded, in 24-hour format
#OWNER       : PIXL Flight Model       (PIXL will use this to indicate which instrument took the data.)
#NPOINTS     : 4096     Number of data points in the spectrum (This can be zero for configuration only files)
#NCOLUMNS    : 2     Number of data columns in the spectrum (This can be zero for configuration only files)
#XUNITS      : eV
#YUNITS      : COUNTS
#DATATYPE    : YY
#XPERCHAN    : 7.862, 7.881   eV per channel (separate by commas if more than one detector)
#OFFSET      : 18.5, -22.4         eV of first channel  (separate by commas if more than one detector
#SIGNALTYPE  : XRF
#YP_TEMP     : 2.524
#LIVETIME    : 8.56068, 8.53618   seconds (separate by commas if more than one detector)
#REALTIME    : 10, 10.0   seconds (separate by commas if more than one detector)
#SPECTRUM    : start of spectrum data
0, 0
0, 0
0, 0
0, 0
0, 0
0, 0
0, 0
0, 0
0, 1
1, 0
1, 4
56, 41
77, 49
4, 3
6, 10
94, 94
524, 388
121, 79
5, 6
1, 1
0, 4
19, 13
7, 7
7, 4
42, 20
49, 24
31, 19
30, 9
1, 2
3, 4
3, 2
4, 2
5, 3
7, 6
22, 12
7, 5
6, 3
6, 5
17, 3
63, 3
88, 2
27, 12
11, 8
11, 13
5, 15
5, 8
2, 12
3, 9
9, 10
11, 11
26, 6
53, 6
80, 9
139, 34
127, 43
28, 16
36, 27
492, 552
2390, 2203
1753, 1258
223, 126
16, 20
27, 23
95, 126
363, 302
256, 171
47, 23
8, 7
14, 15
5, 7
6, 4
7, 6
8, 7
4, 7
2, 1
6, 6
10, 7
9, 15
10, 18
19, 7
18, 13
8, 21
3, 9
5, 1
3, 1
5, 1
1, 1
3, 2
5, 3
4, 5
3, 4
6, 6
12, 7
10, 25
5, 9
4, 4
2, 5
1, 0
3, 5
3, 3
1, 1
3, 3
2, 2
1, 1
1, 0
2, 4
5, 2
1, 1
1, 0
5, 1
1, 3
2, 6
4, 2
1, 0
3, 1
1, 7
8, 5
1, 4
4, 1
1, 0
1, 3
3, 2
2, 1
0, 0
0, 1
0, 1
0, 1
0, 0
3, 3
1, 1
2, 1
3, 1
3, 0
1, 1
0, 0
0, 1
1, 2
0, 0
1, 0
0, 1
0, 0
0, 2
1, 1
0, 1
0, 2
2, 0
0, 2
0, 0
0, 0
1, 1
0, 1
0, 0
0, 0
0, 0
0, 0
1, 0
0, 0
0, 1
0, 3
1, 1
0, 0
0, 0
0, 0
0, 0
0, 0
0, 0
0, 0
0, 0
0, 0
0, 0
0, 0
0, 0
0, 1
2, 0
0, 0
0, 0
0, 1
1, 0
0, 0
0, 0
0, 0
0, 0
0, 0
1, 0
0, 0
0, 0
1, 0
0, 1
0, 0
0, 1
0, 0
0, 0
0, 0
0, 1
0, 0
0, 0
0, 0
0, 0
0, 0
0, 1
0, 0
0, 0
0, 0
0, 0
0, 0
0, 0
0, 0
1, 0
0, 0
0, 0
0, 0
0, 0
0, 0
0, 0
0, 0
0, 0
0, 0
0, 0
0, 0
0, 0
0, 0
0, 0
0, 0
0, 0
0, 0
0, 0
0, 0
0, 0
0, 0
0, 0
0, 0
0, 0
0, 0
0, 0
0, 0
0, 0
0, 0
0, 0
0, 0
0, 0
0, 0
0, 0
0, 0
0, 0
0, 0
0, 0
0, 0
0, 0
0, 0
0, 0
0, 0
0, 0
0, 0
0, 0
0, 0
0, 0
0, 0
0, 0
0, 0
0, 0
0, 0
0, 0
0, 0
0, 0
0, 0
0, 0
0, 0
0, 0
0, 0
0, 0
0, 0
0, 0
0, 0
0, 0
0, 0
0, 0
0, 0
0, 0
0, 0
0, 0
0, 0
0, 0
0, 0
0, 0
0, 0
0, 0
0, 0
0, 0
0, 0
0, 0
0, 0
0, 0
0, 0
0, 0
#ENDOFDATA     end of spectrum data