Folder: data-repository/host_upload/06-09-2024/ps_0852/dump3 (part 26)

File: ps__0852shot_2227.msa
#FORMAT      : EMSA/MAS spectral data file
#VERSION     : TC202v2.0 PIXL
#TITLE       : N/A
#DATE        :       Date in the format DD-MMM-YYYY, for example 07-JUL-2010
#TIME        :             The time of day at which the spectrum was recorded, in 24-hour format
#OWNER       : PIXL Flight Model       (PIXL will use this to indicate which instrument took the data.)
#NPOINTS     : 4096     Number of data points in the spectrum (This can be zero for configuration only files)
#NCOLUMNS    : 2     Number of data columns in the spectrum (This can be zero for configuration only files)
#XUNITS      : eV
#YUNITS      : COUNTS
#DATATYPE    : YY
#XPERCHAN    : 7.862, 7.881   eV per channel (separate by commas if more than one detector)
#OFFSET      : 18.5, -22.4         eV of first channel  (separate by commas if more than one detector
#SIGNALTYPE  : XRF
#YP_TEMP     : 2.267
#LIVETIME    : 8.5422, 8.52919   seconds (separate by commas if more than one detector)
#REALTIME    : 10, 10.0   seconds (separate by commas if more than one detector)
#SPECTRUM    : start of spectrum data
0, 0
0, 0
0, 0
0, 0
0, 0
0, 0
0, 0
1, 0
1, 11
1, 52
2, 10
38, 57
68, 72
3, 6
4, 11
101, 86
456, 448
120, 108
4, 8
0, 5
3, 0
2, 9
7, 14
5, 75
23, 1680
26, 2442
16, 273
18, 15
1, 5
1, 1
3, 3
1, 1
4, 3
10, 8
13, 9
7, 3
37, 1
49, 9
22, 62
12, 113
7, 25
10, 14
14, 9
20, 8
19, 17
11, 11
4, 6
1, 5
5, 24
9, 32
13, 20
18, 12
15, 22
34, 58
52, 68
18, 25
31, 33
456, 629
2139, 2379
1588, 1425
194, 135
18, 17
18, 48
92, 141
325, 326
228, 196
35, 46
7, 58
23, 24
9, 9
1, 4
3, 3
5, 6
7, 38
3, 38
7, 21
2, 11
8, 8
5, 7
4, 1
2, 6
3, 3
6, 8
3, 12
1, 3
3, 5
3, 3
7, 3
8, 6
8, 5
2, 8
1, 2
3, 4
3, 7
11, 4
13, 3
8, 2
5, 4
6, 7
3, 4
1, 7
0, 0
2, 2
2, 4
4, 0
1, 7
2, 5
1, 2
4, 1
3, 2
4, 3
2, 3
1, 5
1, 5
0, 2
3, 4
4, 3
4, 5
1, 0
1, 3
2, 1
1, 4
1, 6
3, 4
0, 1
0, 0
0, 1
0, 1
1, 2
0, 2
0, 2
0, 1
1, 0
0, 2
1, 1
1, 2
2, 3
0, 1
0, 1
0, 2
0, 1
2, 0
0, 1
0, 0
0, 3
0, 0
0, 1
2, 0
0, 0
0, 0
1, 0
1, 0
1, 0
0, 1
0, 1
0, 1
0, 1
1, 1
0, 0
0, 0
0, 0
0, 0
0, 0
0, 0
0, 0
0, 0
1, 0
1, 0
0, 1
0, 1
0, 1
0, 0
0, 0
0, 0
0, 1
0, 0
0, 0
0, 0
0, 0
1, 0
0, 0
0, 0
0, 0
0, 0
0, 0
0, 0
0, 0
0, 0
0, 0
0, 0
0, 0
0, 0
0, 0
0, 0
0, 0
0, 0
0, 0
0, 0
0, 0
0, 0
0, 0
0, 0
0, 0
0, 0
0, 0
0, 0
0, 0
0, 0
0, 0
0, 0
0, 0
0, 0
0, 0
0, 0
0, 0
0, 0
0, 0
0, 0
0, 0
0, 0
0, 0
0, 0
0, 0
0, 0
0, 0
0, 0
0, 0
0, 0
0, 0
0, 0
0, 0
0, 0
1, 0
0, 0
0, 0
0, 0
0, 0
0, 0
0, 0
0, 0
0, 0
0, 0
0, 0
0, 0
0, 0
0, 0
0, 0
0, 0
0, 0
0, 0
0, 0
0, 0
0, 0
0, 0
0, 0
0, 0
0, 0
0, 0
0, 0
0, 0
0, 0
0, 0
0, 0
0, 0
0, 0
0, 0
0, 0
0, 0
0, 0
0, 0
0, 0
0, 0
0, 0
0, 0
0, 0
0, 0
0, 0
0, 0
0, 0
0, 0
0, 0
0, 0
0, 0
0, 0
0, 0
0, 0
0, 0
0, 0
0, 0
0, 0
0, 0
0, 0
0, 0
0, 0
#ENDOFDATA     end of spectrum data

File: ps__0852shot_2228.msa
#FORMAT      : EMSA/MAS spectral data file
#VERSION     : TC202v2.0 PIXL
#TITLE       : N/A
#DATE        :       Date in the format DD-MMM-YYYY, for example 07-JUL-2010
#TIME        :             The time of day at which the spectrum was recorded, in 24-hour format
#OWNER       : PIXL Flight Model       (PIXL will use this to indicate which instrument took the data.)
#NPOINTS     : 4096     Number of data points in the spectrum (This can be zero for configuration only files)
#NCOLUMNS    : 2     Number of data columns in the spectrum (This can be zero for configuration only files)
#XUNITS      : eV
#YUNITS      : COUNTS
#DATATYPE    : YY
#XPERCHAN    : 7.862, 7.881   eV per channel (separate by commas if more than one detector)
#OFFSET      : 18.5, -22.4         eV of first channel  (separate by commas if more than one detector
#SIGNALTYPE  : XRF
#YP_TEMP     : 2.3
#LIVETIME    : 8.55503, 8.52593   seconds (separate by commas if more than one detector)
#REALTIME    : 10, 10.0   seconds (separate by commas if more than one detector)
#SPECTRUM    : start of spectrum data
0, 0
0, 0
0, 0
0, 0
0, 0
0, 0
0, 0
0, 1
0, 24
0, 88
5, 16
49, 56
70, 51
6, 12
0, 8
103, 83
426, 402
101, 101
3, 7
0, 5
1, 5
3, 1
1, 7
4, 140
24, 2818
26, 4046
16, 448
12, 19
0, 4
9, 0
3, 0
1, 2
5, 3
6, 18
10, 7
8, 5
24, 5
17, 10
3, 41
4, 58
4, 18
9, 15
9, 10
36, 7
77, 9
30, 4
8, 2
7, 8
5, 47
11, 123
13, 39
12, 6
15, 15
28, 50
46, 56
26, 19
29, 30
514, 565
2272, 2256
1745, 1304
216, 138
17, 19
21, 46
107, 127
326, 337
242, 204
36, 25
6, 12
12, 16
6, 5
4, 3
3, 8
8, 29
13, 73
8, 54
5, 9
6, 6
6, 1
6, 3
5, 6
4, 3
5, 15
6, 11
4, 18
4, 5
8, 5
0, 8
2, 7
4, 5
0, 4
1, 3
5, 0
3, 3
4, 1
17, 2
15, 0
19, 3
9, 13
2, 12
4, 4
3, 1
1, 3
6, 1
1, 3
0, 2
3, 1
1, 2
4, 2
3, 5
3, 1
4, 2
0, 5
0, 2
4, 1
0, 2
2, 1
3, 3
1, 2
1, 2
7, 2
3, 0
1, 1
2, 2
2, 3
0, 1
1, 1
0, 1
0, 0
0, 1
0, 0
0, 0
2, 0
2, 0
2, 1
0, 0
0, 0
2, 0
0, 0
0, 2
1, 0
0, 0
1, 2
0, 1
0, 0
0, 1
1, 0
1, 1
2, 1
1, 0
1, 0
1, 0
0, 0
0, 0
1, 0
1, 0
0, 2
0, 0
0, 2
0, 0
1, 1
1, 1
0, 0
0, 1
0, 0
0, 0
0, 0
2, 0
0, 1
0, 1
1, 0
0, 1
1, 0
0, 0
1, 0
1, 0
0, 0
0, 0
0, 0
0, 0
0, 0
0, 0
0, 0
0, 0
0, 0
0, 0
0, 0
0, 0
0, 0
0, 0
0, 0
0, 0
0, 0
0, 0
0, 0
0, 0
0, 0
0, 0
0, 0
0, 0
0, 0
0, 0
0, 0
0, 0
0, 0
0, 0
0, 0
0, 0
0, 0
0, 0
0, 0
0, 0
0, 0
0, 0
0, 0
0, 0
0, 0
0, 0
0, 0
0, 0
0, 0
0, 0
0, 0
0, 0
0, 0
0, 0
0, 0
0, 0
0, 0
0, 0
0, 0
0, 0
0, 0
0, 0
0, 0
0, 0
0, 0
0, 0
0, 0
0, 0
0, 0
0, 0
0, 0
0, 0
0, 0
0, 0
0, 0
0, 0
0, 0
0, 0
0, 0
0, 0
0, 0
0, 0
0, 0
0, 0
0, 0
0, 0
0, 0
0, 0
0, 0
0, 0
0, 0
0, 0
0, 0
0, 0
0, 0
0, 0
0, 0
0, 0
0, 0
0, 0
0, 0
0, 0
0, 0
0, 0
0, 0
0, 0
0, 0
0, 0
0, 0
0, 0
0, 0
0, 0
0, 0
0, 0
0, 0
0, 0
0, 0
0, 0
0, 0
0, 0
0, 0
0, 0
0, 0
#ENDOFDATA     end of spectrum data

File: ps__0852shot_2229.msa
#FORMAT      : EMSA/MAS spectral data file
#VERSION     : TC202v2.0 PIXL
#TITLE       : N/A
#DATE        :       Date in the format DD-MMM-YYYY, for example 07-JUL-2010
#TIME        :             The time of day at which the spectrum was recorded, in 24-hour format
#OWNER       : PIXL Flight Model       (PIXL will use this to indicate which instrument took the data.)
#NPOINTS     : 4096     Number of data points in the spectrum (This can be zero for configuration only files)
#NCOLUMNS    : 2     Number of data columns in the spectrum (This can be zero for configuration only files)
#XUNITS      : eV
#YUNITS      : COUNTS
#DATATYPE    : YY
#XPERCHAN    : 7.862, 7.881   eV per channel (separate by commas if more than one detector)
#OFFSET      : 18.5, -22.4         eV of first channel  (separate by commas if more than one detector
#SIGNALTYPE  : XRF
#YP_TEMP     : 2.3
#LIVETIME    : 8.55781, 8.37273   seconds (separate by commas if more than one detector)
#REALTIME    : 10, 10.0   seconds (separate by commas if more than one detector)
#SPECTRUM    : start of spectrum data
0, 0
0, 0
0, 0
0, 0
0, 0
0, 0
0, 0
0, 0
0, 20
2, 45
2, 5
48, 50
75, 52
7, 8
6, 4
127, 88
468, 381
116, 78
7, 6
0, 1
0, 2
3, 0
4, 5
9, 90
14, 1672
27, 2358
16, 241
14, 13
5, 2
3, 2
7, 1
3, 3
0, 0
12, 10
19, 17
6, 8
6, 5
9, 8
2, 15
6, 20
3, 10
8, 6
17, 7
42, 7
90, 2
43, 6
5, 13
7, 10
8, 42
14, 91
15, 32
10, 10
8, 13
35, 34
70, 43
21, 28
38, 40
487, 561
2302, 2137
1668, 1263
197, 117
18, 15
19, 39
101, 145
372, 345
254, 174
33, 20
12, 5
15, 13
7, 7
6, 3
3, 7
17, 32
12, 45
9, 30
7, 11
7, 4
3, 3
3, 3
3, 4
7, 0
7, 3
2, 8
2, 6
3, 2
3, 6
6, 6
6, 3
3, 5
4, 1
2, 0
2, 1
3, 5
5, 2
6, 2
21, 1
8, 4
3, 4
3, 6
1, 2
4, 2
3, 1
3, 0
5, 3
1, 1
0, 1
1, 1
2, 1
4, 5
8, 1
4, 2
4, 3
1, 2
2, 0
3, 0
0, 3
10, 4
6, 1
4, 1
2, 0
2, 1
1, 1
1, 2
4, 1
0, 1
0, 0
1, 1
0, 1
1, 2
0, 1
1, 1
3, 1
1, 1
1, 1
1, 0
0, 0
3, 1
0, 1
1, 3
0, 0
0, 0
0, 3
1, 0
0, 0
0, 0
1, 0
0, 1
0, 0
1, 0
0, 0
0, 0
0, 0
0, 1
0, 0
0, 0
1, 2
1, 0
0, 0
0, 0
0, 0
0, 0
0, 2
0, 0
1, 0
0, 0
0, 0
0, 1
0, 0
0, 0
0, 0
0, 0
0, 0
0, 0
0, 0
0, 0
0, 0
0, 0
0, 0
0, 0
0, 0
0, 1
0, 1
0, 0
0, 0
0, 0
0, 0
0, 0
0, 0
0, 0
0, 0
0, 0
0, 0
0, 1
0, 0
0, 0
0, 0
0, 0
0, 0
0, 0
0, 0
0, 0
0, 0
0, 0
0, 0
0, 0
0, 0
1, 1
0, 0
0, 0
0, 0
0, 0
0, 0
0, 0
0, 0
0, 0
0, 0
0, 0
0, 0
0, 0
0, 0
0, 0
0, 0
0, 0
0, 0
0, 0
0, 0
0, 0
0, 0
0, 0
0, 0
0, 0
0, 0
0, 0
0, 0
0, 0
0, 0
0, 0
0, 0
0, 0
0, 0
0, 0
0, 0
0, 0
0, 0
0, 0
0, 0
0, 0
0, 0
0, 0
0, 0
0, 0
0, 0
0, 0
0, 0
0, 0
0, 0
0, 0
0, 0
0, 0
0, 0
0, 0
0, 0
0, 0
0, 0
0, 0
0, 0
0, 0
0, 0
0, 0
0, 0
0, 0
0, 0
0, 0
0, 0
0, 0
0, 0
0, 0
0, 0
0, 0
0, 0
0, 0
0, 0
0, 0
0, 0
0, 0
0, 0
0, 0
0, 0
0, 0
0, 0
0, 0
0, 0
0, 0
0, 0
#ENDOFDATA     end of spectrum data

File: ps__0852shot_2230.msa
#FORMAT      : EMSA/MAS spectral data file
#VERSION     : TC202v2.0 PIXL
#TITLE       : N/A
#DATE        :       Date in the format DD-MMM-YYYY, for example 07-JUL-2010
#TIME        :             The time of day at which the spectrum was recorded, in 24-hour format
#OWNER       : PIXL Flight Model       (PIXL will use this to indicate which instrument took the data.)
#NPOINTS     : 4096     Number of data points in the spectrum (This can be zero for configuration only files)
#NCOLUMNS    : 2     Number of data columns in the spectrum (This can be zero for configuration only files)
#XUNITS      : eV
#YUNITS      : COUNTS
#DATATYPE    : YY
#XPERCHAN    : 7.862, 7.881   eV per channel (separate by commas if more than one detector)
#OFFSET      : 18.5, -22.4         eV of first channel  (separate by commas if more than one detector
#SIGNALTYPE  : XRF
#YP_TEMP     : 2.364
#LIVETIME    : 8.55557, 8.55098   seconds (separate by commas if more than one detector)
#REALTIME    : 10, 10.0   seconds (separate by commas if more than one detector)
#SPECTRUM    : start of spectrum data
0, 0
0, 0
0, 0
0, 0
0, 0
0, 0
0, 0
0, 0
2, 3
0, 6
3, 5
31, 33
43, 46
9, 5
3, 8
103, 102
390, 395
79, 118
4, 1
2, 0
1, 3
2, 9
3, 2
10, 37
27, 452
41, 551
18, 81
8, 18
2, 3
9, 4
4, 1
2, 1
3, 0
5, 14
13, 16
1, 3
2, 10
5, 2
6, 12
10, 13
6, 5
10, 10
14, 19
43, 8
88, 7
38, 4
10, 6
3, 19
8, 51
9, 39
16, 20
12, 7
12, 8
38, 28
48, 62
22, 17
31, 36
455, 611
2148, 2168
1516, 1324
214, 130
16, 30
21, 27
96, 116
321, 336
219, 205
30, 27
8, 8
20, 9
8, 7
8, 8
5, 6
6, 24
20, 31
15, 10
8, 4
6, 2
5, 0
2, 6
6, 5
3, 1
2, 1
4, 5
2, 9
4, 13
3, 11
2, 2
3, 2
9, 1
5, 1
10, 1
11, 1
9, 0
3, 2
3, 1
4, 6
4, 6
4, 6
2, 7
1, 2
3, 3
2, 5
1, 1
0, 2
3, 3
0, 1
0, 1
1, 3
1, 7
2, 7
3, 2
4, 0
1, 2
3, 0
4, 0
3, 1
1, 2
3, 3
3, 2
1, 3
1, 2
2, 0
0, 3
1, 1
0, 2
0, 0
1, 2
1, 2
0, 1
0, 0
2, 1
0, 1
0, 1
1, 0
0, 1
0, 0
0, 0
0, 1
1, 0
0, 1
0, 0
0, 1
0, 1
0, 1
0, 1
1, 0
1, 0
1, 0
0, 0
1, 0
1, 0
2, 0
0, 0
1, 1
0, 0
0, 0
1, 0
0, 1
0, 1
0, 0
0, 0
1, 0
0, 0
0, 0
0, 0
1, 0
1, 1
0, 0
2, 0
1, 0
0, 0
0, 1
0, 0
1, 0
0, 0
0, 0
0, 0
0, 0
0, 0
0, 0
0, 0
0, 0
0, 0
0, 0
0, 0
0, 0
0, 0
0, 0
0, 0
0, 0
0, 0
0, 0
0, 1
1, 0
1, 0
0, 0
0, 0
0, 0
0, 0
0, 0
0, 0
0, 0
0, 0
0, 0
0, 0
0, 0
0, 0
0, 0
0, 0
0, 0
0, 0
0, 0
0, 0
0, 0
0, 0
0, 0
0, 0
0, 0
0, 0
0, 0
0, 0
0, 0
0, 0
0, 0
0, 0
0, 0
0, 0
0, 0
0, 0
0, 0
0, 0
0, 0
0, 0
0, 0
0, 0
0, 0
0, 0
0, 0
0, 0
0, 0
0, 0
0, 0
0, 0
0, 0
0, 0
0, 0
0, 0
0, 0
0, 0
0, 0
0, 0
0, 0
0, 0
0, 0
0, 0
0, 0
0, 0
0, 0
0, 0
0, 0
0, 0
0, 0
0, 0
0, 0
0, 0
0, 0
0, 0
0, 0
0, 0
0, 0
0, 0
0, 0
0, 0
0, 0
0, 0
0, 0
0, 0
0, 0
0, 0
0, 0
0, 0
0, 0
0, 0
0, 0
0, 0
0, 0
0, 0
0, 0
0, 0
0, 0
0, 0
0, 0
0, 0
0, 0
#ENDOFDATA     end of spectrum data

File: ps__0852shot_2231.msa
#FORMAT      : EMSA/MAS spectral data file
#VERSION     : TC202v2.0 PIXL
#TITLE       : N/A
#DATE        :       Date in the format DD-MMM-YYYY, for example 07-JUL-2010
#TIME        :             The time of day at which the spectrum was recorded, in 24-hour format
#OWNER       : PIXL Flight Model       (PIXL will use this to indicate which instrument took the data.)
#NPOINTS     : 4096     Number of data points in the spectrum (This can be zero for configuration only files)
#NCOLUMNS    : 2     Number of data columns in the spectrum (This can be zero for configuration only files)
#XUNITS      : eV
#YUNITS      : COUNTS
#DATATYPE    : YY
#XPERCHAN    : 7.862, 7.881   eV per channel (separate by commas if more than one detector)
#OFFSET      : 18.5, -22.4         eV of first channel  (separate by commas if more than one detector
#SIGNALTYPE  : XRF
#YP_TEMP     : 2.588
#LIVETIME    : 8.55613, 8.56251   seconds (separate by commas if more than one detector)
#REALTIME    : 10, 10.0   seconds (separate by commas if more than one detector)
#SPECTRUM    : start of spectrum data
0, 0
0, 0
0, 0
0, 0
0, 0
0, 0
0, 0
0, 0
1, 1
2, 1
7, 4
33, 42
57, 38
0, 5
4, 2
85, 111
397, 481
92, 96
9, 9
0, 2
1, 3
4, 6
6, 3
12, 11
48, 89
51, 79
23, 25
17, 10
7, 5
5, 2
2, 1
2, 4
2, 3
8, 6
9, 11
3, 4
2, 3
3, 7
6, 7
15, 3
11, 5
11, 8
22, 19
12, 11
17, 4
7, 8
4, 8
5, 31
3, 56
12, 24
21, 13
7, 7
1, 10
33, 60
42, 68
11, 22
33, 46
425, 673
2022, 2493
1529, 1404
163, 159
20, 22
19, 23
95, 126
319, 365
192, 218
47, 16
10, 10
12, 14
3, 9
3, 1
3, 5
5, 11
6, 12
4, 8
4, 9
1, 6
7, 2
5, 5
5, 7
4, 3
4, 6
6, 10
5, 10
2, 23
2, 14
5, 7
2, 8
3, 2
1, 4
9, 6
15, 5
8, 1
2, 4
3, 3
2, 3
0, 11
3, 10
2, 4
4, 6
2, 5
4, 2
2, 5
1, 3
3, 1
4, 2
2, 4
1, 7
1, 8
0, 4
1, 6
1, 3
0, 2
5, 4
4, 0
2, 5
6, 7
4, 1
4, 2
1, 0
3, 2
1, 0
0, 1
0, 1
2, 0
1, 1
0, 0
2, 3
1, 1
2, 0
0, 0
0, 2
2, 3
0, 2
4, 1
0, 1
0, 0
0, 1
0, 0
0, 1
0, 1
1, 1
0, 0
0, 1
1, 0
0, 0
0, 0
0, 0
0, 0
0, 0
0, 1
0, 1
0, 0
1, 1
0, 0
0, 0
0, 0
0, 0
1, 0
0, 0
1, 0
0, 1
0, 1
0, 0
0, 0
1, 1
1, 0
0, 1
0, 0
1, 0
0, 0
0, 2
2, 0
0, 0
0, 1
0, 0
0, 0
0, 1
0, 0
0, 0
0, 0
0, 3
0, 0
0, 0
0, 0
0, 1
0, 0
0, 0
0, 0
0, 0
0, 0
0, 0
1, 0
0, 0
1, 0
0, 0
0, 0
0, 0
0, 0
0, 0
0, 0
0, 0
0, 0
0, 0
0, 0
0, 0
0, 0
0, 0
0, 0
0, 0
0, 0
0, 0
0, 0
0, 0
0, 0
0, 0
0, 0
0, 0
0, 0
0, 0
0, 0
0, 0
0, 0
0, 0
0, 0
0, 0
0, 0
0, 0
0, 0
0, 0
0, 0
0, 0
0, 0
0, 0
0, 0
0, 0
0, 0
0, 0
0, 0
0, 0
0, 0
0, 0
0, 0
0, 0
0, 0
0, 0
0, 0
0, 0
0, 0
0, 0
0, 0
0, 0
0, 0
0, 0
0, 0
0, 0
0, 0
0, 0
0, 0
0, 0
0, 0
0, 0
0, 0
0, 0
0, 0
0, 0
0, 0
0, 0
0, 0
0, 0
0, 0
0, 0
0, 0
0, 0
0, 0
0, 0
0, 0
0, 0
0, 0
0, 0
0, 0
0, 0
0, 0
0, 0
0, 0
0, 0
0, 0
0, 0
0, 0
0, 0
0, 0
0, 0
0, 0
0, 0
#ENDOFDATA     end of spectrum data

File: ps__0852shot_2233.msa
#FORMAT      : EMSA/MAS spectral data file
#VERSION     : TC202v2.0 PIXL
#TITLE       : N/A
#DATE        :       Date in the format DD-MMM-YYYY, for example 07-JUL-2010
#TIME        :             The time of day at which the spectrum was recorded, in 24-hour format
#OWNER       : PIXL Flight Model       (PIXL will use this to indicate which instrument took the data.)
#NPOINTS     : 4096     Number of data points in the spectrum (This can be zero for configuration only files)
#NCOLUMNS    : 2     Number of data columns in the spectrum (This can be zero for configuration only files)
#XUNITS      : eV
#YUNITS      : COUNTS
#DATATYPE    : YY
#XPERCHAN    : 7.862, 7.881   eV per channel (separate by commas if more than one detector)
#OFFSET      : 18.5, -22.4         eV of first channel  (separate by commas if more than one detector
#SIGNALTYPE  : XRF
#YP_TEMP     : 2.267
#LIVETIME    : 8.56364, 8.55861   seconds (separate by commas if more than one detector)
#REALTIME    : 10, 10.0   seconds (separate by commas if more than one detector)
#SPECTRUM    : start of spectrum data
0, 0
0, 0
0, 0
0, 0
0, 0
0, 0
0, 0
0, 0
0, 1
1, 1
3, 0
35, 54
57, 54
2, 5
5, 5
100, 101
432, 425
100, 90
5, 11
0, 1
1, 2
3, 4
3, 2
8, 7
43, 47
41, 30
20, 17
10, 7
1, 3
1, 3
3, 1
2, 1
1, 5
9, 12
13, 14
6, 7
6, 2
0, 4
7, 14
7, 4
5, 2
5, 6
11, 14
13, 8
11, 5
5, 39
5, 41
8, 13
8, 10
21, 20
14, 16
10, 10
19, 18
44, 45
56, 62
12, 24
35, 41
496, 581
2065, 2483
1528, 1434
196, 154
12, 23
20, 20
94, 116
294, 351
228, 216
30, 28
6, 21
12, 38
5, 39
4, 12
9, 10
9, 1
4, 3
1, 7
11, 4
4, 3
3, 3
3, 5
8, 5
7, 4
7, 7
3, 1
3, 6
4, 6
0, 1
3, 6
2, 4
1, 8
6, 7
4, 8
0, 7
5, 4
5, 11
1, 8
3, 4
2, 8
3, 0
0, 3
4, 1
1, 2
4, 1
4, 3
5, 1
1, 4
1, 3
2, 2
4, 0
0, 1
3, 1
3, 5
3, 0
3, 1
5, 0
4, 2
3, 2
6, 1
6, 1
1, 0
2, 1
3, 3
2, 2
6, 3
1, 1
2, 0
1, 2
0, 1
0, 2
0, 3
1, 1
0, 0
1, 0
1, 0
0, 0
0, 0
1, 0
0, 0
0, 1
0, 2
1, 0
0, 1
2, 0
0, 0
0, 0
0, 0
1, 1
0, 0
1, 0
0, 2
1, 0
0, 2
1, 0
0, 0
0, 0
0, 0
0, 1
1, 0
0, 0
0, 0
1, 0
0, 2
1, 0
0, 0
0, 0
0, 1
1, 0
0, 0
0, 0
1, 1
0, 0
0, 1
0, 1
0, 0
0, 0
1, 0
0, 0
0, 1
0, 0
0, 0
0, 0
0, 0
1, 0
0, 0
1, 0
0, 0
0, 0
0, 0
0, 0
0, 0
0, 0
0, 0
0, 0
0, 0
0, 0
0, 0
0, 0
0, 0
0, 0
0, 1
0, 0
0, 0
0, 0
0, 0
0, 0
0, 0
0, 0
0, 0
1, 0
0, 0
0, 0
0, 0
0, 0
0, 0
1, 0
0, 0
0, 1
0, 0
0, 0
0, 0
0, 0
0, 0
0, 0
0, 0
0, 0
0, 0
0, 0
0, 0
1, 0
0, 0
0, 0
0, 0
0, 0
0, 0
0, 0
0, 0
0, 0
0, 0
0, 0
0, 0
0, 0
0, 0
0, 0
0, 0
0, 0
0, 0
0, 0
0, 0
0, 0
0, 0
1, 0
0, 0
0, 0
0, 0
0, 0
0, 0
0, 0
0, 0
0, 0
0, 0
0, 0
0, 0
0, 0
0, 0
0, 0
0, 0
0, 0
0, 0
0, 0
0, 0
0, 0
0, 0
0, 0
0, 0
0, 0
0, 0
0, 0
0, 0
0, 0
0, 0
0, 0
0, 0
0, 0
0, 0
0, 0
0, 0
0, 0
0, 0
0, 0
0, 0
0, 0
0, 0
0, 0
0, 0
0, 0
#ENDOFDATA     end of spectrum data

File: ps__0852shot_2234.msa
#FORMAT      : EMSA/MAS spectral data file
#VERSION     : TC202v2.0 PIXL
#TITLE       : N/A
#DATE        :       Date in the format DD-MMM-YYYY, for example 07-JUL-2010
#TIME        :             The time of day at which the spectrum was recorded, in 24-hour format
#OWNER       : PIXL Flight Model       (PIXL will use this to indicate which instrument took the data.)
#NPOINTS     : 4096     Number of data points in the spectrum (This can be zero for configuration only files)
#NCOLUMNS    : 2     Number of data columns in the spectrum (This can be zero for configuration only files)
#XUNITS      : eV
#YUNITS      : COUNTS
#DATATYPE    : YY
#XPERCHAN    : 7.862, 7.881   eV per channel (separate by commas if more than one detector)
#OFFSET      : 18.5, -22.4         eV of first channel  (separate by commas if more than one detector
#SIGNALTYPE  : XRF
#YP_TEMP     : 2.332
#LIVETIME    : 8.53912, 8.54308   seconds (separate by commas if more than one detector)
#REALTIME    : 10, 10.0   seconds (separate by commas if more than one detector)
#SPECTRUM    : start of spectrum data
0, 0
0, 0
0, 0
0, 0
0, 0
0, 0
0, 0
0, 0
0, 1
1, 0
1, 4
42, 49
64, 59
4, 7
10, 7
89, 101
483, 472
120, 86
5, 6
3, 0
1, 1
4, 5
0, 0
9, 6
31, 41
32, 30
25, 22
15, 10
3, 7
5, 2
2, 1
2, 3
0, 3
12, 10
12, 17
6, 3
5, 5
5, 5
2, 2
5, 2
7, 5
7, 8
18, 19
14, 17
1, 21
3, 50
3, 87
4, 12
8, 15
10, 11
16, 16
6, 8
11, 11
44, 34
41, 70
22, 17
21, 36
459, 661
2095, 2491
1539, 1442
187, 148
18, 18
17, 19
91, 103
321, 344
229, 176
31, 26
3, 25
11, 47
7, 79
5, 20
7, 3
6, 3
2, 6
4, 7
6, 5
1, 6
4, 2
2, 5
2, 4
5, 1
9, 7
1, 2
2, 9
3, 5
4, 6
3, 8
4, 4
6, 3
0, 2
2, 4
5, 3
1, 6
3, 5
3, 3
0, 4
0, 1
3, 3
4, 3
2, 2
1, 4
4, 3
1, 1
2, 0
2, 3
1, 1
3, 1
2, 2
1, 3
0, 1
1, 0
1, 3
2, 1
5, 1
0, 1
3, 2
4, 9
2, 1
3, 3
2, 1
4, 1
4, 2
2, 3
2, 0
1, 1
0, 1
0, 0
1, 0
3, 1
0, 2
1, 0
0, 1
0, 0
0, 1
0, 1
2, 1
0, 1
2, 0
3, 0
0, 0
0, 0
1, 1
0, 0
1, 0
1, 1
1, 0
0, 0
0, 0
2, 0
0, 0
0, 1
0, 0
0, 0
0, 1
0, 0
0, 0
0, 2
0, 0
0, 1
1, 0
0, 1
1, 0
0, 0
0, 0
0, 0
0, 0
0, 1
0, 0
0, 0
0, 0
0, 1
0, 0
0, 0
0, 1
0, 0
0, 1
0, 0
0, 1
0, 0
0, 0
0, 0
1, 1
0, 0
1, 0
1, 0
1, 1
0, 0
0, 0
0, 0
0, 0
0, 0
0, 0
0, 1
0, 0
0, 0
0, 0
1, 0
0, 0
0, 0
0, 0
0, 0
0, 0
0, 0
0, 0
0, 0
0, 0
0, 0
0, 0
0, 0
0, 0
0, 0
0, 0
0, 0
0, 0
0, 0
0, 0
0, 0
0, 0
0, 0
0, 0
0, 0
0, 0
0, 0
0, 0
0, 0
0, 0
0, 0
0, 0
0, 0
0, 0
0, 0
0, 0
0, 0
0, 0
0, 0
0, 0
0, 0
0, 0
0, 0
0, 0
0, 0
0, 0
0, 0
0, 0
0, 0
0, 0
0, 0
0, 0
0, 0
0, 0
0, 0
0, 0
0, 0
0, 0
0, 0
0, 0
0, 0
0, 0
0, 0
0, 0
0, 0
0, 0
0, 0
0, 0
0, 0
0, 0
0, 0
0, 0
0, 0
0, 0
0, 0
0, 0
0, 0
0, 0
0, 0
0, 0
0, 0
0, 0
0, 0
0, 0
0, 0
0, 0
0, 0
0, 0
0, 0
0, 0
0, 0
0, 0
0, 0
0, 0
0, 0
0, 0
0, 0
0, 0
#ENDOFDATA     end of spectrum data

File: ps__0852shot_2235.msa
#FORMAT      : EMSA/MAS spectral data file
#VERSION     : TC202v2.0 PIXL
#TITLE       : N/A
#DATE        :       Date in the format DD-MMM-YYYY, for example 07-JUL-2010
#TIME        :             The time of day at which the spectrum was recorded, in 24-hour format
#OWNER       : PIXL Flight Model       (PIXL will use this to indicate which instrument took the data.)
#NPOINTS     : 4096     Number of data points in the spectrum (This can be zero for configuration only files)
#NCOLUMNS    : 2     Number of data columns in the spectrum (This can be zero for configuration only files)
#XUNITS      : eV
#YUNITS      : COUNTS
#DATATYPE    : YY
#XPERCHAN    : 7.862, 7.881   eV per channel (separate by commas if more than one detector)
#OFFSET      : 18.5, -22.4         eV of first channel  (separate by commas if more than one detector
#SIGNALTYPE  : XRF
#YP_TEMP     : 2.428
#LIVETIME    : 8.51871, 8.53274   seconds (separate by commas if more than one detector)
#REALTIME    : 10, 10.0   seconds (separate by commas if more than one detector)
#SPECTRUM    : start of spectrum data
0, 0
0, 0
0, 0
0, 0
0, 0
0, 0
0, 0
0, 0
0, 2
1, 0
3, 4
45, 47
64, 47
5, 9
9, 5
84, 102
438, 395
90, 92
2, 4
4, 2
1, 1
3, 7
2, 7
11, 8
29, 27
55, 39
39, 14
12, 10
4, 2
2, 3
4, 7
6, 3
4, 3
15, 20
23, 17
9, 4
5, 2
2, 7
3, 4
13, 3
15, 6
20, 9
9, 9
14, 9
4, 13
4, 35
4, 40
5, 11
3, 12
20, 19
12, 8
11, 12
25, 9
54, 30
66, 57
16, 15
27, 39
472, 551
2289, 2327
1645, 1334
189, 147
17, 15
21, 22
87, 131
330, 347
243, 208
34, 29
6, 17
14, 37
14, 41
8, 12
13, 3
2, 3
8, 4
6, 5
7, 7
5, 7
5, 5
11, 4
21, 8
8, 4
4, 6
6, 4
2, 5
2, 2
6, 3
1, 10
4, 22
9, 9
4, 2
8, 5
4, 2
3, 2
5, 1
3, 6
2, 2
3, 0
0, 4
5, 2
7, 1
5, 3
4, 1
5, 2
2, 4
3, 2
6, 0
1, 2
2, 3
0, 7
2, 4
2, 3
3, 4
3, 4
1, 4
1, 0
3, 4
7, 5
5, 3
3, 2
1, 1
2, 5
7, 0
3, 3
3, 1
3, 1
0, 2
0, 2
2, 2
0, 3
1, 2
3, 3
0, 1
3, 0
1, 0
0, 0
0, 1
2, 2
1, 0
0, 1
0, 1
1, 0
0, 0
0, 0
1, 0
1, 1
0, 0
0, 1
0, 0
0, 0
2, 1
0, 0
0, 0
1, 0
0, 0
0, 1
0, 1
1, 1
0, 0
0, 0
0, 0
2, 0
1, 0
0, 0
0, 0
0, 0
1, 0
0, 0
0, 0
0, 0
0, 1
0, 0
0, 1
0, 0
0, 0
0, 0
0, 0
0, 0
0, 0
0, 0
0, 0
0, 0
0, 0
0, 0
0, 1
0, 0
0, 0
0, 0
0, 0
0, 0
0, 1
0, 0
0, 0
0, 0
0, 0
0, 0
0, 0
0, 0
0, 0
0, 0
0, 0
0, 0
0, 0
0, 0
0, 0
0, 0
0, 0
0, 0
0, 0
0, 0
0, 0
0, 0
0, 0
0, 0
0, 0
0, 0
0, 0
0, 0
0, 0
0, 0
0, 0
0, 0
0, 0
0, 0
0, 0
0, 0
0, 0
0, 0
0, 0
0, 0
0, 0
0, 0
0, 0
0, 0
0, 0
0, 0
0, 0
0, 0
0, 0
0, 0
0, 0
0, 0
0, 0
0, 0
0, 0
0, 0
0, 0
0, 0
0, 0
0, 0
0, 0
0, 0
0, 0
0, 0
0, 0
0, 0
0, 0
0, 0
0, 0
0, 0
0, 0
0, 0
0, 0
0, 0
0, 0
0, 0
0, 0
0, 0
0, 0
0, 0
0, 0
0, 0
0, 0
0, 0
0, 0
0, 0
0, 0
0, 0
0, 0
0, 0
0, 0
0, 0
0, 0
0, 0
0, 0
0, 0
0, 0
0, 0
0, 0
0, 0
0, 0
0, 0
0, 0
0, 0
0, 0
#ENDOFDATA     end of spectrum data

File: ps__0852shot_2236.msa
#FORMAT      : EMSA/MAS spectral data file
#VERSION     : TC202v2.0 PIXL
#TITLE       : N/A
#DATE        :       Date in the format DD-MMM-YYYY, for example 07-JUL-2010
#TIME        :             The time of day at which the spectrum was recorded, in 24-hour format
#OWNER       : PIXL Flight Model       (PIXL will use this to indicate which instrument took the data.)
#NPOINTS     : 4096     Number of data points in the spectrum (This can be zero for configuration only files)
#NCOLUMNS    : 2     Number of data columns in the spectrum (This can be zero for configuration only files)
#XUNITS      : eV
#YUNITS      : COUNTS
#DATATYPE    : YY
#XPERCHAN    : 7.862, 7.881   eV per channel (separate by commas if more than one detector)
#OFFSET      : 18.5, -22.4         eV of first channel  (separate by commas if more than one detector
#SIGNALTYPE  : XRF
#YP_TEMP     : 2.332
#LIVETIME    : 8.55082, 8.54141   seconds (separate by commas if more than one detector)
#REALTIME    : 10, 10.0   seconds (separate by commas if more than one detector)
#SPECTRUM    : start of spectrum data
0, 0
0, 0
0, 0
0, 0
0, 0
0, 0
0, 0
0, 1
1, 0
4, 1
3, 1
50, 34
62, 59
11, 7
9, 4
113, 76
477, 373
145, 93
7, 4
1, 1
2, 4
13, 11
10, 2
7, 4
36, 35
44, 26
45, 15
24, 13
4, 3
1, 2
4, 8
2, 6
6, 2
21, 19
29, 21
7, 1
4, 2
6, 6
14, 5
48, 4
60, 1
32, 2
14, 13
13, 17
5, 18
3, 9
2, 17
7, 9
6, 11
13, 5
21, 14
46, 7
80, 11
112, 36
99, 57
29, 19
41, 39
510, 575
2284, 2085
1750, 1274
196, 132
26, 11
15, 27
118, 127
353, 337
257, 184
35, 20
11, 6
19, 8
16, 8
1, 11
1, 4
0, 4
5, 5
9, 7
12, 7
12, 8
9, 18
12, 14
24, 6
9, 15
8, 12
5, 10
2, 5
3, 4
2, 4
2, 4
2, 2
2, 3
4, 4
6, 7
3, 5
9, 5
12, 22
4, 11
2, 3
2, 3
4, 0
2, 4
1, 4
1, 4
1, 2
1, 0
3, 4
5, 1
2, 2
2, 2
1, 1
1, 3
2, 1
1, 4
2, 1
1, 3
4, 2
5, 0
2, 2
3, 2
5, 0
4, 1
4, 1
0, 3
2, 0
3, 2
0, 1
1, 1
0, 1
1, 4
1, 2
0, 2
0, 0
1, 1
0, 2
1, 0
1, 0
1, 0
0, 0
1, 0
0, 0
3, 1
0, 0
0, 3
1, 0
0, 0
0, 0
0, 0
0, 2
0, 0
0, 0
1, 0
0, 1
0, 1
0, 0
1, 1
1, 1
0, 0
0, 0
0, 0
0, 0
0, 0
1, 0
0, 0
0, 0
0, 0
0, 0
0, 0
1, 0
0, 1
0, 0
0, 0
0, 0
0, 0
0, 0
0, 0
0, 0
0, 0
0, 0
2, 0
1, 0
0, 1
0, 0
0, 0
0, 0
1, 0
0, 0
0, 1
0, 0
0, 0
0, 0
0, 0
0, 0
0, 0
0, 0
0, 0
0, 0
0, 0
0, 0
0, 0
1, 0
0, 0
0, 0
0, 0
0, 0
0, 0
1, 0
0, 0
0, 0
0, 0
0, 0
0, 0
0, 0
0, 0
0, 0
0, 0
0, 0
0, 0
0, 0
0, 0
0, 0
0, 1
0, 0
0, 0
0, 0
0, 0
0, 0
0, 0
0, 0
0, 0
0, 0
0, 0
0, 0
0, 0
0, 0
0, 0
0, 0
0, 0
0, 0
0, 0
0, 0
0, 0
0, 0
0, 0
0, 0
0, 0
0, 0
0, 0
0, 0
0, 0
0, 0
0, 0
0, 0
0, 0
0, 0
0, 0
0, 0
0, 0
0, 0
0, 0
0, 0
0, 0
0, 0
0, 0
0, 0
0, 0
0, 0
0, 0
0, 0
0, 0
0, 0
0, 0
0, 0
0, 0
0, 0
0, 0
0, 0
0, 0
0, 0
0, 0
0, 0
0, 0
0, 0
0, 0
0, 0
0, 0
0, 0
0, 0
0, 0
0, 0
0, 0
0, 0
0, 0
0, 0
0, 0
0, 0
0, 0
#ENDOFDATA     end of spectrum data