Folder: data-repository/host_upload/06-09-2024/ps_0852/dump3 (part 16)

File: ps__0852shot_2137.msa
#FORMAT      : EMSA/MAS spectral data file
#VERSION     : TC202v2.0 PIXL
#TITLE       : N/A
#DATE        :       Date in the format DD-MMM-YYYY, for example 07-JUL-2010
#TIME        :             The time of day at which the spectrum was recorded, in 24-hour format
#OWNER       : PIXL Flight Model       (PIXL will use this to indicate which instrument took the data.)
#NPOINTS     : 4096     Number of data points in the spectrum (This can be zero for configuration only files)
#NCOLUMNS    : 2     Number of data columns in the spectrum (This can be zero for configuration only files)
#XUNITS      : eV
#YUNITS      : COUNTS
#DATATYPE    : YY
#XPERCHAN    : 7.862, 7.881   eV per channel (separate by commas if more than one detector)
#OFFSET      : 18.5, -22.4         eV of first channel  (separate by commas if more than one detector
#SIGNALTYPE  : XRF
#YP_TEMP     : 2.332
#LIVETIME    : 8.58985, 8.53961   seconds (separate by commas if more than one detector)
#REALTIME    : 10, 10.0   seconds (separate by commas if more than one detector)
#SPECTRUM    : start of spectrum data
0, 0
0, 0
0, 0
0, 0
0, 0
0, 0
0, 0
0, 0
0, 0
5, 0
1, 0
46, 40
67, 68
5, 8
3, 10
82, 93
423, 411
108, 99
7, 4
2, 1
3, 1
5, 7
8, 8
11, 6
73, 52
99, 36
132, 24
139, 12
17, 6
3, 4
1, 2
0, 4
0, 17
13, 37
12, 13
2, 5
5, 3
8, 6
2, 8
10, 7
10, 4
37, 14
82, 11
46, 13
10, 7
8, 7
4, 6
3, 7
8, 9
16, 18
10, 11
11, 7
32, 15
82, 51
89, 83
31, 95
35, 92
441, 595
2179, 2252
1632, 1409
199, 135
12, 14
18, 26
102, 131
348, 338
259, 202
31, 24
8, 11
13, 19
8, 6
5, 4
3, 4
3, 6
7, 7
6, 2
4, 8
1, 4
4, 4
3, 5
9, 3
2, 3
4, 7
2, 4
12, 6
15, 4
13, 5
11, 14
3, 7
3, 5
6, 3
5, 3
6, 1
5, 2
5, 0
2, 0
3, 3
3, 2
3, 2
2, 4
2, 3
0, 2
3, 4
1, 3
0, 1
1, 1
4, 2
2, 7
0, 3
0, 4
3, 4
1, 7
2, 3
2, 7
2, 2
2, 0
1, 3
4, 7
4, 2
0, 0
1, 1
1, 0
0, 2
5, 2
2, 2
2, 3
1, 0
2, 0
0, 3
0, 0
0, 0
3, 0
1, 1
4, 1
2, 0
0, 0
0, 1
3, 1
1, 0
0, 0
0, 0
0, 0
0, 1
1, 2
1, 0
0, 0
1, 0
1, 0
0, 0
0, 1
0, 1
0, 0
0, 0
0, 0
0, 1
0, 0
0, 1
0, 0
2, 0
0, 0
0, 0
0, 0
0, 0
0, 0
0, 0
0, 0
0, 2
0, 0
0, 1
0, 0
0, 0
0, 0
0, 1
0, 0
0, 1
1, 0
0, 0
0, 0
0, 0
0, 0
0, 0
1, 1
0, 0
0, 0
1, 0
0, 0
0, 0
1, 0
0, 0
0, 0
0, 0
1, 0
0, 0
0, 0
0, 0
0, 0
0, 0
0, 0
0, 0
0, 0
0, 0
0, 0
0, 0
0, 0
0, 0
0, 0
0, 0
0, 0
0, 0
0, 0
0, 0
0, 0
0, 0
0, 0
0, 0
0, 0
0, 0
0, 0
0, 0
0, 0
0, 0
0, 0
0, 0
0, 0
0, 0
0, 0
0, 0
0, 0
0, 0
0, 0
0, 0
0, 0
0, 0
0, 0
0, 0
0, 0
0, 0
0, 0
0, 0
0, 0
0, 0
0, 0
0, 0
0, 0
0, 0
0, 0
0, 0
0, 0
0, 0
0, 0
0, 0
0, 0
0, 0
0, 0
0, 0
0, 0
0, 0
0, 0
0, 0
0, 0
0, 0
0, 0
0, 0
0, 0
0, 0
0, 0
0, 0
0, 0
0, 0
0, 0
0, 0
0, 0
0, 0
0, 0
0, 0
0, 0
0, 0
0, 0
0, 0
0, 0
0, 0
0, 0
0, 0
0, 0
0, 0
0, 0
0, 0
0, 0
0, 0
0, 0
0, 0
0, 0
0, 0
0, 0
0, 0
#ENDOFDATA     end of spectrum data

File: ps__0852shot_2138.msa
#FORMAT      : EMSA/MAS spectral data file
#VERSION     : TC202v2.0 PIXL
#TITLE       : N/A
#DATE        :       Date in the format DD-MMM-YYYY, for example 07-JUL-2010
#TIME        :             The time of day at which the spectrum was recorded, in 24-hour format
#OWNER       : PIXL Flight Model       (PIXL will use this to indicate which instrument took the data.)
#NPOINTS     : 4096     Number of data points in the spectrum (This can be zero for configuration only files)
#NCOLUMNS    : 2     Number of data columns in the spectrum (This can be zero for configuration only files)
#XUNITS      : eV
#YUNITS      : COUNTS
#DATATYPE    : YY
#XPERCHAN    : 7.862, 7.881   eV per channel (separate by commas if more than one detector)
#OFFSET      : 18.5, -22.4         eV of first channel  (separate by commas if more than one detector
#SIGNALTYPE  : XRF
#YP_TEMP     : 2.235
#LIVETIME    : 8.57828, 8.57536   seconds (separate by commas if more than one detector)
#REALTIME    : 10, 10.0   seconds (separate by commas if more than one detector)
#SPECTRUM    : start of spectrum data
0, 0
0, 0
0, 0
0, 0
0, 0
0, 0
0, 0
1, 0
5, 0
8, 1
2, 1
39, 37
58, 63
5, 5
4, 4
85, 90
412, 401
109, 84
5, 5
2, 2
3, 2
10, 12
11, 7
38, 8
456, 41
703, 41
154, 13
66, 14
15, 5
3, 1
1, 1
2, 1
2, 5
13, 14
14, 13
2, 8
15, 15
9, 17
4, 7
2, 6
6, 3
11, 12
32, 9
25, 12
5, 7
8, 6
6, 2
11, 5
6, 13
14, 14
18, 10
13, 6
14, 10
40, 40
77, 73
31, 35
37, 36
482, 531
2257, 2264
1661, 1373
219, 146
35, 19
22, 10
109, 143
324, 359
234, 177
36, 20
9, 12
15, 12
9, 5
4, 3
4, 2
3, 6
2, 6
1, 11
7, 2
3, 4
7, 5
3, 6
2, 7
6, 3
5, 3
3, 8
3, 7
11, 4
3, 5
4, 5
1, 6
2, 3
2, 3
5, 4
8, 3
7, 2
3, 1
0, 4
2, 2
4, 5
3, 3
4, 3
5, 2
3, 2
1, 1
2, 1
2, 2
3, 5
6, 2
2, 5
2, 3
3, 2
1, 8
2, 1
4, 1
1, 2
2, 3
1, 0
1, 4
4, 3
4, 3
1, 0
2, 0
2, 1
1, 1
3, 5
2, 3
2, 2
1, 2
4, 2
2, 0
0, 0
0, 0
1, 0
1, 1
0, 2
1, 0
0, 0
1, 1
0, 1
0, 1
1, 2
1, 1
1, 2
1, 0
0, 0
0, 1
0, 1
0, 0
1, 0
1, 1
1, 2
0, 0
0, 1
0, 0
0, 0
0, 0
1, 0
0, 0
0, 0
0, 0
0, 1
0, 0
0, 0
0, 0
0, 0
0, 0
1, 1
0, 0
0, 0
0, 0
0, 0
0, 0
0, 0
1, 1
1, 0
0, 0
0, 0
0, 0
0, 0
0, 0
0, 0
0, 1
0, 0
0, 0
1, 1
0, 0
0, 0
0, 0
0, 0
0, 0
1, 0
0, 0
0, 0
0, 0
0, 0
0, 0
0, 0
0, 0
0, 0
0, 0
0, 0
0, 0
0, 0
0, 0
0, 0
0, 0
0, 0
0, 0
0, 0
0, 0
0, 0
0, 0
0, 0
0, 0
0, 0
0, 0
0, 0
0, 0
0, 0
0, 0
0, 0
0, 0
0, 0
0, 0
0, 0
0, 0
0, 0
0, 0
0, 0
0, 0
0, 0
0, 0
0, 0
0, 0
0, 0
0, 0
0, 0
0, 0
0, 0
0, 0
0, 0
0, 0
0, 0
0, 0
0, 0
0, 0
0, 0
0, 0
0, 0
0, 0
1, 0
0, 0
0, 0
0, 0
0, 0
0, 0
0, 0
0, 0
0, 0
0, 0
0, 0
0, 0
0, 0
0, 0
0, 0
0, 0
0, 0
0, 0
0, 0
0, 0
0, 0
0, 0
0, 0
0, 0
0, 0
0, 0
0, 0
0, 0
0, 0
0, 0
0, 0
0, 0
0, 0
0, 0
0, 0
0, 0
0, 0
0, 0
0, 0
0, 0
0, 0
0, 0
0, 0
0, 0
0, 0
0, 0
#ENDOFDATA     end of spectrum data

File: ps__0852shot_2139.msa
#FORMAT      : EMSA/MAS spectral data file
#VERSION     : TC202v2.0 PIXL
#TITLE       : N/A
#DATE        :       Date in the format DD-MMM-YYYY, for example 07-JUL-2010
#TIME        :             The time of day at which the spectrum was recorded, in 24-hour format
#OWNER       : PIXL Flight Model       (PIXL will use this to indicate which instrument took the data.)
#NPOINTS     : 4096     Number of data points in the spectrum (This can be zero for configuration only files)
#NCOLUMNS    : 2     Number of data columns in the spectrum (This can be zero for configuration only files)
#XUNITS      : eV
#YUNITS      : COUNTS
#DATATYPE    : YY
#XPERCHAN    : 7.862, 7.881   eV per channel (separate by commas if more than one detector)
#OFFSET      : 18.5, -22.4         eV of first channel  (separate by commas if more than one detector
#SIGNALTYPE  : XRF
#YP_TEMP     : 2.267
#LIVETIME    : 8.5701, 8.36664   seconds (separate by commas if more than one detector)
#REALTIME    : 10, 10.0   seconds (separate by commas if more than one detector)
#SPECTRUM    : start of spectrum data
0, 0
0, 0
0, 0
0, 0
0, 0
0, 0
0, 0
0, 1
1, 1
23, 3
9, 1
31, 44
54, 47
6, 5
8, 3
84, 91
400, 360
81, 85
16, 12
7, 8
12, 13
77, 72
23, 24
41, 16
560, 62
815, 64
106, 23
22, 16
7, 6
2, 4
3, 4
3, 0
7, 4
36, 46
90, 70
12, 11
9, 25
10, 31
7, 12
2, 9
5, 6
19, 11
13, 7
20, 9
16, 10
12, 10
8, 13
5, 6
8, 16
18, 15
19, 6
6, 6
8, 16
41, 62
54, 54
17, 24
35, 34
470, 561
2242, 2192
1572, 1328
205, 153
20, 20
27, 36
107, 135
344, 331
223, 178
33, 26
7, 5
14, 18
5, 11
6, 6
1, 8
4, 8
2, 15
3, 8
6, 4
3, 2
3, 11
2, 3
2, 3
6, 2
3, 4
5, 5
4, 7
1, 5
7, 5
3, 6
4, 4
6, 5
1, 3
1, 9
4, 6
3, 5
0, 1
3, 4
4, 5
3, 0
1, 3
8, 4
1, 1
4, 0
2, 2
1, 2
0, 2
2, 2
4, 3
2, 7
2, 2
5, 4
4, 2
3, 1
1, 1
3, 0
0, 1
1, 2
1, 0
3, 5
3, 3
3, 0
0, 4
0, 1
4, 2
3, 6
1, 5
1, 0
1, 1
2, 2
0, 0
2, 0
0, 0
2, 0
1, 0
2, 2
1, 1
2, 0
1, 0
2, 0
0, 0
2, 1
1, 0
0, 0
0, 0
0, 0
1, 2
0, 1
1, 0
1, 1
1, 1
1, 2
0, 0
0, 0
2, 0
0, 1
1, 0
0, 0
1, 1
0, 2
0, 0
0, 0
0, 0
0, 0
0, 1
0, 0
1, 0
0, 0
0, 0
1, 2
0, 0
0, 0
0, 0
0, 0
0, 0
1, 0
0, 0
0, 0
0, 0
0, 0
0, 1
1, 0
1, 0
0, 0
0, 2
0, 0
0, 0
0, 0
0, 0
0, 0
0, 0
0, 0
0, 0
0, 0
0, 0
0, 0
0, 0
0, 0
0, 0
0, 0
0, 0
0, 0
0, 1
0, 0
0, 0
0, 0
0, 0
0, 0
0, 0
0, 0
0, 0
0, 0
0, 0
0, 0
0, 0
0, 0
0, 0
0, 0
0, 0
0, 0
0, 0
0, 0
0, 0
0, 0
0, 0
0, 0
0, 0
0, 0
0, 0
0, 0
0, 0
0, 0
0, 0
0, 0
0, 0
0, 0
0, 0
0, 0
0, 0
0, 0
0, 0
0, 0
0, 0
0, 0
0, 0
0, 0
0, 0
0, 0
0, 0
0, 0
0, 0
0, 0
0, 0
0, 0
0, 0
0, 0
0, 0
0, 0
0, 0
0, 0
0, 0
0, 0
0, 0
0, 0
0, 0
0, 0
0, 0
0, 0
0, 0
0, 0
0, 0
0, 0
0, 0
0, 0
0, 0
0, 0
0, 0
0, 0
0, 0
0, 0
0, 0
0, 0
0, 0
0, 0
0, 0
0, 0
0, 0
0, 0
0, 0
0, 0
0, 0
0, 0
0, 0
0, 0
0, 0
0, 0
0, 0
#ENDOFDATA     end of spectrum data

File: ps__0852shot_2140.msa
#FORMAT      : EMSA/MAS spectral data file
#VERSION     : TC202v2.0 PIXL
#TITLE       : N/A
#DATE        :       Date in the format DD-MMM-YYYY, for example 07-JUL-2010
#TIME        :             The time of day at which the spectrum was recorded, in 24-hour format
#OWNER       : PIXL Flight Model       (PIXL will use this to indicate which instrument took the data.)
#NPOINTS     : 4096     Number of data points in the spectrum (This can be zero for configuration only files)
#NCOLUMNS    : 2     Number of data columns in the spectrum (This can be zero for configuration only files)
#XUNITS      : eV
#YUNITS      : COUNTS
#DATATYPE    : YY
#XPERCHAN    : 7.862, 7.881   eV per channel (separate by commas if more than one detector)
#OFFSET      : 18.5, -22.4         eV of first channel  (separate by commas if more than one detector
#SIGNALTYPE  : XRF
#YP_TEMP     : 2.524
#LIVETIME    : 8.56139, 8.5766   seconds (separate by commas if more than one detector)
#REALTIME    : 10, 10.0   seconds (separate by commas if more than one detector)
#SPECTRUM    : start of spectrum data
0, 0
0, 0
0, 0
0, 0
0, 0
0, 0
0, 0
0, 0
0, 2
2, 5
2, 2
48, 23
49, 29
9, 2
10, 15
76, 73
376, 296
89, 52
14, 7
5, 7
33, 28
143, 146
69, 60
20, 18
149, 83
190, 94
41, 33
20, 13
6, 10
3, 5
8, 4
6, 5
10, 7
86, 102
138, 144
26, 19
22, 21
19, 18
11, 7
4, 4
3, 5
14, 15
15, 16
35, 13
50, 3
18, 6
10, 18
7, 12
9, 4
22, 11
11, 11
3, 6
8, 12
40, 49
72, 61
28, 22
29, 38
464, 563
2329, 2107
1731, 1255
223, 131
14, 38
25, 34
121, 113
350, 360
241, 158
40, 25
10, 7
15, 10
4, 8
2, 2
3, 2
3, 4
6, 5
3, 5
5, 6
7, 6
1, 4
6, 1
7, 4
13, 2
11, 6
4, 0
7, 1
4, 5
4, 3
1, 4
7, 1
8, 2
8, 10
2, 22
1, 8
3, 8
1, 6
4, 3
2, 1
0, 3
1, 1
4, 1
4, 1
2, 1
3, 2
2, 2
6, 2
2, 2
1, 4
3, 3
7, 1
3, 1
3, 0
2, 2
1, 2
3, 1
1, 2
1, 2
3, 2
4, 3
3, 2
2, 1
2, 1
3, 0
1, 2
1, 1
2, 2
0, 1
2, 0
1, 1
2, 0
0, 0
0, 1
1, 1
2, 2
0, 2
1, 2
0, 1
1, 1
1, 0
1, 1
2, 2
0, 0
0, 0
0, 0
1, 0
0, 0
1, 1
0, 0
0, 1
0, 4
0, 1
0, 0
0, 1
1, 0
1, 0
0, 0
0, 0
0, 1
1, 0
0, 1
0, 0
1, 1
0, 0
0, 0
0, 0
0, 1
1, 0
0, 0
1, 0
1, 0
0, 0
0, 0
0, 0
0, 2
0, 1
1, 0
0, 1
0, 1
0, 0
0, 0
0, 0
0, 1
0, 0
0, 0
1, 0
1, 1
0, 1
0, 0
0, 0
0, 0
0, 0
0, 0
0, 0
0, 1
0, 0
0, 0
0, 1
0, 0
1, 0
0, 0
0, 0
0, 0
0, 0
0, 0
1, 0
0, 0
0, 0
0, 0
0, 0
0, 0
0, 0
0, 0
0, 0
0, 0
0, 0
0, 0
0, 0
0, 0
0, 0
0, 0
0, 0
0, 0
0, 0
0, 0
0, 0
0, 0
0, 0
0, 0
0, 0
0, 0
0, 0
0, 0
0, 0
0, 0
0, 0
0, 0
0, 0
0, 0
0, 0
0, 0
0, 0
0, 0
0, 0
0, 0
0, 0
0, 0
0, 0
0, 0
0, 0
0, 0
0, 0
0, 0
0, 0
0, 0
0, 0
0, 0
0, 0
0, 0
0, 0
0, 0
0, 0
0, 0
0, 0
0, 0
0, 0
0, 0
0, 0
0, 0
0, 0
0, 0
0, 0
0, 0
0, 0
0, 0
0, 0
0, 0
0, 0
0, 0
0, 0
0, 0
0, 0
0, 0
0, 0
0, 0
0, 0
0, 0
0, 0
0, 0
0, 0
0, 0
0, 0
0, 0
0, 0
0, 0
0, 0
0, 0
#ENDOFDATA     end of spectrum data

File: ps__0852shot_2141.msa
#FORMAT      : EMSA/MAS spectral data file
#VERSION     : TC202v2.0 PIXL
#TITLE       : N/A
#DATE        :       Date in the format DD-MMM-YYYY, for example 07-JUL-2010
#TIME        :             The time of day at which the spectrum was recorded, in 24-hour format
#OWNER       : PIXL Flight Model       (PIXL will use this to indicate which instrument took the data.)
#NPOINTS     : 4096     Number of data points in the spectrum (This can be zero for configuration only files)
#NCOLUMNS    : 2     Number of data columns in the spectrum (This can be zero for configuration only files)
#XUNITS      : eV
#YUNITS      : COUNTS
#DATATYPE    : YY
#XPERCHAN    : 7.862, 7.881   eV per channel (separate by commas if more than one detector)
#OFFSET      : 18.5, -22.4         eV of first channel  (separate by commas if more than one detector
#SIGNALTYPE  : XRF
#YP_TEMP     : 2.684
#LIVETIME    : 8.55318, 8.57341   seconds (separate by commas if more than one detector)
#REALTIME    : 10, 10.0   seconds (separate by commas if more than one detector)
#SPECTRUM    : start of spectrum data
0, 0
0, 0
0, 0
0, 0
0, 0
0, 0
0, 0
0, 1
4, 0
3, 3
3, 3
33, 34
53, 42
6, 5
7, 8
73, 70
419, 311
118, 82
6, 7
5, 2
14, 11
65, 60
26, 24
26, 22
75, 63
68, 82
32, 21
22, 13
12, 7
4, 6
12, 3
3, 2
14, 7
136, 114
245, 166
31, 27
26, 18
39, 21
14, 15
16, 6
5, 7
14, 16
18, 6
46, 6
89, 6
51, 8
13, 21
10, 21
13, 23
39, 39
29, 23
11, 2
11, 8
40, 36
81, 51
21, 17
29, 48
485, 449
2085, 1809
1617, 1097
194, 109
25, 20
31, 20
112, 87
326, 274
221, 151
28, 29
8, 4
18, 16
9, 11
6, 3
2, 6
4, 4
20, 6
30, 7
10, 4
6, 9
5, 4
5, 2
5, 5
4, 2
2, 3
5, 2
3, 3
6, 4
5, 5
0, 2
5, 3
4, 4
2, 2
3, 10
1, 5
7, 3
4, 4
2, 1
4, 2
2, 4
3, 2
4, 2
0, 1
2, 3
3, 3
1, 3
2, 1
2, 1
0, 4
2, 1
2, 3
0, 1
2, 0
1, 3
1, 0
4, 0
2, 2
3, 1
4, 1
4, 4
8, 2
1, 2
1, 1
1, 0
1, 1
4, 2
1, 1
1, 1
1, 0
0, 0
0, 1
1, 2
2, 1
0, 1
2, 2
1, 0
2, 1
1, 0
3, 1
2, 0
3, 0
1, 0
0, 0
0, 0
1, 2
1, 1
0, 2
1, 1
1, 1
0, 0
0, 1
0, 0
2, 1
0, 0
1, 1
1, 0
0, 0
1, 0
1, 1
1, 1
0, 0
0, 0
0, 1
0, 0
0, 0
0, 1
0, 0
0, 0
0, 1
0, 1
0, 0
0, 0
0, 1
1, 0
0, 1
0, 0
0, 0
0, 1
0, 0
0, 0
0, 0
0, 0
0, 0
0, 0
0, 0
0, 0
0, 0
0, 0
0, 0
0, 0
0, 0
0, 0
0, 0
0, 0
0, 0
0, 0
0, 0
0, 0
0, 0
0, 0
0, 0
1, 0
0, 0
0, 0
1, 0
0, 0
0, 0
0, 0
0, 0
0, 0
0, 0
0, 0
0, 0
0, 0
0, 0
0, 0
0, 0
0, 0
0, 0
0, 0
0, 0
0, 0
0, 0
0, 0
0, 0
0, 0
0, 0
0, 0
0, 0
0, 0
0, 0
0, 0
0, 0
0, 0
0, 0
0, 0
0, 0
0, 0
0, 0
0, 0
0, 0
0, 0
0, 0
0, 0
0, 0
0, 0
0, 0
0, 0
0, 0
0, 0
0, 0
0, 0
0, 0
0, 0
0, 0
0, 0
0, 0
0, 0
0, 0
0, 0
0, 0
0, 0
0, 0
0, 0
0, 0
0, 0
0, 0
0, 0
0, 0
0, 0
0, 0
0, 0
0, 0
0, 0
0, 0
0, 0
0, 0
0, 0
0, 0
0, 0
0, 0
0, 0
0, 0
0, 0
0, 0
0, 0
0, 0
0, 0
0, 0
0, 0
0, 0
0, 0
0, 0
0, 0
0, 0
0, 0
0, 0
#ENDOFDATA     end of spectrum data

File: ps__0852shot_2142.msa
#FORMAT      : EMSA/MAS spectral data file
#VERSION     : TC202v2.0 PIXL
#TITLE       : N/A
#DATE        :       Date in the format DD-MMM-YYYY, for example 07-JUL-2010
#TIME        :             The time of day at which the spectrum was recorded, in 24-hour format
#OWNER       : PIXL Flight Model       (PIXL will use this to indicate which instrument took the data.)
#NPOINTS     : 4096     Number of data points in the spectrum (This can be zero for configuration only files)
#NCOLUMNS    : 2     Number of data columns in the spectrum (This can be zero for configuration only files)
#XUNITS      : eV
#YUNITS      : COUNTS
#DATATYPE    : YY
#XPERCHAN    : 7.862, 7.881   eV per channel (separate by commas if more than one detector)
#OFFSET      : 18.5, -22.4         eV of first channel  (separate by commas if more than one detector
#SIGNALTYPE  : XRF
#YP_TEMP     : 2.524
#LIVETIME    : 8.55929, 8.56589   seconds (separate by commas if more than one detector)
#REALTIME    : 10, 10.0   seconds (separate by commas if more than one detector)
#SPECTRUM    : start of spectrum data
0, 0
0, 0
0, 0
0, 0
0, 0
0, 0
0, 0
0, 0
0, 3
0, 0
2, 2
51, 42
58, 39
5, 6
3, 7
103, 106
411, 418
96, 83
7, 10
2, 2
3, 1
3, 7
2, 5
10, 11
48, 59
53, 55
25, 22
13, 20
5, 10
4, 4
3, 3
2, 0
12, 6
50, 31
39, 34
10, 7
21, 5
14, 10
14, 4
11, 2
5, 3
14, 9
11, 14
35, 19
71, 5
57, 8
10, 43
10, 49
11, 22
22, 18
16, 15
17, 10
8, 14
24, 40
48, 77
20, 17
31, 38
458, 594
2083, 2305
1518, 1402
212, 125
22, 10
28, 18
80, 123
337, 356
209, 214
35, 36
7, 9
17, 13
7, 17
6, 10
11, 5
13, 12
26, 7
16, 11
7, 8
4, 3
7, 2
3, 4
4, 2
0, 2
3, 2
3, 3
8, 9
2, 6
4, 4
4, 4
3, 5
1, 2
4, 4
1, 4
3, 3
4, 1
3, 3
3, 4
4, 3
0, 1
3, 1
4, 0
3, 2
1, 1
2, 2
4, 1
3, 5
3, 0
0, 1
1, 3
1, 2
0, 1
1, 3
0, 3
1, 1
1, 3
2, 2
2, 0
2, 1
1, 9
2, 4
3, 1
1, 2
0, 0
0, 1
1, 1
3, 0
0, 0
1, 0
1, 0
1, 3
1, 1
0, 0
0, 2
2, 1
3, 0
0, 0
0, 3
2, 0
2, 1
2, 0
1, 1
0, 0
2, 3
1, 1
1, 1
1, 1
0, 0
2, 0
0, 1
1, 0
0, 0
1, 0
0, 0
0, 0
0, 0
0, 0
0, 0
0, 0
0, 1
0, 0
0, 0
1, 1
0, 0
0, 0
0, 1
0, 0
1, 0
1, 0
0, 0
0, 0
0, 0
0, 2
0, 0
0, 0
0, 0
0, 1
0, 1
0, 1
1, 1
0, 0
0, 0
0, 0
0, 1
1, 0
0, 1
0, 0
0, 0
0, 1
0, 0
1, 0
0, 0
0, 0
0, 0
0, 0
0, 0
0, 0
0, 0
0, 0
0, 0
0, 0
0, 0
0, 0
0, 0
0, 0
0, 0
0, 0
0, 0
0, 0
0, 0
0, 0
0, 0
0, 0
0, 0
0, 0
0, 0
0, 0
0, 0
0, 0
0, 0
0, 0
0, 0
0, 0
0, 0
0, 0
0, 0
0, 0
0, 0
0, 0
0, 0
0, 0
0, 0
0, 0
0, 0
0, 0
0, 0
0, 0
0, 0
0, 0
0, 0
0, 0
0, 0
0, 0
0, 0
0, 0
0, 0
0, 0
0, 0
0, 0
0, 0
0, 0
0, 0
0, 0
0, 0
0, 0
0, 0
0, 0
0, 0
0, 0
0, 0
0, 0
0, 0
0, 0
0, 0
0, 0
0, 0
0, 0
0, 0
0, 0
0, 0
0, 0
0, 0
0, 0
0, 0
0, 0
0, 0
0, 0
0, 0
0, 0
0, 0
0, 0
0, 0
0, 0
0, 0
0, 0
0, 0
0, 0
0, 0
0, 0
0, 0
0, 0
0, 0
0, 0
0, 0
0, 0
0, 0
0, 0
#ENDOFDATA     end of spectrum data

File: ps__0852shot_2143.msa
#FORMAT      : EMSA/MAS spectral data file
#VERSION     : TC202v2.0 PIXL
#TITLE       : N/A
#DATE        :       Date in the format DD-MMM-YYYY, for example 07-JUL-2010
#TIME        :             The time of day at which the spectrum was recorded, in 24-hour format
#OWNER       : PIXL Flight Model       (PIXL will use this to indicate which instrument took the data.)
#NPOINTS     : 4096     Number of data points in the spectrum (This can be zero for configuration only files)
#NCOLUMNS    : 2     Number of data columns in the spectrum (This can be zero for configuration only files)
#XUNITS      : eV
#YUNITS      : COUNTS
#DATATYPE    : YY
#XPERCHAN    : 7.862, 7.881   eV per channel (separate by commas if more than one detector)
#OFFSET      : 18.5, -22.4         eV of first channel  (separate by commas if more than one detector
#SIGNALTYPE  : XRF
#YP_TEMP     : 2.46
#LIVETIME    : 8.56773, 8.54986   seconds (separate by commas if more than one detector)
#REALTIME    : 10, 10.0   seconds (separate by commas if more than one detector)
#SPECTRUM    : start of spectrum data
0, 0
0, 0
0, 0
0, 0
0, 0
0, 0
0, 0
0, 0
0, 0
1, 0
2, 2
38, 59
66, 55
7, 6
3, 4
106, 120
379, 487
91, 115
6, 5
1, 5
3, 2
3, 6
1, 6
13, 13
46, 44
40, 44
21, 15
12, 19
4, 3
2, 3
1, 6
3, 2
7, 4
24, 24
31, 40
10, 6
31, 5
19, 8
10, 7
6, 4
4, 6
4, 17
15, 11
9, 14
7, 13
8, 5
13, 27
5, 50
9, 16
14, 18
11, 16
2, 5
9, 9
38, 47
51, 74
21, 25
34, 33
405, 627
1801, 2324
1344, 1412
179, 144
19, 17
23, 28
111, 136
301, 380
216, 223
32, 39
3, 9
12, 12
9, 14
7, 10
21, 5
17, 7
8, 10
2, 8
11, 8
8, 6
9, 2
4, 9
1, 8
6, 2
2, 3
6, 7
2, 2
0, 4
2, 3
5, 4
4, 2
2, 3
2, 7
2, 4
0, 6
5, 2
3, 8
4, 7
6, 1
3, 4
0, 3
3, 3
0, 5
1, 4
1, 3
4, 3
1, 3
1, 1
3, 4
1, 3
0, 2
2, 2
0, 3
2, 2
0, 2
2, 1
1, 2
3, 1
2, 5
2, 3
3, 5
2, 0
0, 3
2, 2
0, 0
0, 0
1, 2
1, 0
1, 1
1, 0
0, 1
1, 1
0, 2
0, 2
1, 0
0, 2
1, 1
0, 0
0, 0
2, 2
0, 3
0, 1
0, 1
0, 3
0, 2
0, 2
1, 1
0, 1
0, 0
0, 0
0, 0
0, 2
0, 0
0, 2
0, 1
0, 1
0, 0
1, 1
0, 0
0, 1
0, 1
0, 1
1, 0
0, 0
0, 0
0, 1
1, 2
0, 1
2, 1
0, 0
1, 0
1, 0
1, 1
0, 0
0, 1
0, 0
0, 0
0, 0
0, 0
0, 0
1, 1
0, 0
0, 0
0, 0
0, 0
0, 0
0, 0
0, 0
0, 0
0, 0
1, 0
0, 1
0, 0
0, 0
0, 0
0, 0
0, 0
0, 0
0, 0
0, 0
0, 0
0, 0
0, 0
0, 0
0, 0
0, 0
0, 0
0, 0
0, 0
0, 0
0, 0
0, 0
0, 0
0, 0
0, 0
0, 0
0, 0
0, 0
0, 0
0, 0
0, 0
0, 0
0, 0
0, 0
0, 0
0, 0
0, 0
0, 0
0, 0
0, 0
0, 0
0, 0
0, 0
0, 0
0, 0
0, 0
0, 0
0, 0
0, 0
0, 0
0, 0
0, 0
0, 0
0, 0
0, 0
0, 0
0, 0
0, 0
0, 0
0, 0
0, 0
0, 0
0, 0
0, 0
0, 0
0, 0
0, 0
0, 0
0, 0
0, 0
0, 0
0, 0
0, 0
0, 0
0, 0
0, 0
0, 0
0, 0
0, 0
0, 0
0, 0
0, 0
0, 0
0, 0
0, 0
0, 0
0, 0
0, 0
0, 0
0, 0
0, 0
0, 0
0, 0
0, 0
0, 0
0, 0
0, 0
0, 0
0, 0
0, 0
0, 0
0, 0
0, 0
0, 0
0, 0
0, 0
0, 0
#ENDOFDATA     end of spectrum data

File: ps__0852shot_2144.msa
#FORMAT      : EMSA/MAS spectral data file
#VERSION     : TC202v2.0 PIXL
#TITLE       : N/A
#DATE        :       Date in the format DD-MMM-YYYY, for example 07-JUL-2010
#TIME        :             The time of day at which the spectrum was recorded, in 24-hour format
#OWNER       : PIXL Flight Model       (PIXL will use this to indicate which instrument took the data.)
#NPOINTS     : 4096     Number of data points in the spectrum (This can be zero for configuration only files)
#NCOLUMNS    : 2     Number of data columns in the spectrum (This can be zero for configuration only files)
#XUNITS      : eV
#YUNITS      : COUNTS
#DATATYPE    : YY
#XPERCHAN    : 7.862, 7.881   eV per channel (separate by commas if more than one detector)
#OFFSET      : 18.5, -22.4         eV of first channel  (separate by commas if more than one detector
#SIGNALTYPE  : XRF
#YP_TEMP     : 2.396
#LIVETIME    : 8.55826, 8.56342   seconds (separate by commas if more than one detector)
#REALTIME    : 10, 10.0   seconds (separate by commas if more than one detector)
#SPECTRUM    : start of spectrum data
0, 0
0, 0
0, 0
0, 0
0, 0
0, 0
0, 0
0, 0
0, 0
0, 2
3, 0
40, 37
44, 55
6, 2
7, 3
102, 94
431, 426
113, 101
3, 3
2, 1
1, 0
1, 4
2, 3
7, 9
23, 40
51, 41
24, 26
11, 15
3, 2
1, 6
3, 3
0, 3
4, 8
25, 35
48, 55
8, 8
19, 6
12, 8
4, 8
7, 1
5, 3
10, 14
20, 19
9, 12
11, 4
32, 4
24, 4
12, 6
9, 16
10, 13
14, 8
8, 6
5, 13
44, 47
54, 56
32, 23
28, 40
432, 544
2078, 2256
1449, 1296
171, 140
28, 14
19, 45
98, 146
320, 321
206, 184
38, 23
9, 5
13, 15
16, 16
6, 12
6, 5
6, 1
7, 3
6, 11
3, 10
13, 2
12, 3
3, 3
6, 5
4, 5
1, 5
5, 5
4, 10
1, 3
1, 4
4, 3
3, 5
3, 2
6, 0
3, 7
4, 2
5, 4
3, 1
6, 4
3, 4
2, 1
4, 1
4, 4
4, 4
0, 8
0, 4
2, 2
3, 5
1, 1
4, 3
3, 4
0, 3
1, 2
2, 1
1, 2
1, 0
0, 1
2, 3
4, 0
2, 4
4, 5
3, 8
5, 5
0, 1
0, 1
4, 3
2, 0
1, 4
0, 2
0, 3
0, 3
1, 0
0, 1
1, 1
1, 2
2, 1
1, 2
0, 0
0, 1
0, 0
1, 2
1, 0
0, 5
0, 0
1, 0
0, 0
0, 1
3, 1
0, 0
1, 2
0, 0
0, 0
0, 1
0, 0
0, 0
0, 0
0, 0
0, 0
0, 1
0, 0
0, 1
0, 1
0, 0
0, 0
0, 0
1, 0
1, 0
0, 0
0, 1
0, 0
0, 1
0, 1
1, 0
0, 0
0, 0
0, 2
0, 0
0, 0
0, 0
0, 0
0, 0
0, 0
0, 0
0, 0
0, 1
0, 0
0, 0
0, 0
0, 2
0, 1
0, 0
0, 0
0, 0
0, 0
0, 0
0, 0
0, 0
0, 0
0, 0
0, 0
0, 0
0, 1
0, 0
0, 0
0, 0
0, 0
0, 1
0, 0
0, 0
0, 0
0, 0
0, 0
0, 0
0, 0
0, 0
0, 0
0, 0
0, 0
0, 0
0, 0
0, 0
0, 0
0, 0
0, 0
0, 0
0, 0
0, 0
0, 0
0, 0
0, 0
0, 0
0, 0
0, 0
0, 0
0, 0
0, 0
0, 0
0, 0
0, 0
0, 0
0, 0
0, 0
0, 0
0, 0
0, 0
0, 0
0, 0
0, 0
0, 0
0, 0
0, 0
0, 0
0, 0
0, 0
0, 0
0, 0
0, 0
0, 0
0, 0
0, 0
0, 0
0, 0
0, 0
0, 0
0, 0
0, 0
0, 0
0, 0
0, 0
0, 0
0, 0
0, 0
0, 0
0, 0
0, 0
0, 0
0, 0
0, 0
0, 0
0, 0
0, 0
0, 0
0, 0
0, 0
0, 0
0, 0
0, 0
0, 0
0, 0
0, 0
0, 0
0, 0
0, 0
0, 0
0, 0
0, 0
0, 0
0, 0
#ENDOFDATA     end of spectrum data

File: ps__0852shot_2145.msa
#FORMAT      : EMSA/MAS spectral data file
#VERSION     : TC202v2.0 PIXL
#TITLE       : N/A
#DATE        :       Date in the format DD-MMM-YYYY, for example 07-JUL-2010
#TIME        :             The time of day at which the spectrum was recorded, in 24-hour format
#OWNER       : PIXL Flight Model       (PIXL will use this to indicate which instrument took the data.)
#NPOINTS     : 4096     Number of data points in the spectrum (This can be zero for configuration only files)
#NCOLUMNS    : 2     Number of data columns in the spectrum (This can be zero for configuration only files)
#XUNITS      : eV
#YUNITS      : COUNTS
#DATATYPE    : YY
#XPERCHAN    : 7.862, 7.881   eV per channel (separate by commas if more than one detector)
#OFFSET      : 18.5, -22.4         eV of first channel  (separate by commas if more than one detector
#SIGNALTYPE  : XRF
#YP_TEMP     : 2.043
#LIVETIME    : 8.56082, 8.56371   seconds (separate by commas if more than one detector)
#REALTIME    : 10, 10.0   seconds (separate by commas if more than one detector)
#SPECTRUM    : start of spectrum data
0, 0
0, 0
0, 0
0, 0
0, 0
0, 0
0, 0
0, 0
0, 1
0, 0
2, 3
41, 45
65, 58
4, 5
4, 4
109, 101
482, 454
99, 113
5, 4
1, 1
0, 0
2, 4
4, 2
8, 12
34, 26
50, 37
37, 26
21, 13
6, 6
5, 1
1, 2
4, 5
6, 23
129, 143
224, 230
37, 42
26, 18
32, 24
4, 8
4, 4
4, 10
12, 10
22, 10
11, 8
15, 6
37, 5
20, 0
7, 1
12, 11
34, 35
25, 26
13, 8
13, 10
48, 35
73, 42
20, 18
35, 30
389, 424
1655, 1688
1254, 1121
170, 109
14, 12
21, 23
64, 94
298, 257
160, 152
30, 25
8, 4
11, 16
6, 15
9, 8
7, 7
8, 7
13, 6
7, 8
10, 8
15, 8
8, 3
5, 5
6, 4
4, 4
4, 9
10, 28
1, 15
5, 3
7, 6
5, 7
7, 5
2, 4
3, 3
6, 7
9, 3
6, 2
9, 2
3, 6
3, 3
4, 1
0, 1
4, 2
1, 3
2, 3
2, 9
2, 4
5, 1
2, 1
2, 4
1, 1
1, 2
1, 2
1, 5
1, 3
0, 4
2, 2
2, 3
2, 1
1, 4
1, 2
2, 3
2, 1
3, 2
0, 3
2, 2
3, 2
1, 1
0, 1
2, 4
1, 3
1, 4
0, 1
1, 2
1, 1
2, 2
1, 1
0, 0
1, 0
1, 1
0, 1
0, 0
2, 2
0, 0
0, 0
1, 0
0, 0
0, 1
0, 0
1, 1
1, 0
0, 0
0, 0
0, 0
1, 0
0, 3
0, 0
0, 1
0, 0
0, 2
1, 0
0, 2
0, 0
1, 0
0, 0
1, 0
1, 1
0, 0
0, 1
0, 0
1, 0
0, 0
0, 1
0, 0
0, 0
0, 0
0, 0
0, 0
0, 0
0, 0
1, 0
0, 0
0, 0
0, 0
0, 0
0, 0
1, 1
0, 2
0, 0
0, 0
0, 0
0, 0
0, 0
0, 0
0, 0
0, 0
1, 0
0, 0
0, 1
0, 0
0, 0
0, 0
0, 0
0, 0
0, 0
0, 0
0, 0
0, 0
0, 0
0, 0
0, 0
0, 0
0, 0
0, 0
0, 0
0, 0
0, 0
0, 0
0, 0
0, 0
0, 0
0, 0
0, 0
0, 0
0, 0
0, 0
0, 0
0, 0
0, 0
0, 0
0, 0
0, 0
0, 0
0, 0
0, 0
0, 0
0, 0
0, 0
0, 0
0, 0
0, 0
0, 0
0, 0
0, 0
0, 0
0, 0
0, 0
0, 0
0, 0
0, 0
0, 0
0, 0
0, 0
0, 0
0, 0
0, 0
0, 0
0, 0
0, 0
0, 0
0, 0
0, 0
0, 0
0, 0
0, 0
0, 0
0, 0
0, 0
0, 0
0, 0
0, 0
0, 0
0, 0
0, 0
0, 0
0, 0
0, 0
0, 0
0, 0
0, 0
0, 0
0, 0
0, 0
0, 0
0, 0
0, 0
0, 0
0, 0
0, 0
0, 0
0, 0
0, 0
0, 0
0, 0
0, 0
0, 0
0, 0
0, 0
#ENDOFDATA     end of spectrum data