Folder: data-repository/host_upload/06-09-2024/ps_0852/dump3 (part 35)

File: ps__0852shot_2309.msa
#FORMAT      : EMSA/MAS spectral data file
#VERSION     : TC202v2.0 PIXL
#TITLE       : N/A
#DATE        :       Date in the format DD-MMM-YYYY, for example 07-JUL-2010
#TIME        :             The time of day at which the spectrum was recorded, in 24-hour format
#OWNER       : PIXL Flight Model       (PIXL will use this to indicate which instrument took the data.)
#NPOINTS     : 4096     Number of data points in the spectrum (This can be zero for configuration only files)
#NCOLUMNS    : 2     Number of data columns in the spectrum (This can be zero for configuration only files)
#XUNITS      : eV
#YUNITS      : COUNTS
#DATATYPE    : YY
#XPERCHAN    : 7.862, 7.881   eV per channel (separate by commas if more than one detector)
#OFFSET      : 18.5, -22.4         eV of first channel  (separate by commas if more than one detector
#SIGNALTYPE  : XRF
#YP_TEMP     : 2.3
#LIVETIME    : 8.55904, 8.5526   seconds (separate by commas if more than one detector)
#REALTIME    : 10, 10.0   seconds (separate by commas if more than one detector)
#SPECTRUM    : start of spectrum data
0, 0
0, 0
0, 0
0, 0
0, 0
0, 0
0, 0
0, 0
0, 1
2, 2
6, 2
28, 24
49, 34
8, 5
6, 5
81, 79
416, 308
97, 73
12, 7
6, 5
42, 25
147, 130
57, 45
25, 20
91, 95
97, 89
36, 28
14, 28
10, 6
0, 4
4, 6
6, 1
13, 7
147, 119
185, 147
32, 24
24, 23
31, 22
6, 4
6, 7
11, 8
11, 14
18, 15
42, 9
73, 8
35, 10
13, 17
5, 17
6, 5
27, 16
20, 15
11, 4
18, 8
47, 47
67, 56
22, 27
30, 46
513, 543
2321, 2042
1683, 1228
213, 143
19, 29
29, 33
130, 126
360, 281
220, 160
42, 18
17, 7
19, 15
10, 5
2, 3
7, 2
7, 5
13, 4
6, 8
5, 7
5, 5
4, 9
4, 3
7, 2
7, 1
7, 4
8, 4
2, 1
4, 2
7, 4
6, 1
5, 2
7, 1
7, 10
3, 18
1, 14
9, 11
3, 5
1, 1
2, 2
4, 1
7, 3
1, 1
1, 2
0, 1
3, 2
3, 4
1, 1
0, 0
5, 2
3, 2
4, 0
1, 2
3, 1
6, 3
3, 2
3, 1
4, 0
2, 6
6, 2
6, 3
3, 3
2, 0
1, 2
1, 1
1, 1
2, 2
1, 0
3, 0
1, 1
1, 2
1, 0
1, 1
2, 0
2, 0
1, 1
0, 2
2, 2
1, 3
1, 1
1, 0
0, 1
1, 0
1, 0
1, 1
0, 0
1, 0
0, 3
0, 0
0, 0
1, 1
0, 1
0, 0
0, 1
0, 0
0, 0
1, 1
0, 0
0, 0
0, 1
0, 0
0, 1
0, 0
1, 0
0, 0
0, 1
0, 0
2, 0
0, 0
0, 0
1, 0
0, 0
1, 1
1, 0
0, 0
0, 0
0, 0
0, 0
1, 0
0, 0
0, 0
0, 0
0, 0
0, 0
0, 0
0, 1
0, 0
0, 0
0, 0
0, 1
0, 0
0, 0
0, 0
0, 1
0, 0
0, 0
0, 0
0, 0
0, 0
0, 0
0, 0
0, 0
0, 0
0, 0
0, 0
0, 0
0, 0
0, 0
0, 0
0, 0
0, 0
1, 0
0, 0
0, 0
0, 0
0, 0
0, 0
0, 0
0, 0
0, 0
0, 0
0, 0
0, 0
0, 0
0, 0
0, 0
0, 0
0, 0
0, 0
0, 0
0, 0
0, 0
0, 0
0, 0
0, 0
0, 0
0, 0
0, 0
0, 0
0, 0
0, 0
0, 0
0, 0
0, 0
0, 0
0, 0
0, 0
0, 0
0, 0
0, 0
0, 0
0, 0
0, 0
0, 0
0, 0
0, 0
0, 0
0, 0
0, 0
0, 0
0, 0
0, 0
0, 0
0, 0
0, 0
0, 0
0, 0
0, 0
0, 0
0, 0
0, 0
0, 0
0, 0
0, 0
0, 0
0, 0
0, 0
0, 0
0, 0
0, 0
0, 0
0, 0
0, 0
0, 0
0, 0
0, 0
0, 0
0, 0
0, 0
0, 0
0, 0
0, 0
0, 0
0, 0
0, 0
0, 0
0, 0
0, 0
#ENDOFDATA     end of spectrum data

File: ps__0852shot_2310.msa
#FORMAT      : EMSA/MAS spectral data file
#VERSION     : TC202v2.0 PIXL
#TITLE       : N/A
#DATE        :       Date in the format DD-MMM-YYYY, for example 07-JUL-2010
#TIME        :             The time of day at which the spectrum was recorded, in 24-hour format
#OWNER       : PIXL Flight Model       (PIXL will use this to indicate which instrument took the data.)
#NPOINTS     : 4096     Number of data points in the spectrum (This can be zero for configuration only files)
#NCOLUMNS    : 2     Number of data columns in the spectrum (This can be zero for configuration only files)
#XUNITS      : eV
#YUNITS      : COUNTS
#DATATYPE    : YY
#XPERCHAN    : 7.862, 7.881   eV per channel (separate by commas if more than one detector)
#OFFSET      : 18.5, -22.4         eV of first channel  (separate by commas if more than one detector
#SIGNALTYPE  : XRF
#YP_TEMP     : 2.396
#LIVETIME    : 8.57178, 8.5521   seconds (separate by commas if more than one detector)
#REALTIME    : 10, 10.0   seconds (separate by commas if more than one detector)
#SPECTRUM    : start of spectrum data
0, 0
0, 0
0, 0
0, 0
0, 0
0, 0
0, 0
1, 0
4, 0
10, 2
10, 5
38, 33
49, 39
7, 10
11, 6
81, 92
380, 326
92, 78
15, 15
4, 5
22, 21
100, 96
41, 46
35, 15
408, 79
523, 78
91, 32
10, 20
10, 9
4, 6
3, 4
2, 1
5, 3
68, 60
98, 109
19, 16
18, 30
22, 22
6, 9
5, 8
8, 1
11, 11
20, 14
32, 12
41, 4
5, 6
8, 14
6, 8
5, 9
19, 17
12, 9
5, 10
12, 13
36, 51
67, 73
32, 19
30, 42
460, 578
2228, 2224
1599, 1410
181, 139
27, 36
17, 38
104, 118
349, 368
210, 167
34, 18
14, 5
13, 6
8, 6
4, 0
2, 1
2, 2
4, 4
3, 8
5, 6
1, 8
3, 9
8, 7
6, 4
5, 7
5, 1
5, 2
8, 3
2, 4
3, 2
5, 1
9, 1
9, 4
4, 11
7, 16
6, 9
1, 3
4, 5
1, 3
3, 3
1, 0
3, 1
3, 4
3, 3
2, 1
3, 1
1, 2
2, 0
3, 1
2, 1
1, 7
2, 4
2, 4
2, 0
2, 5
4, 0
0, 0
1, 1
3, 2
0, 3
4, 6
2, 2
0, 2
2, 1
2, 0
2, 3
1, 3
3, 1
1, 3
0, 0
1, 1
0, 1
0, 1
1, 3
0, 1
1, 0
1, 0
2, 1
0, 0
2, 0
1, 0
1, 1
0, 2
1, 0
1, 0
0, 1
0, 1
0, 0
1, 0
0, 0
0, 1
0, 0
0, 0
1, 0
0, 1
1, 0
0, 0
1, 0
0, 0
0, 0
0, 0
1, 1
0, 0
1, 0
0, 0
0, 1
0, 0
0, 0
0, 0
0, 1
0, 0
0, 1
1, 0
0, 2
0, 0
0, 0
1, 2
1, 0
2, 0
0, 1
0, 0
0, 0
0, 0
2, 0
0, 0
0, 0
1, 0
1, 1
0, 0
0, 1
0, 0
0, 0
0, 0
1, 0
0, 0
0, 0
0, 0
0, 0
0, 0
0, 0
0, 0
0, 0
0, 0
0, 0
0, 0
0, 1
0, 0
0, 0
0, 0
0, 0
0, 0
0, 0
0, 0
0, 0
0, 0
0, 0
0, 0
0, 0
0, 0
0, 0
0, 0
0, 0
0, 0
0, 0
0, 0
0, 0
0, 0
0, 0
0, 0
0, 0
0, 0
0, 0
0, 0
0, 0
0, 0
0, 0
0, 0
0, 0
0, 0
0, 0
0, 0
0, 0
0, 1
0, 0
0, 0
0, 0
0, 0
0, 0
0, 0
0, 0
0, 0
0, 0
0, 0
0, 0
0, 0
0, 0
0, 0
0, 0
0, 0
0, 0
0, 0
0, 0
0, 0
0, 0
0, 0
0, 0
0, 0
0, 0
0, 0
0, 0
0, 0
0, 0
0, 0
0, 0
0, 0
0, 0
0, 0
0, 0
0, 0
0, 0
0, 0
0, 0
0, 0
0, 0
0, 0
0, 0
0, 0
0, 0
0, 0
0, 0
0, 0
0, 0
0, 0
0, 0
0, 0
0, 0
0, 0
0, 0
#ENDOFDATA     end of spectrum data

File: ps__0852shot_2311.msa
#FORMAT      : EMSA/MAS spectral data file
#VERSION     : TC202v2.0 PIXL
#TITLE       : N/A
#DATE        :       Date in the format DD-MMM-YYYY, for example 07-JUL-2010
#TIME        :             The time of day at which the spectrum was recorded, in 24-hour format
#OWNER       : PIXL Flight Model       (PIXL will use this to indicate which instrument took the data.)
#NPOINTS     : 4096     Number of data points in the spectrum (This can be zero for configuration only files)
#NCOLUMNS    : 2     Number of data columns in the spectrum (This can be zero for configuration only files)
#XUNITS      : eV
#YUNITS      : COUNTS
#DATATYPE    : YY
#XPERCHAN    : 7.862, 7.881   eV per channel (separate by commas if more than one detector)
#OFFSET      : 18.5, -22.4         eV of first channel  (separate by commas if more than one detector
#SIGNALTYPE  : XRF
#YP_TEMP     : 2.396
#LIVETIME    : 8.56258, 8.56101   seconds (separate by commas if more than one detector)
#REALTIME    : 10, 10.0   seconds (separate by commas if more than one detector)
#SPECTRUM    : start of spectrum data
0, 0
0, 0
0, 0
0, 0
0, 0
0, 0
0, 0
0, 0
3, 2
12, 0
8, 1
45, 54
56, 40
13, 6
3, 4
80, 95
451, 400
121, 97
5, 2
5, 1
2, 5
20, 19
11, 6
40, 6
584, 40
888, 54
162, 16
40, 9
10, 3
2, 2
7, 3
3, 5
3, 7
9, 13
14, 22
8, 6
19, 26
9, 21
4, 7
5, 2
8, 1
9, 6
20, 11
15, 15
6, 4
13, 6
2, 6
7, 8
10, 13
7, 13
11, 14
14, 6
16, 21
53, 49
65, 62
18, 23
27, 43
515, 555
2171, 2327
1611, 1357
205, 144
29, 18
23, 16
117, 121
352, 360
233, 218
32, 19
5, 4
8, 14
10, 7
3, 2
4, 6
2, 2
6, 8
5, 16
9, 5
7, 1
3, 5
5, 6
2, 4
3, 8
5, 3
3, 5
3, 3
2, 6
4, 3
2, 4
9, 1
3, 1
3, 0
4, 1
6, 3
5, 3
4, 4
4, 0
0, 5
3, 1
2, 7
4, 6
7, 1
2, 3
2, 0
0, 2
3, 1
1, 2
2, 1
0, 2
4, 2
1, 3
3, 2
4, 4
2, 4
0, 1
1, 2
1, 0
4, 0
0, 4
6, 5
3, 2
0, 1
1, 0
2, 1
2, 2
2, 0
1, 2
2, 0
0, 1
1, 0
1, 0
2, 0
0, 2
1, 1
0, 2
0, 1
0, 1
0, 0
0, 1
1, 0
0, 1
1, 0
0, 0
0, 2
0, 0
0, 0
1, 0
0, 2
1, 0
0, 0
2, 1
0, 0
0, 0
0, 0
1, 1
0, 0
0, 0
0, 0
0, 0
1, 1
0, 0
0, 0
0, 1
1, 0
0, 0
0, 0
1, 0
0, 0
0, 0
0, 0
0, 0
0, 1
0, 0
0, 0
0, 0
0, 0
0, 0
0, 0
0, 0
0, 1
0, 0
0, 0
0, 0
0, 0
0, 0
1, 0
0, 0
0, 0
0, 0
0, 0
0, 0
0, 0
0, 0
0, 0
0, 0
0, 0
0, 1
0, 0
0, 0
0, 0
0, 0
0, 0
0, 0
0, 0
0, 0
0, 0
0, 0
0, 0
0, 0
0, 0
0, 0
0, 0
0, 0
0, 0
0, 0
0, 0
0, 0
0, 0
0, 0
0, 0
0, 0
0, 0
0, 0
0, 0
0, 0
0, 0
0, 0
0, 0
0, 0
0, 0
0, 0
0, 0
0, 0
0, 0
0, 0
0, 0
1, 0
0, 0
0, 0
0, 0
0, 0
0, 0
0, 0
0, 0
0, 0
0, 0
0, 0
0, 0
0, 0
0, 0
0, 0
0, 0
0, 0
0, 0
0, 0
0, 0
0, 0
0, 0
0, 0
0, 0
0, 0
0, 0
0, 0
0, 0
0, 0
0, 0
0, 0
0, 0
0, 0
0, 0
0, 0
0, 0
0, 0
0, 0
0, 0
0, 0
0, 0
0, 0
0, 0
0, 0
0, 0
0, 0
0, 0
0, 0
0, 0
0, 0
0, 0
0, 0
0, 0
0, 0
0, 0
0, 0
0, 0
0, 0
0, 0
0, 0
#ENDOFDATA     end of spectrum data

File: ps__0852shot_2312.msa
#FORMAT      : EMSA/MAS spectral data file
#VERSION     : TC202v2.0 PIXL
#TITLE       : N/A
#DATE        :       Date in the format DD-MMM-YYYY, for example 07-JUL-2010
#TIME        :             The time of day at which the spectrum was recorded, in 24-hour format
#OWNER       : PIXL Flight Model       (PIXL will use this to indicate which instrument took the data.)
#NPOINTS     : 4096     Number of data points in the spectrum (This can be zero for configuration only files)
#NCOLUMNS    : 2     Number of data columns in the spectrum (This can be zero for configuration only files)
#XUNITS      : eV
#YUNITS      : COUNTS
#DATATYPE    : YY
#XPERCHAN    : 7.862, 7.881   eV per channel (separate by commas if more than one detector)
#OFFSET      : 18.5, -22.4         eV of first channel  (separate by commas if more than one detector
#SIGNALTYPE  : XRF
#YP_TEMP     : 2.332
#LIVETIME    : 8.5303, 8.55627   seconds (separate by commas if more than one detector)
#REALTIME    : 10, 10.0   seconds (separate by commas if more than one detector)
#SPECTRUM    : start of spectrum data
0, 0
0, 0
0, 0
0, 0
0, 0
0, 0
0, 0
0, 0
3, 0
0, 0
1, 6
57, 43
64, 55
10, 2
1, 4
93, 85
444, 391
108, 93
3, 5
1, 0
2, 3
8, 2
3, 2
15, 9
94, 33
137, 46
131, 23
159, 8
22, 7
4, 4
2, 2
2, 3
1, 14
9, 37
23, 16
13, 5
5, 7
12, 7
2, 9
2, 4
4, 7
30, 12
85, 16
57, 13
11, 11
8, 8
5, 4
8, 9
7, 13
17, 18
17, 5
13, 14
24, 3
77, 64
86, 73
25, 76
32, 81
472, 567
2271, 2241
1691, 1333
207, 130
21, 11
20, 29
107, 113
347, 307
231, 176
34, 19
8, 12
22, 12
9, 8
5, 2
2, 2
4, 4
7, 4
7, 7
6, 6
4, 9
4, 1
3, 5
4, 9
5, 3
4, 1
4, 5
9, 5
27, 3
7, 8
5, 4
9, 10
1, 12
2, 4
5, 1
4, 4
1, 1
2, 4
1, 1
4, 3
2, 3
3, 2
7, 0
4, 3
1, 2
5, 1
2, 2
3, 2
1, 3
1, 2
3, 2
2, 3
0, 4
5, 3
1, 0
1, 5
1, 2
3, 2
1, 0
2, 5
3, 4
4, 3
2, 1
2, 3
2, 2
1, 2
2, 1
1, 3
1, 1
1, 1
1, 1
1, 0
1, 1
1, 0
2, 1
2, 1
1, 0
1, 0
0, 2
1, 2
2, 0
1, 0
1, 0
0, 0
0, 2
1, 1
0, 0
1, 0
1, 2
1, 0
3, 0
1, 1
1, 0
0, 1
0, 0
0, 0
1, 0
1, 0
1, 0
1, 2
0, 0
0, 0
0, 0
0, 0
0, 1
0, 0
0, 0
0, 1
0, 0
0, 0
1, 0
0, 1
1, 0
0, 0
1, 0
2, 0
0, 0
0, 0
0, 0
0, 0
0, 0
0, 0
0, 0
0, 1
0, 0
0, 0
0, 0
0, 0
0, 0
1, 0
1, 0
0, 0
1, 0
0, 0
0, 0
0, 0
0, 0
0, 0
0, 0
0, 0
0, 0
0, 0
0, 0
0, 0
0, 0
0, 0
0, 0
0, 0
0, 0
0, 0
0, 0
0, 0
0, 0
0, 0
0, 0
1, 0
0, 0
0, 0
0, 0
0, 0
0, 0
0, 0
0, 0
0, 0
0, 0
0, 0
0, 0
0, 0
0, 0
0, 0
0, 0
0, 0
0, 0
0, 0
0, 0
0, 0
0, 0
0, 0
0, 0
0, 0
0, 0
0, 0
0, 0
0, 0
0, 0
0, 0
0, 0
0, 0
0, 0
0, 0
0, 0
0, 0
0, 0
0, 0
0, 0
0, 0
0, 0
0, 0
0, 0
0, 0
0, 0
0, 0
0, 0
0, 0
0, 0
0, 0
0, 0
0, 0
0, 0
0, 0
0, 0
0, 0
0, 0
0, 0
0, 0
0, 0
0, 0
0, 0
0, 0
0, 0
0, 0
0, 0
0, 0
0, 0
0, 0
0, 0
0, 0
0, 0
0, 0
0, 0
0, 0
0, 0
0, 0
0, 0
0, 0
0, 0
0, 0
0, 0
#ENDOFDATA     end of spectrum data

File: ps__0852shot_2313.msa
#FORMAT      : EMSA/MAS spectral data file
#VERSION     : TC202v2.0 PIXL
#TITLE       : N/A
#DATE        :       Date in the format DD-MMM-YYYY, for example 07-JUL-2010
#TIME        :             The time of day at which the spectrum was recorded, in 24-hour format
#OWNER       : PIXL Flight Model       (PIXL will use this to indicate which instrument took the data.)
#NPOINTS     : 4096     Number of data points in the spectrum (This can be zero for configuration only files)
#NCOLUMNS    : 2     Number of data columns in the spectrum (This can be zero for configuration only files)
#XUNITS      : eV
#YUNITS      : COUNTS
#DATATYPE    : YY
#XPERCHAN    : 7.862, 7.881   eV per channel (separate by commas if more than one detector)
#OFFSET      : 18.5, -22.4         eV of first channel  (separate by commas if more than one detector
#SIGNALTYPE  : XRF
#YP_TEMP     : 2.139
#LIVETIME    : 8.54109, 8.35914   seconds (separate by commas if more than one detector)
#REALTIME    : 10, 10.0   seconds (separate by commas if more than one detector)
#SPECTRUM    : start of spectrum data
0, 0
0, 0
0, 0
0, 0
0, 0
0, 0
0, 0
0, 0
1, 1
2, 0
6, 1
44, 57
72, 55
10, 8
2, 0
95, 96
416, 402
104, 103
6, 5
3, 1
3, 2
7, 4
4, 1
13, 2
60, 24
94, 50
83, 20
109, 12
16, 5
3, 2
1, 3
3, 3
3, 12
12, 23
18, 20
6, 8
4, 4
10, 5
9, 11
11, 6
8, 4
21, 10
50, 11
35, 21
9, 5
7, 13
10, 5
10, 10
12, 10
8, 17
11, 9
7, 8
32, 16
90, 56
91, 89
28, 65
29, 61
511, 578
2204, 2312
1628, 1312
183, 160
22, 18
26, 39
103, 130
330, 346
215, 193
43, 26
11, 8
15, 9
13, 6
5, 6
0, 3
3, 4
6, 4
7, 6
7, 6
4, 7
4, 4
6, 6
8, 1
3, 3
2, 2
6, 6
6, 1
14, 5
12, 8
4, 6
4, 7
6, 5
4, 3
5, 4
1, 4
4, 7
4, 2
6, 2
5, 2
3, 4
4, 1
6, 3
3, 4
4, 1
2, 5
2, 1
3, 3
4, 3
0, 1
5, 2
4, 1
3, 4
1, 2
1, 3
2, 2
0, 3
1, 4
2, 6
4, 3
3, 7
2, 3
3, 1
0, 2
3, 1
5, 0
5, 0
3, 0
2, 0
2, 0
1, 2
1, 1
1, 2
1, 1
4, 2
0, 0
0, 0
1, 0
1, 1
1, 0
1, 1
2, 0
0, 1
1, 0
0, 1
0, 0
0, 1
0, 0
1, 1
0, 0
0, 0
0, 0
1, 1
2, 0
1, 0
0, 1
1, 0
0, 0
0, 0
0, 0
0, 0
0, 0
0, 1
0, 0
0, 0
0, 0
0, 0
0, 0
0, 0
2, 0
0, 0
0, 0
0, 1
0, 0
0, 0
0, 0
0, 0
0, 1
0, 0
0, 1
1, 0
0, 0
1, 0
0, 0
0, 0
0, 0
0, 0
1, 0
0, 0
1, 0
0, 0
0, 0
0, 0
0, 0
0, 0
0, 0
0, 0
0, 0
1, 0
0, 0
0, 0
0, 0
0, 0
0, 0
0, 0
1, 0
0, 0
0, 0
0, 0
0, 0
0, 0
0, 0
0, 0
0, 0
0, 0
0, 0
0, 0
0, 0
0, 0
0, 0
0, 0
0, 0
0, 0
0, 0
0, 0
0, 0
0, 0
0, 0
0, 0
0, 0
0, 0
0, 0
0, 0
0, 0
0, 0
0, 0
0, 0
0, 0
0, 0
0, 0
0, 0
0, 0
0, 0
0, 0
0, 0
0, 0
0, 0
0, 0
0, 0
0, 0
0, 0
0, 0
0, 0
0, 0
0, 0
0, 0
0, 0
0, 0
0, 0
0, 0
0, 0
0, 0
0, 0
0, 0
0, 0
0, 0
0, 0
0, 0
0, 0
0, 0
0, 0
0, 0
0, 0
0, 0
0, 0
0, 0
0, 0
0, 0
0, 0
0, 0
0, 0
0, 0
0, 0
0, 0
0, 0
0, 0
0, 0
0, 0
0, 0
0, 0
0, 0
0, 0
0, 0
0, 0
0, 0
0, 0
0, 0
0, 0
#ENDOFDATA     end of spectrum data

File: ps__0852shot_2314.msa
#FORMAT      : EMSA/MAS spectral data file
#VERSION     : TC202v2.0 PIXL
#TITLE       : N/A
#DATE        :       Date in the format DD-MMM-YYYY, for example 07-JUL-2010
#TIME        :             The time of day at which the spectrum was recorded, in 24-hour format
#OWNER       : PIXL Flight Model       (PIXL will use this to indicate which instrument took the data.)
#NPOINTS     : 4096     Number of data points in the spectrum (This can be zero for configuration only files)
#NCOLUMNS    : 2     Number of data columns in the spectrum (This can be zero for configuration only files)
#XUNITS      : eV
#YUNITS      : COUNTS
#DATATYPE    : YY
#XPERCHAN    : 7.862, 7.881   eV per channel (separate by commas if more than one detector)
#OFFSET      : 18.5, -22.4         eV of first channel  (separate by commas if more than one detector
#SIGNALTYPE  : XRF
#YP_TEMP     : 2.396
#LIVETIME    : 8.55785, 8.55107   seconds (separate by commas if more than one detector)
#REALTIME    : 10, 10.0   seconds (separate by commas if more than one detector)
#SPECTRUM    : start of spectrum data
0, 0
0, 0
0, 0
0, 0
0, 0
0, 0
0, 0
0, 0
0, 1
1, 0
5, 1
58, 60
54, 55
9, 6
4, 2
86, 84
444, 438
96, 85
3, 6
1, 1
1, 0
7, 7
3, 2
12, 7
31, 31
46, 39
181, 26
249, 18
30, 8
1, 2
0, 3
1, 3
3, 17
12, 33
18, 22
4, 6
6, 5
13, 10
1, 6
6, 8
5, 4
20, 8
63, 13
53, 11
7, 11
3, 4
5, 6
7, 5
4, 15
14, 26
7, 2
8, 3
24, 12
126, 72
110, 120
28, 100
27, 90
466, 557
2159, 2340
1582, 1356
213, 128
15, 24
20, 33
98, 114
342, 362
242, 219
35, 22
18, 6
29, 10
12, 6
2, 2
3, 4
1, 5
7, 6
6, 3
3, 7
6, 2
1, 2
5, 6
6, 4
6, 2
9, 4
6, 4
7, 9
21, 2
10, 3
4, 5
2, 11
2, 7
4, 8
0, 5
3, 4
5, 2
2, 1
4, 6
3, 2
4, 3
1, 4
3, 3
5, 0
1, 1
0, 1
2, 4
3, 0
3, 1
2, 0
4, 3
2, 5
2, 3
2, 3
1, 6
2, 3
0, 3
2, 2
4, 4
2, 2
5, 5
8, 1
2, 2
1, 0
0, 2
4, 3
1, 3
1, 1
2, 1
0, 1
1, 2
2, 1
1, 1
2, 1
0, 0
1, 1
0, 2
1, 1
1, 1
0, 1
2, 1
3, 0
1, 0
0, 2
0, 2
0, 0
0, 0
0, 2
0, 0
0, 1
0, 1
0, 0
0, 1
0, 0
1, 1
0, 0
0, 0
0, 0
1, 1
1, 0
1, 0
0, 0
0, 0
0, 0
1, 0
1, 0
0, 1
0, 1
0, 0
1, 0
0, 0
0, 0
0, 0
0, 0
0, 0
0, 2
0, 0
0, 1
0, 1
0, 0
0, 1
0, 0
0, 0
0, 0
1, 0
0, 0
0, 1
2, 0
1, 0
0, 0
0, 0
1, 0
0, 0
0, 1
0, 0
0, 0
0, 0
0, 1
0, 0
0, 0
0, 0
0, 0
0, 0
0, 0
0, 0
0, 0
0, 0
0, 0
0, 0
0, 0
0, 0
1, 0
0, 0
0, 0
0, 0
0, 0
0, 0
0, 0
0, 0
0, 1
0, 0
0, 0
0, 0
0, 0
0, 0
0, 0
0, 0
0, 0
0, 0
0, 0
0, 0
0, 0
0, 0
0, 0
0, 0
0, 0
0, 0
0, 0
0, 0
0, 0
0, 0
0, 0
0, 0
0, 0
0, 0
0, 0
0, 0
0, 0
0, 0
0, 0
0, 0
0, 0
0, 0
0, 0
0, 0
0, 0
0, 0
0, 0
0, 0
0, 0
0, 0
0, 0
0, 0
0, 0
0, 0
0, 0
0, 0
0, 0
0, 0
0, 0
0, 0
0, 0
0, 0
0, 0
0, 0
0, 0
0, 0
0, 0
0, 0
0, 0
0, 0
0, 0
0, 0
0, 0
0, 0
0, 0
0, 0
0, 0
0, 0
0, 0
0, 0
0, 0
0, 0
0, 0
0, 0
0, 0
0, 0
0, 0
#ENDOFDATA     end of spectrum data

File: ps__0852shot_2315.msa
#FORMAT      : EMSA/MAS spectral data file
#VERSION     : TC202v2.0 PIXL
#TITLE       : N/A
#DATE        :       Date in the format DD-MMM-YYYY, for example 07-JUL-2010
#TIME        :             The time of day at which the spectrum was recorded, in 24-hour format
#OWNER       : PIXL Flight Model       (PIXL will use this to indicate which instrument took the data.)
#NPOINTS     : 4096     Number of data points in the spectrum (This can be zero for configuration only files)
#NCOLUMNS    : 2     Number of data columns in the spectrum (This can be zero for configuration only files)
#XUNITS      : eV
#YUNITS      : COUNTS
#DATATYPE    : YY
#XPERCHAN    : 7.862, 7.881   eV per channel (separate by commas if more than one detector)
#OFFSET      : 18.5, -22.4         eV of first channel  (separate by commas if more than one detector
#SIGNALTYPE  : XRF
#YP_TEMP     : 2.428
#LIVETIME    : 8.58143, 8.57525   seconds (separate by commas if more than one detector)
#REALTIME    : 10, 10.0   seconds (separate by commas if more than one detector)
#SPECTRUM    : start of spectrum data
0, 0
0, 0
0, 0
0, 0
0, 0
0, 0
0, 0
0, 0
0, 0
2, 0
5, 4
53, 36
43, 57
6, 3
3, 0
103, 90
392, 458
99, 94
6, 9
0, 1
3, 1
5, 4
0, 2
12, 7
67, 25
68, 32
129, 18
157, 19
14, 7
2, 3
2, 0
1, 2
4, 6
8, 18
12, 9
4, 4
3, 3
1, 4
1, 4
1, 7
11, 9
50, 7
102, 12
61, 10
8, 8
5, 10
4, 7
2, 6
4, 10
16, 18
11, 8
7, 8
30, 12
71, 71
76, 118
26, 109
33, 106
456, 589
2104, 2384
1529, 1328
194, 148
17, 13
18, 19
109, 130
342, 351
228, 190
27, 20
5, 10
13, 20
8, 3
7, 5
5, 3
2, 5
4, 6
4, 0
8, 5
4, 4
3, 7
4, 1
2, 5
7, 6
3, 5
4, 1
12, 4
16, 3
17, 2
9, 6
2, 8
0, 2
1, 2
3, 4
5, 2
8, 1
3, 1
7, 3
2, 2
2, 2
7, 6
3, 3
0, 1
2, 2
1, 3
3, 3
1, 4
1, 1
3, 3
1, 7
0, 5
0, 2
1, 3
0, 4
2, 5
0, 5
2, 3
4, 2
1, 3
3, 3
5, 3
1, 0
0, 0
2, 3
3, 1
4, 3
3, 4
4, 2
2, 1
1, 0
2, 1
0, 0
1, 0
0, 1
0, 1
2, 4
1, 1
0, 1
1, 0
0, 0
0, 0
0, 1
1, 2
0, 0
1, 0
1, 1
0, 0
1, 0
1, 0
0, 0
0, 1
1, 0
1, 1
1, 4
0, 0
0, 0
0, 0
1, 0
0, 0
0, 0
0, 0
0, 0
0, 0
0, 0
0, 0
0, 0
0, 0
1, 1
0, 0
0, 0
1, 0
0, 0
0, 1
0, 2
0, 1
0, 0
1, 0
0, 0
0, 0
0, 0
0, 0
0, 0
0, 0
0, 0
1, 0
0, 0
0, 0
0, 0
0, 0
0, 0
0, 0
0, 0
0, 1
0, 0
0, 0
0, 0
0, 0
0, 0
0, 0
0, 0
0, 0
0, 0
0, 0
0, 0
0, 0
0, 0
0, 0
0, 0
0, 0
0, 0
0, 0
0, 0
0, 0
0, 0
0, 0
0, 0
0, 0
0, 0
0, 0
0, 0
0, 0
0, 0
0, 0
0, 0
0, 0
0, 0
0, 0
0, 0
0, 0
0, 0
0, 0
0, 0
0, 0
0, 0
0, 0
0, 0
0, 0
0, 0
0, 0
0, 0
0, 0
0, 0
0, 0
0, 0
0, 0
0, 0
0, 0
0, 0
0, 0
0, 0
0, 0
0, 0
0, 0
0, 0
0, 0
0, 0
0, 0
0, 0
0, 0
0, 0
0, 0
0, 0
0, 0
0, 0
0, 0
0, 0
0, 0
0, 0
0, 0
0, 0
0, 0
0, 0
0, 0
0, 0
0, 0
0, 0
0, 0
0, 0
0, 0
0, 0
0, 0
0, 0
0, 0
0, 0
0, 0
0, 0
0, 0
0, 0
0, 0
0, 0
0, 0
0, 0
0, 0
0, 0
0, 0
0, 0
0, 0
#ENDOFDATA     end of spectrum data

File: ps__0852shot_2316.msa
#FORMAT      : EMSA/MAS spectral data file
#VERSION     : TC202v2.0 PIXL
#TITLE       : N/A
#DATE        :       Date in the format DD-MMM-YYYY, for example 07-JUL-2010
#TIME        :             The time of day at which the spectrum was recorded, in 24-hour format
#OWNER       : PIXL Flight Model       (PIXL will use this to indicate which instrument took the data.)
#NPOINTS     : 4096     Number of data points in the spectrum (This can be zero for configuration only files)
#NCOLUMNS    : 2     Number of data columns in the spectrum (This can be zero for configuration only files)
#XUNITS      : eV
#YUNITS      : COUNTS
#DATATYPE    : YY
#XPERCHAN    : 7.862, 7.881   eV per channel (separate by commas if more than one detector)
#OFFSET      : 18.5, -22.4         eV of first channel  (separate by commas if more than one detector
#SIGNALTYPE  : XRF
#YP_TEMP     : 2.203
#LIVETIME    : 8.57638, 8.56464   seconds (separate by commas if more than one detector)
#REALTIME    : 10, 10.0   seconds (separate by commas if more than one detector)
#SPECTRUM    : start of spectrum data
0, 0
0, 0
0, 0
0, 0
0, 0
0, 0
0, 0
0, 0
1, 1
1, 1
2, 2
44, 49
60, 46
5, 3
5, 8
101, 115
403, 445
102, 80
6, 10
2, 1
4, 2
16, 28
12, 10
12, 10
101, 45
107, 38
53, 22
53, 10
6, 3
2, 3
1, 5
3, 4
2, 2
16, 15
24, 30
9, 1
8, 6
8, 5
4, 5
5, 4
3, 5
12, 7
31, 13
18, 9
9, 9
4, 5
8, 3
4, 4
16, 7
24, 15
11, 6
3, 7
13, 13
47, 40
70, 65
30, 23
37, 47
456, 607
2186, 2466
1626, 1472
220, 154
11, 19
17, 23
108, 135
362, 387
222, 195
33, 17
15, 9
15, 12
8, 13
3, 6
3, 1
2, 5
8, 2
3, 7
7, 0
3, 4
7, 7
7, 7
5, 13
4, 3
0, 3
5, 4
7, 2
0, 1
3, 5
1, 3
4, 6
2, 1
2, 3
14, 0
28, 3
32, 1
5, 3
1, 4
2, 6
3, 4
5, 2
1, 3
1, 2
3, 2
2, 2
1, 0
4, 2
4, 1
5, 0
7, 3
3, 1
2, 2
2, 3
0, 1
2, 1
1, 4
0, 3
4, 2
3, 5
2, 2
2, 5
0, 0
2, 1
1, 2
2, 2
1, 2
2, 0
0, 1
1, 1
0, 0
1, 2
0, 2
0, 1
1, 1
1, 0
0, 1
0, 1
1, 1
1, 0
2, 0
0, 2
1, 1
0, 0
1, 1
2, 0
1, 1
0, 0
0, 2
1, 0
3, 1
0, 0
0, 0
1, 0
0, 2
1, 0
0, 0
1, 0
0, 0
0, 1
0, 0
0, 0
0, 0
0, 0
0, 0
0, 0
0, 0
1, 0
0, 0
0, 0
0, 0
0, 0
0, 0
0, 0
0, 1
0, 1
0, 0
0, 0
0, 0
0, 0
0, 0
0, 0
0, 0
0, 0
0, 0
0, 1
0, 0
0, 0
0, 0
0, 0
0, 0
0, 0
0, 0
1, 1
0, 0
0, 0
0, 0
0, 0
0, 0
0, 0
0, 0
0, 0
0, 1
0, 0
0, 0
0, 0
0, 0
0, 0
0, 0
0, 0
0, 0
0, 0
0, 0
0, 0
0, 0
0, 0
0, 0
0, 0
0, 0
0, 0
0, 0
0, 0
0, 0
0, 0
0, 0
0, 0
0, 0
0, 0
0, 0
0, 0
0, 0
0, 0
0, 0
0, 0
0, 0
0, 0
0, 0
0, 0
0, 0
0, 0
0, 0
0, 0
0, 0
0, 0
0, 0
0, 0
0, 0
0, 0
0, 0
0, 0
0, 0
0, 0
0, 0
0, 0
0, 0
0, 0
0, 0
0, 0
0, 0
0, 0
0, 0
0, 0
0, 0
0, 0
0, 0
0, 0
0, 0
0, 0
0, 0
0, 0
0, 0
0, 0
0, 0
0, 0
0, 0
0, 0
0, 0
0, 0
0, 0
0, 0
0, 0
0, 0
0, 0
0, 0
0, 0
0, 0
0, 0
0, 0
0, 0
0, 0
0, 0
0, 0
0, 0
0, 0
0, 0
0, 0
0, 0
0, 0
#ENDOFDATA     end of spectrum data

File: ps__0852shot_2317.msa
#FORMAT      : EMSA/MAS spectral data file
#VERSION     : TC202v2.0 PIXL
#TITLE       : N/A
#DATE        :       Date in the format DD-MMM-YYYY, for example 07-JUL-2010
#TIME        :             The time of day at which the spectrum was recorded, in 24-hour format
#OWNER       : PIXL Flight Model       (PIXL will use this to indicate which instrument took the data.)
#NPOINTS     : 4096     Number of data points in the spectrum (This can be zero for configuration only files)
#NCOLUMNS    : 2     Number of data columns in the spectrum (This can be zero for configuration only files)
#XUNITS      : eV
#YUNITS      : COUNTS
#DATATYPE    : YY
#XPERCHAN    : 7.862, 7.881   eV per channel (separate by commas if more than one detector)
#OFFSET      : 18.5, -22.4         eV of first channel  (separate by commas if more than one detector
#SIGNALTYPE  : XRF
#YP_TEMP     : 2.62
#LIVETIME    : 8.5693, 8.5395   seconds (separate by commas if more than one detector)
#REALTIME    : 10, 10.0   seconds (separate by commas if more than one detector)
#SPECTRUM    : start of spectrum data
0, 0
0, 0
0, 0
0, 0
0, 0
0, 0
0, 0
0, 0
0, 3
3, 1
5, 4
37, 42
43, 44
7, 5
7, 5
71, 96
359, 429
79, 107
15, 17
13, 7
13, 19
98, 123
40, 42
21, 22
117, 80
112, 62
33, 29
20, 9
5, 8
5, 7
4, 7
3, 1
6, 8
90, 106
136, 155
31, 24
14, 20
23, 32
9, 7
4, 6
9, 6
14, 16
15, 12
29, 21
28, 8
7, 4
8, 7
5, 5
6, 12
17, 23
13, 17
9, 9
8, 10
43, 56
53, 92
19, 26
34, 47
379, 624
1757, 2438
1310, 1413
167, 144
18, 15
21, 26
90, 130
290, 344
194, 222
25, 27
16, 10
13, 12
13, 4
2, 5
4, 4
4, 3
3, 5
4, 3
4, 10
6, 3
5, 3
4, 6
4, 8
2, 2
1, 2
4, 6
2, 6
5, 7
5, 3
5, 2
3, 4
5, 4
2, 4
13, 2
20, 4
17, 2
4, 4
3, 4
2, 4
4, 9
2, 3
0, 3
4, 3
1, 5
1, 4
6, 3
0, 5
6, 1
9, 2
1, 1
2, 0
4, 3
2, 1
0, 5
3, 0
1, 0
2, 1
2, 2
1, 5
4, 10
3, 2
0, 0
0, 0
1, 2
0, 2
1, 5
5, 1
0, 4
1, 0
1, 2
1, 1
0, 1
1, 1
1, 0
0, 0
1, 1
1, 0
0, 0
0, 3
0, 1
0, 1
0, 1
0, 1
0, 0
0, 1
0, 1
0, 0
1, 3
0, 0
0, 0
1, 0
1, 0
0, 1
0, 0
0, 1
1, 0
0, 0
0, 0
1, 0
0, 0
1, 0
0, 0
0, 0
0, 0
0, 0
0, 0
0, 0
0, 0
3, 1
0, 0
0, 0
0, 0
0, 0
0, 0
1, 2
1, 0
0, 1
0, 0
0, 0
1, 0
0, 0
0, 0
0, 0
0, 0
0, 0
0, 0
0, 0
1, 1
0, 0
0, 0
1, 0
0, 1
1, 0
0, 0
0, 0
0, 0
0, 0
0, 0
0, 0
0, 0
0, 0
0, 0
0, 1
0, 0
0, 0
0, 0
0, 0
0, 0
0, 0
0, 0
0, 0
0, 0
0, 0
0, 0
0, 0
0, 0
0, 0
0, 0
0, 0
0, 0
0, 0
0, 0
0, 0
0, 0
0, 0
0, 0
0, 0
0, 0
0, 0
0, 0
0, 0
0, 0
0, 0
0, 0
0, 0
0, 0
0, 0
0, 0
0, 0
0, 0
0, 0
0, 0
0, 0
0, 0
0, 0
0, 0
0, 0
0, 0
0, 0
0, 0
0, 0
0, 0
0, 0
0, 0
0, 0
0, 0
0, 0
0, 0
0, 0
0, 0
0, 0
0, 0
0, 0
0, 0
0, 0
0, 0
0, 0
0, 0
0, 0
0, 0
0, 0
0, 0
0, 0
0, 0
0, 0
0, 0
0, 0
0, 0
0, 0
0, 0
0, 0
0, 0
0, 0
0, 0
0, 0
0, 0
0, 0
0, 0
0, 0
0, 0
0, 0
0, 0
0, 0
0, 0
0, 0
0, 0
0, 0
#ENDOFDATA     end of spectrum data