Folder: data-repository/host_upload/06-09-2024/ps_0852/dump3 (part 37)

File: ps__0852shot_2328.msa
#FORMAT      : EMSA/MAS spectral data file
#VERSION     : TC202v2.0 PIXL
#TITLE       : N/A
#DATE        :       Date in the format DD-MMM-YYYY, for example 07-JUL-2010
#TIME        :             The time of day at which the spectrum was recorded, in 24-hour format
#OWNER       : PIXL Flight Model       (PIXL will use this to indicate which instrument took the data.)
#NPOINTS     : 4096     Number of data points in the spectrum (This can be zero for configuration only files)
#NCOLUMNS    : 2     Number of data columns in the spectrum (This can be zero for configuration only files)
#XUNITS      : eV
#YUNITS      : COUNTS
#DATATYPE    : YY
#XPERCHAN    : 7.862, 7.881   eV per channel (separate by commas if more than one detector)
#OFFSET      : 18.5, -22.4         eV of first channel  (separate by commas if more than one detector
#SIGNALTYPE  : XRF
#YP_TEMP     : 2.332
#LIVETIME    : 8.57972, 8.55791   seconds (separate by commas if more than one detector)
#REALTIME    : 10, 10.0   seconds (separate by commas if more than one detector)
#SPECTRUM    : start of spectrum data
0, 0
0, 0
0, 0
0, 0
0, 0
0, 0
0, 0
0, 0
0, 2
3, 1
4, 6
43, 50
63, 59
6, 1
2, 8
90, 102
413, 400
113, 86
7, 5
2, 0
5, 3
25, 24
16, 8
9, 5
31, 35
65, 21
40, 16
21, 9
5, 5
1, 4
2, 4
3, 5
7, 2
40, 31
65, 45
17, 6
5, 7
10, 8
8, 8
4, 2
2, 4
13, 6
17, 9
12, 12
4, 6
6, 10
8, 7
8, 8
7, 9
17, 11
35, 20
46, 17
15, 19
43, 42
62, 85
32, 39
26, 41
454, 571
2316, 2083
1605, 1198
203, 120
19, 20
16, 26
101, 110
358, 331
249, 195
39, 29
8, 13
11, 14
8, 8
7, 3
3, 6
7, 4
7, 4
7, 5
9, 7
6, 12
8, 11
8, 7
8, 8
1, 4
3, 2
1, 2
5, 5
6, 7
2, 6
6, 0
3, 3
3, 6
3, 8
3, 2
3, 3
0, 1
3, 2
2, 1
1, 5
6, 2
4, 1
6, 3
3, 4
5, 4
3, 1
3, 6
5, 3
3, 2
2, 4
2, 2
2, 3
1, 0
5, 2
4, 1
2, 1
4, 3
3, 1
1, 1
4, 3
5, 2
7, 5
1, 3
0, 1
4, 1
1, 1
2, 3
0, 1
0, 0
1, 2
0, 1
0, 1
2, 0
1, 0
2, 1
1, 0
0, 4
1, 3
0, 2
0, 1
1, 0
0, 0
0, 1
1, 1
1, 0
0, 3
0, 0
0, 0
0, 0
1, 1
2, 0
0, 0
0, 0
0, 0
0, 0
5, 2
1, 0
0, 0
0, 0
0, 0
0, 1
0, 0
0, 0
0, 1
0, 0
1, 1
0, 0
0, 0
1, 1
0, 0
0, 0
0, 1
2, 1
0, 0
0, 0
0, 0
0, 1
1, 0
0, 1
0, 0
1, 0
0, 0
0, 0
0, 0
0, 0
0, 0
0, 0
0, 0
0, 0
0, 1
0, 0
0, 0
0, 0
0, 0
0, 0
0, 1
0, 0
0, 0
0, 0
0, 0
0, 0
0, 0
0, 0
0, 0
0, 0
0, 0
0, 0
0, 0
0, 0
0, 0
0, 0
0, 0
0, 0
0, 0
0, 0
0, 0
0, 0
0, 0
0, 0
0, 0
0, 0
0, 0
0, 0
0, 0
0, 0
0, 0
0, 0
0, 0
0, 0
0, 0
0, 0
0, 0
0, 0
0, 0
0, 0
0, 0
0, 0
0, 0
0, 0
0, 0
0, 0
0, 0
0, 0
0, 0
0, 0
0, 0
1, 0
0, 0
0, 0
0, 0
0, 0
0, 0
0, 0
0, 0
0, 0
0, 0
0, 0
0, 0
0, 0
0, 0
0, 0
0, 0
0, 0
0, 0
0, 0
0, 0
0, 0
0, 0
0, 0
0, 0
0, 0
0, 0
0, 0
0, 0
0, 0
0, 0
0, 0
0, 0
0, 0
0, 0
0, 0
0, 0
0, 0
0, 0
0, 0
0, 0
0, 0
0, 0
0, 0
0, 0
0, 0
0, 0
0, 0
0, 0
0, 0
0, 0
0, 0
0, 0
#ENDOFDATA     end of spectrum data

File: ps__0852shot_2329.msa
#FORMAT      : EMSA/MAS spectral data file
#VERSION     : TC202v2.0 PIXL
#TITLE       : N/A
#DATE        :       Date in the format DD-MMM-YYYY, for example 07-JUL-2010
#TIME        :             The time of day at which the spectrum was recorded, in 24-hour format
#OWNER       : PIXL Flight Model       (PIXL will use this to indicate which instrument took the data.)
#NPOINTS     : 4096     Number of data points in the spectrum (This can be zero for configuration only files)
#NCOLUMNS    : 2     Number of data columns in the spectrum (This can be zero for configuration only files)
#XUNITS      : eV
#YUNITS      : COUNTS
#DATATYPE    : YY
#XPERCHAN    : 7.862, 7.881   eV per channel (separate by commas if more than one detector)
#OFFSET      : 18.5, -22.4         eV of first channel  (separate by commas if more than one detector
#SIGNALTYPE  : XRF
#YP_TEMP     : 2.364
#LIVETIME    : 8.56697, 8.55527   seconds (separate by commas if more than one detector)
#REALTIME    : 10, 10.0   seconds (separate by commas if more than one detector)
#SPECTRUM    : start of spectrum data
0, 0
0, 0
0, 0
0, 0
0, 0
0, 0
0, 0
0, 0
1, 0
2, 2
4, 0
41, 37
59, 53
6, 4
9, 3
88, 94
457, 388
95, 98
3, 7
3, 2
5, 6
32, 14
17, 7
8, 9
47, 43
98, 39
75, 28
21, 13
8, 4
4, 3
2, 2
3, 2
4, 1
18, 11
16, 12
9, 2
6, 2
9, 2
6, 5
11, 3
5, 4
9, 6
10, 12
5, 10
5, 4
7, 3
5, 5
6, 6
3, 6
15, 13
35, 13
52, 8
28, 11
40, 31
57, 69
27, 73
43, 63
442, 592
2302, 2262
1670, 1356
165, 133
28, 25
15, 27
107, 122
343, 373
234, 184
38, 30
7, 9
14, 18
9, 4
5, 7
3, 10
4, 6
4, 2
3, 5
7, 13
16, 29
9, 11
5, 7
3, 3
3, 1
8, 3
3, 7
4, 2
5, 1
4, 3
2, 3
4, 3
3, 4
4, 5
2, 4
2, 5
3, 4
4, 1
2, 1
3, 2
1, 0
3, 3
2, 6
4, 4
4, 1
2, 1
3, 3
0, 2
0, 3
3, 1
2, 3
4, 1
3, 1
2, 3
2, 5
0, 1
4, 2
1, 2
3, 5
0, 5
0, 1
0, 2
3, 2
2, 3
2, 0
0, 1
1, 4
5, 2
2, 3
1, 0
2, 1
1, 1
3, 0
1, 0
2, 0
0, 1
2, 2
0, 0
1, 0
1, 1
0, 1
0, 0
2, 1
0, 1
1, 0
1, 0
1, 0
0, 0
0, 0
3, 0
0, 3
0, 0
0, 0
0, 1
0, 2
0, 0
1, 0
0, 0
0, 0
0, 0
0, 0
0, 0
0, 0
0, 0
0, 0
0, 0
0, 0
1, 0
0, 0
1, 1
1, 0
1, 0
1, 0
0, 0
0, 0
1, 0
0, 0
1, 1
0, 0
0, 0
0, 0
0, 1
0, 0
1, 0
0, 0
0, 0
0, 1
0, 0
0, 0
0, 0
0, 0
1, 0
0, 0
1, 0
0, 0
0, 0
0, 0
0, 0
0, 0
0, 0
0, 0
0, 0
0, 0
0, 0
0, 0
0, 0
0, 0
0, 0
0, 0
0, 0
0, 0
0, 0
0, 0
0, 0
0, 0
1, 0
0, 0
0, 0
0, 0
0, 0
0, 0
0, 0
0, 0
0, 0
0, 0
0, 0
0, 0
0, 0
0, 0
0, 0
0, 0
0, 0
0, 0
0, 0
0, 0
0, 0
0, 0
0, 0
0, 0
0, 0
0, 0
0, 0
0, 0
0, 0
0, 0
0, 0
0, 0
0, 0
0, 0
0, 0
0, 0
0, 0
0, 0
0, 0
0, 0
0, 0
0, 0
0, 0
0, 0
0, 0
0, 0
0, 0
0, 0
0, 0
0, 0
0, 0
0, 0
0, 0
0, 0
0, 0
0, 0
0, 0
0, 0
0, 0
0, 0
0, 0
0, 0
0, 0
0, 0
0, 0
0, 0
0, 0
0, 0
0, 0
0, 0
0, 0
0, 0
0, 0
0, 0
0, 0
0, 0
0, 0
0, 0
0, 0
0, 0
0, 0
0, 0
0, 0
#ENDOFDATA     end of spectrum data

File: ps__0852shot_2330.msa
#FORMAT      : EMSA/MAS spectral data file
#VERSION     : TC202v2.0 PIXL
#TITLE       : N/A
#DATE        :       Date in the format DD-MMM-YYYY, for example 07-JUL-2010
#TIME        :             The time of day at which the spectrum was recorded, in 24-hour format
#OWNER       : PIXL Flight Model       (PIXL will use this to indicate which instrument took the data.)
#NPOINTS     : 4096     Number of data points in the spectrum (This can be zero for configuration only files)
#NCOLUMNS    : 2     Number of data columns in the spectrum (This can be zero for configuration only files)
#XUNITS      : eV
#YUNITS      : COUNTS
#DATATYPE    : YY
#XPERCHAN    : 7.862, 7.881   eV per channel (separate by commas if more than one detector)
#OFFSET      : 18.5, -22.4         eV of first channel  (separate by commas if more than one detector
#SIGNALTYPE  : XRF
#YP_TEMP     : 2.267
#LIVETIME    : 8.54285, 8.54825   seconds (separate by commas if more than one detector)
#REALTIME    : 10, 10.0   seconds (separate by commas if more than one detector)
#SPECTRUM    : start of spectrum data
0, 0
0, 0
0, 0
0, 0
0, 0
0, 0
0, 0
0, 0
1, 1
1, 0
5, 1
39, 37
66, 51
8, 4
9, 2
85, 109
440, 429
104, 91
6, 12
2, 1
9, 14
49, 59
26, 18
11, 15
43, 42
77, 46
81, 16
16, 20
6, 4
1, 3
1, 1
3, 4
5, 3
15, 20
22, 19
5, 3
6, 10
4, 10
3, 4
4, 4
5, 3
6, 10
22, 23
20, 19
12, 8
6, 5
10, 4
10, 6
11, 13
33, 15
54, 17
63, 6
29, 7
28, 44
49, 76
25, 62
32, 60
464, 620
2237, 2325
1544, 1369
208, 144
17, 22
25, 26
90, 141
328, 350
227, 191
37, 42
13, 14
6, 17
10, 5
6, 0
6, 6
5, 4
5, 2
7, 5
5, 10
8, 19
10, 11
10, 4
4, 3
3, 4
5, 6
4, 1
2, 3
5, 7
5, 5
2, 3
1, 2
1, 5
2, 4
3, 3
4, 2
6, 1
4, 2
1, 2
2, 3
4, 1
2, 4
2, 4
4, 4
2, 2
6, 4
3, 2
2, 3
0, 3
0, 1
5, 3
1, 3
2, 0
3, 0
0, 2
1, 2
1, 2
1, 1
2, 2
1, 6
4, 2
4, 4
1, 5
2, 2
1, 3
1, 2
0, 1
1, 4
1, 1
1, 0
1, 0
1, 0
0, 1
1, 0
1, 1
0, 1
0, 0
0, 1
0, 0
2, 1
1, 1
0, 1
0, 0
0, 0
0, 0
1, 0
0, 3
1, 0
1, 0
0, 0
0, 0
2, 1
0, 0
1, 1
0, 0
0, 0
0, 0
1, 0
0, 0
0, 0
0, 0
0, 0
0, 1
0, 0
0, 1
0, 1
0, 1
0, 0
0, 0
1, 0
0, 0
0, 0
1, 0
0, 1
0, 0
0, 0
0, 0
0, 0
1, 1
0, 0
0, 0
0, 0
0, 0
0, 0
0, 0
0, 0
0, 0
1, 0
1, 0
0, 0
0, 0
0, 0
0, 0
0, 0
0, 0
0, 0
0, 0
0, 0
0, 0
0, 0
0, 0
0, 0
0, 0
0, 0
0, 0
0, 0
0, 1
0, 0
0, 0
0, 0
0, 0
0, 0
0, 0
0, 0
0, 0
0, 0
0, 0
0, 0
0, 0
0, 0
0, 0
0, 0
0, 0
0, 0
0, 0
0, 0
0, 0
0, 0
0, 0
0, 0
0, 0
0, 0
0, 0
0, 0
0, 0
0, 0
0, 0
0, 0
0, 0
0, 0
0, 0
0, 0
0, 0
0, 0
0, 0
0, 0
0, 0
0, 0
0, 0
0, 0
0, 0
0, 0
0, 0
0, 0
0, 0
0, 0
0, 0
0, 0
0, 0
0, 0
0, 0
0, 0
0, 0
0, 0
0, 0
0, 0
0, 0
0, 0
0, 0
0, 0
0, 0
0, 0
0, 0
0, 0
0, 0
0, 0
0, 0
0, 0
0, 0
0, 0
0, 0
0, 0
0, 0
0, 0
0, 0
0, 0
0, 0
0, 0
0, 0
0, 0
0, 0
0, 0
0, 0
0, 0
0, 0
0, 0
0, 0
0, 0
#ENDOFDATA     end of spectrum data

File: ps__0852shot_2331.msa
#FORMAT      : EMSA/MAS spectral data file
#VERSION     : TC202v2.0 PIXL
#TITLE       : N/A
#DATE        :       Date in the format DD-MMM-YYYY, for example 07-JUL-2010
#TIME        :             The time of day at which the spectrum was recorded, in 24-hour format
#OWNER       : PIXL Flight Model       (PIXL will use this to indicate which instrument took the data.)
#NPOINTS     : 4096     Number of data points in the spectrum (This can be zero for configuration only files)
#NCOLUMNS    : 2     Number of data columns in the spectrum (This can be zero for configuration only files)
#XUNITS      : eV
#YUNITS      : COUNTS
#DATATYPE    : YY
#XPERCHAN    : 7.862, 7.881   eV per channel (separate by commas if more than one detector)
#OFFSET      : 18.5, -22.4         eV of first channel  (separate by commas if more than one detector
#SIGNALTYPE  : XRF
#YP_TEMP     : 2.428
#LIVETIME    : 8.54389, 8.35262   seconds (separate by commas if more than one detector)
#REALTIME    : 10, 10.0   seconds (separate by commas if more than one detector)
#SPECTRUM    : start of spectrum data
0, 0
0, 0
0, 0
0, 0
0, 0
0, 0
0, 0
0, 1
0, 0
2, 2
1, 3
40, 30
54, 44
8, 7
4, 5
82, 95
422, 399
102, 101
8, 6
6, 3
16, 20
98, 101
49, 44
11, 11
55, 43
62, 49
34, 22
16, 17
4, 5
2, 1
2, 3
4, 4
6, 7
64, 49
80, 61
19, 13
16, 11
22, 13
7, 12
4, 4
9, 8
7, 14
10, 24
18, 16
6, 9
7, 5
11, 6
18, 5
16, 8
58, 12
60, 13
22, 6
16, 12
42, 40
63, 60
23, 37
38, 49
462, 571
2171, 2118
1546, 1251
218, 118
29, 16
31, 15
87, 105
317, 383
239, 186
35, 31
7, 13
13, 17
7, 8
5, 7
2, 2
3, 5
3, 3
2, 3
7, 7
6, 11
2, 7
9, 9
2, 6
5, 3
5, 1
7, 3
3, 6
4, 8
5, 14
4, 4
2, 7
2, 6
5, 6
7, 4
5, 3
2, 4
9, 1
6, 1
3, 2
1, 3
7, 3
4, 4
3, 3
3, 3
1, 1
2, 3
0, 7
4, 2
2, 4
1, 0
2, 2
1, 3
1, 2
0, 2
5, 4
1, 1
1, 2
1, 1
4, 1
1, 1
1, 2
4, 2
0, 0
2, 2
1, 0
2, 1
2, 1
0, 0
1, 4
2, 2
3, 0
2, 0
1, 0
1, 2
3, 1
2, 0
3, 0
2, 1
1, 1
1, 0
0, 2
0, 0
0, 1
1, 2
0, 1
1, 0
0, 0
1, 0
0, 0
0, 1
0, 0
0, 0
0, 0
0, 1
1, 1
0, 0
0, 0
0, 0
0, 0
0, 0
0, 0
1, 0
0, 0
0, 0
0, 0
0, 0
0, 1
0, 0
0, 1
0, 0
0, 0
0, 1
1, 0
0, 0
0, 1
1, 0
0, 0
0, 0
0, 1
0, 0
1, 1
0, 0
0, 0
0, 0
0, 0
0, 0
0, 0
1, 1
0, 0
0, 1
1, 0
0, 0
0, 0
0, 0
0, 1
0, 0
0, 0
0, 0
0, 0
0, 0
0, 0
0, 0
0, 0
0, 0
0, 0
0, 0
0, 0
1, 0
0, 0
0, 0
0, 0
0, 0
0, 0
0, 0
0, 0
0, 0
0, 0
0, 0
0, 0
0, 0
0, 0
0, 0
0, 0
0, 0
0, 0
0, 0
0, 0
0, 0
0, 0
0, 0
0, 0
0, 0
0, 0
0, 0
0, 0
0, 0
0, 0
0, 0
0, 0
0, 0
0, 0
0, 0
0, 0
0, 0
0, 0
0, 0
0, 0
0, 0
0, 0
0, 0
0, 0
0, 0
0, 0
0, 0
0, 0
0, 0
0, 0
0, 0
0, 0
0, 0
0, 0
0, 0
0, 0
0, 0
0, 0
0, 0
0, 0
0, 0
0, 0
0, 0
0, 0
0, 0
0, 0
0, 0
0, 0
0, 0
0, 0
0, 0
0, 0
0, 0
0, 0
0, 0
0, 0
0, 0
0, 0
0, 0
0, 0
0, 0
0, 0
0, 0
0, 0
0, 0
0, 0
0, 0
0, 0
0, 0
0, 0
#ENDOFDATA     end of spectrum data

File: ps__0852shot_2332.msa
#FORMAT      : EMSA/MAS spectral data file
#VERSION     : TC202v2.0 PIXL
#TITLE       : N/A
#DATE        :       Date in the format DD-MMM-YYYY, for example 07-JUL-2010
#TIME        :             The time of day at which the spectrum was recorded, in 24-hour format
#OWNER       : PIXL Flight Model       (PIXL will use this to indicate which instrument took the data.)
#NPOINTS     : 4096     Number of data points in the spectrum (This can be zero for configuration only files)
#NCOLUMNS    : 2     Number of data columns in the spectrum (This can be zero for configuration only files)
#XUNITS      : eV
#YUNITS      : COUNTS
#DATATYPE    : YY
#XPERCHAN    : 7.862, 7.881   eV per channel (separate by commas if more than one detector)
#OFFSET      : 18.5, -22.4         eV of first channel  (separate by commas if more than one detector
#SIGNALTYPE  : XRF
#YP_TEMP     : 2.428
#LIVETIME    : 8.55344, 8.52717   seconds (separate by commas if more than one detector)
#REALTIME    : 10, 10.0   seconds (separate by commas if more than one detector)
#SPECTRUM    : start of spectrum data
0, 0
0, 0
0, 0
0, 0
0, 0
0, 0
0, 0
0, 0
0, 0
2, 0
1, 1
37, 40
79, 48
8, 5
10, 5
101, 85
437, 386
121, 80
5, 3
1, 3
17, 18
107, 93
39, 35
6, 15
29, 27
30, 38
14, 21
16, 5
4, 2
5, 4
4, 3
3, 1
2, 1
18, 16
36, 21
8, 11
7, 9
6, 8
5, 13
6, 10
2, 2
9, 11
7, 17
18, 25
10, 12
7, 9
6, 7
11, 4
14, 8
38, 18
35, 13
6, 5
13, 23
40, 52
60, 44
21, 21
64, 24
550, 520
2286, 2164
1686, 1189
226, 121
36, 17
32, 23
119, 123
332, 349
262, 189
26, 18
10, 6
10, 16
10, 10
6, 7
5, 6
4, 6
1, 6
6, 10
8, 6
8, 6
7, 3
11, 3
5, 4
6, 2
4, 3
4, 3
2, 7
3, 10
4, 10
3, 7
2, 4
8, 2
12, 4
15, 2
5, 3
3, 4
4, 2
5, 0
5, 0
0, 3
2, 3
3, 2
2, 3
3, 1
7, 1
3, 2
0, 2
1, 2
2, 3
1, 3
3, 1
1, 1
1, 2
4, 2
3, 1
2, 1
2, 2
2, 3
0, 3
4, 7
3, 4
0, 0
1, 1
1, 1
0, 1
1, 2
0, 2
0, 1
1, 1
0, 1
1, 2
0, 0
3, 1
1, 0
2, 0
0, 0
0, 0
1, 1
2, 0
0, 1
0, 0
0, 0
1, 0
0, 0
0, 2
1, 0
0, 0
0, 1
0, 0
1, 1
0, 1
1, 2
0, 0
0, 0
1, 0
0, 2
0, 0
0, 1
0, 0
0, 0
0, 0
0, 0
0, 0
0, 0
0, 0
1, 0
0, 1
3, 1
0, 1
0, 0
0, 0
1, 0
0, 0
0, 0
0, 0
2, 0
0, 0
0, 1
0, 0
0, 0
0, 0
0, 0
0, 0
0, 0
0, 0
1, 0
0, 0
0, 0
0, 0
0, 0
0, 0
0, 0
0, 0
1, 0
0, 0
0, 0
0, 1
0, 0
0, 0
0, 0
0, 0
0, 0
0, 0
0, 0
0, 0
0, 0
0, 0
0, 0
0, 0
0, 0
0, 0
0, 0
0, 0
0, 0
0, 0
0, 0
0, 0
0, 0
0, 0
0, 0
0, 0
0, 0
0, 0
0, 0
0, 0
0, 0
0, 0
0, 0
0, 0
0, 0
0, 0
0, 0
0, 0
0, 0
0, 0
0, 0
0, 0
0, 0
0, 0
0, 0
0, 0
0, 0
0, 0
0, 0
0, 0
0, 0
0, 0
0, 0
0, 0
0, 0
0, 0
0, 0
0, 0
0, 0
0, 0
0, 0
0, 0
0, 0
0, 0
0, 0
0, 0
0, 0
0, 0
0, 0
0, 0
0, 0
0, 0
0, 0
0, 0
0, 0
0, 0
0, 0
0, 0
0, 0
0, 0
0, 0
0, 0
0, 0
0, 0
0, 0
0, 0
0, 0
0, 0
0, 0
0, 0
0, 0
0, 0
0, 0
0, 0
0, 0
0, 0
0, 0
0, 0
0, 0
0, 0
0, 0
0, 0
#ENDOFDATA     end of spectrum data

File: ps__0852shot_2333.msa
#FORMAT      : EMSA/MAS spectral data file
#VERSION     : TC202v2.0 PIXL
#TITLE       : N/A
#DATE        :       Date in the format DD-MMM-YYYY, for example 07-JUL-2010
#TIME        :             The time of day at which the spectrum was recorded, in 24-hour format
#OWNER       : PIXL Flight Model       (PIXL will use this to indicate which instrument took the data.)
#NPOINTS     : 4096     Number of data points in the spectrum (This can be zero for configuration only files)
#NCOLUMNS    : 2     Number of data columns in the spectrum (This can be zero for configuration only files)
#XUNITS      : eV
#YUNITS      : COUNTS
#DATATYPE    : YY
#XPERCHAN    : 7.862, 7.881   eV per channel (separate by commas if more than one detector)
#OFFSET      : 18.5, -22.4         eV of first channel  (separate by commas if more than one detector
#SIGNALTYPE  : XRF
#YP_TEMP     : 2.364
#LIVETIME    : 8.56015, 8.53857   seconds (separate by commas if more than one detector)
#REALTIME    : 10, 10.0   seconds (separate by commas if more than one detector)
#SPECTRUM    : start of spectrum data
0, 0
0, 0
0, 0
0, 0
0, 0
0, 0
0, 0
0, 0
1, 0
0, 0
1, 2
43, 40
58, 52
10, 4
8, 2
103, 103
447, 411
109, 91
7, 4
3, 1
6, 11
62, 55
22, 21
13, 10
25, 25
30, 29
19, 13
6, 13
6, 2
4, 3
6, 5
1, 2
5, 3
13, 8
17, 13
7, 4
3, 4
3, 7
6, 26
8, 12
5, 6
12, 12
17, 18
22, 28
15, 19
11, 5
7, 13
8, 7
16, 8
22, 20
20, 11
12, 18
9, 24
43, 50
64, 59
65, 20
145, 27
566, 565
2302, 2271
1621, 1384
188, 132
15, 16
21, 24
101, 121
362, 371
215, 181
41, 30
15, 5
15, 15
6, 4
7, 3
7, 5
5, 4
2, 7
8, 5
6, 8
17, 4
31, 4
10, 9
2, 4
5, 4
3, 6
2, 1
8, 3
3, 6
1, 6
7, 4
6, 5
2, 4
7, 3
7, 8
3, 1
3, 1
3, 2
5, 5
6, 3
5, 6
0, 3
5, 1
2, 3
1, 0
2, 0
1, 3
3, 2
2, 1
1, 0
1, 2
1, 2
3, 2
2, 7
3, 1
0, 2
4, 1
1, 0
6, 2
3, 2
8, 8
1, 4
6, 1
1, 0
0, 3
1, 0
2, 3
6, 1
2, 2
2, 0
0, 1
0, 1
2, 0
1, 2
2, 1
0, 0
0, 1
2, 0
2, 0
0, 1
2, 0
1, 0
1, 0
2, 2
0, 0
2, 1
2, 2
0, 0
0, 2
0, 0
0, 0
0, 0
1, 0
1, 0
1, 0
1, 0
1, 1
1, 1
1, 1
0, 1
0, 0
0, 0
0, 0
0, 0
0, 0
0, 0
0, 1
0, 0
0, 0
0, 0
0, 0
1, 0
1, 0
0, 0
0, 0
0, 1
0, 0
0, 1
0, 2
0, 0
0, 0
1, 0
0, 0
0, 0
0, 0
0, 0
0, 0
0, 1
1, 1
0, 0
0, 0
0, 0
0, 0
0, 0
0, 0
0, 0
0, 0
0, 0
0, 0
0, 0
0, 0
0, 0
0, 0
0, 0
0, 0
0, 0
0, 0
0, 0
0, 0
0, 0
0, 0
0, 0
0, 0
0, 0
0, 0
0, 0
0, 0
0, 0
0, 0
0, 0
0, 0
0, 0
0, 0
0, 0
0, 0
0, 0
0, 0
0, 0
0, 0
0, 0
0, 0
0, 0
0, 0
0, 0
1, 0
0, 0
0, 0
0, 0
0, 0
0, 0
0, 0
0, 0
0, 0
0, 0
0, 0
0, 0
0, 0
0, 0
0, 0
0, 0
0, 0
0, 0
0, 0
0, 0
0, 0
0, 0
0, 0
0, 0
0, 0
0, 0
0, 0
0, 0
0, 0
0, 0
0, 0
0, 0
0, 0
0, 0
0, 0
0, 0
0, 0
0, 0
0, 0
0, 0
0, 0
0, 0
0, 0
0, 0
0, 0
0, 0
0, 0
0, 0
0, 0
0, 0
0, 0
0, 0
0, 0
0, 0
0, 0
0, 0
0, 0
0, 0
0, 0
0, 0
0, 0
0, 0
0, 0
0, 0
#ENDOFDATA     end of spectrum data

File: ps__0852shot_2334.msa
#FORMAT      : EMSA/MAS spectral data file
#VERSION     : TC202v2.0 PIXL
#TITLE       : N/A
#DATE        :       Date in the format DD-MMM-YYYY, for example 07-JUL-2010
#TIME        :             The time of day at which the spectrum was recorded, in 24-hour format
#OWNER       : PIXL Flight Model       (PIXL will use this to indicate which instrument took the data.)
#NPOINTS     : 4096     Number of data points in the spectrum (This can be zero for configuration only files)
#NCOLUMNS    : 2     Number of data columns in the spectrum (This can be zero for configuration only files)
#XUNITS      : eV
#YUNITS      : COUNTS
#DATATYPE    : YY
#XPERCHAN    : 7.862, 7.881   eV per channel (separate by commas if more than one detector)
#OFFSET      : 18.5, -22.4         eV of first channel  (separate by commas if more than one detector
#SIGNALTYPE  : XRF
#YP_TEMP     : 2.364
#LIVETIME    : 8.52701, 8.56506   seconds (separate by commas if more than one detector)
#REALTIME    : 10, 10.0   seconds (separate by commas if more than one detector)
#SPECTRUM    : start of spectrum data
0, 0
0, 0
0, 0
0, 0
0, 0
0, 0
0, 0
0, 0
3, 0
1, 1
5, 1
50, 44
61, 63
5, 5
2, 3
78, 100
459, 437
107, 95
3, 4
1, 1
6, 6
42, 36
20, 22
8, 11
34, 28
33, 40
27, 32
10, 15
6, 2
3, 2
0, 4
2, 1
7, 2
9, 5
8, 10
3, 6
6, 5
3, 4
3, 13
6, 4
6, 6
13, 6
17, 28
9, 52
9, 42
8, 19
7, 6
10, 5
5, 9
16, 14
15, 13
15, 10
16, 21
39, 43
69, 59
93, 24
215, 36
562, 661
2124, 2469
1629, 1457
219, 176
17, 20
13, 21
108, 117
364, 376
215, 199
39, 29
15, 3
13, 19
14, 11
8, 8
8, 6
11, 4
5, 5
6, 10
7, 7
19, 6
30, 1
9, 5
7, 3
2, 4
7, 3
2, 5
1, 4
5, 8
5, 4
3, 5
5, 6
3, 5
5, 5
1, 3
0, 3
2, 7
3, 5
3, 1
2, 0
3, 3
5, 0
3, 2
4, 2
4, 4
1, 4
2, 1
4, 2
3, 4
5, 2
1, 5
2, 4
2, 4
1, 6
3, 5
1, 4
5, 0
0, 0
1, 6
3, 6
3, 9
2, 4
4, 5
1, 0
1, 1
1, 1
1, 3
0, 2
1, 1
2, 2
2, 2
0, 0
0, 1
4, 1
2, 1
0, 0
0, 0
1, 1
1, 0
0, 1
1, 1
0, 0
1, 2
0, 1
0, 0
0, 1
0, 0
0, 1
1, 1
1, 0
0, 0
1, 1
0, 0
0, 4
1, 0
0, 0
0, 0
0, 0
1, 0
1, 0
1, 0
0, 0
0, 0
0, 1
0, 0
0, 0
0, 0
0, 0
0, 0
0, 1
1, 0
0, 0
0, 0
1, 0
1, 0
1, 0
0, 1
1, 0
0, 0
0, 0
1, 0
0, 0
0, 0
0, 0
1, 0
0, 1
0, 0
0, 0
0, 0
0, 0
0, 0
0, 0
0, 0
0, 0
0, 0
0, 0
0, 0
0, 1
0, 0
0, 0
0, 0
0, 0
0, 0
0, 0
0, 0
0, 0
0, 0
0, 0
0, 0
0, 0
0, 0
0, 0
0, 0
0, 0
0, 0
0, 0
0, 0
0, 0
0, 0
0, 0
0, 0
0, 0
0, 0
0, 0
0, 0
0, 0
0, 0
0, 0
0, 0
0, 0
0, 0
0, 0
0, 0
0, 0
0, 0
0, 0
0, 0
0, 0
0, 0
0, 0
0, 0
0, 0
0, 0
0, 0
0, 0
0, 0
0, 0
0, 0
0, 0
0, 0
0, 0
0, 0
0, 0
0, 0
0, 0
0, 0
0, 0
0, 0
0, 0
0, 0
0, 0
0, 0
0, 0
0, 0
0, 0
0, 0
0, 0
0, 0
0, 0
0, 0
0, 0
0, 0
0, 0
0, 0
0, 0
0, 0
0, 0
0, 0
0, 0
0, 0
0, 0
0, 0
0, 0
0, 0
0, 0
0, 0
0, 0
0, 0
0, 0
0, 0
0, 0
0, 0
0, 0
0, 0
0, 0
0, 0
0, 0
0, 0
#ENDOFDATA     end of spectrum data

File: ps__0852shot_2335.msa
#FORMAT      : EMSA/MAS spectral data file
#VERSION     : TC202v2.0 PIXL
#TITLE       : N/A
#DATE        :       Date in the format DD-MMM-YYYY, for example 07-JUL-2010
#TIME        :             The time of day at which the spectrum was recorded, in 24-hour format
#OWNER       : PIXL Flight Model       (PIXL will use this to indicate which instrument took the data.)
#NPOINTS     : 4096     Number of data points in the spectrum (This can be zero for configuration only files)
#NCOLUMNS    : 2     Number of data columns in the spectrum (This can be zero for configuration only files)
#XUNITS      : eV
#YUNITS      : COUNTS
#DATATYPE    : YY
#XPERCHAN    : 7.862, 7.881   eV per channel (separate by commas if more than one detector)
#OFFSET      : 18.5, -22.4         eV of first channel  (separate by commas if more than one detector
#SIGNALTYPE  : XRF
#YP_TEMP     : 2.364
#LIVETIME    : 8.5382, 8.5835   seconds (separate by commas if more than one detector)
#REALTIME    : 10, 10.0   seconds (separate by commas if more than one detector)
#SPECTRUM    : start of spectrum data
0, 0
0, 0
0, 0
0, 0
0, 0
0, 0
0, 0
0, 0
1, 0
0, 1
2, 2
44, 61
61, 51
5, 7
3, 5
95, 97
409, 449
109, 97
5, 2
1, 1
8, 7
32, 32
19, 17
20, 11
37, 39
30, 33
17, 35
9, 11
3, 3
3, 2
1, 1
3, 4
6, 3
14, 9
11, 13
4, 2
6, 6
8, 5
2, 1
3, 6
5, 5
9, 9
13, 14
17, 17
9, 24
3, 54
2, 29
6, 9
6, 11
27, 11
28, 11
10, 10
9, 14
26, 31
68, 61
23, 17
43, 36
498, 637
2207, 2460
1710, 1416
233, 141
26, 19
17, 26
97, 125
320, 369
225, 195
32, 25
7, 20
13, 48
14, 26
17, 4
4, 5
3, 4
3, 9
3, 5
5, 7
5, 4
9, 7
6, 5
2, 3
3, 6
2, 3
4, 3
3, 7
1, 5
6, 5
3, 4
2, 2
5, 0
4, 10
2, 5
2, 4
7, 1
3, 1
3, 5
2, 3
3, 2
4, 2
3, 3
6, 0
5, 4
4, 1
3, 0
1, 2
0, 2
4, 3
1, 4
2, 3
3, 2
0, 0
2, 0
3, 4
0, 1
3, 0
0, 3
3, 0
1, 4
1, 2
1, 1
4, 3
2, 2
0, 2
3, 4
3, 2
0, 1
1, 0
1, 1
2, 1
1, 1
3, 0
0, 2
0, 0
1, 1
1, 2
0, 0
0, 0
2, 0
1, 0
0, 2
0, 1
0, 1
0, 1
1, 1
1, 0
1, 0
0, 2
0, 0
0, 1
0, 0
0, 0
1, 0
0, 1
2, 0
0, 0
0, 0
0, 0
0, 0
1, 0
0, 0
0, 1
0, 0
0, 0
1, 0
0, 0
1, 0
1, 0
0, 1
1, 0
0, 0
0, 0
1, 0
0, 0
0, 1
1, 1
0, 1
0, 0
0, 0
0, 0
1, 0
0, 0
0, 0
1, 0
0, 0
0, 0
0, 0
0, 0
0, 0
0, 0
0, 0
0, 0
0, 0
0, 0
0, 0
0, 0
0, 0
0, 0
0, 0
0, 0
0, 0
0, 0
0, 0
0, 0
0, 0
0, 0
0, 0
0, 0
0, 0
0, 1
0, 0
0, 0
1, 0
0, 0
0, 0
0, 0
0, 0
0, 0
0, 0
0, 0
0, 0
0, 0
0, 0
0, 0
0, 0
0, 0
0, 1
0, 0
0, 0
0, 0
0, 0
0, 1
0, 0
0, 0
0, 0
0, 0
0, 0
0, 0
0, 0
0, 0
0, 0
0, 0
0, 0
0, 0
0, 0
0, 0
0, 0
0, 0
0, 0
0, 0
0, 0
0, 0
0, 0
0, 0
0, 0
0, 0
0, 0
0, 0
0, 0
0, 0
0, 0
0, 0
0, 0
0, 0
0, 0
0, 0
0, 0
0, 0
0, 0
0, 0
0, 0
0, 0
0, 0
0, 0
0, 0
0, 0
0, 0
0, 0
0, 0
0, 0
0, 0
0, 0
0, 0
0, 0
0, 0
0, 0
0, 0
0, 0
0, 0
0, 0
0, 0
0, 0
0, 0
0, 0
0, 0
0, 0
#ENDOFDATA     end of spectrum data

File: ps__0852shot_2336.msa
#FORMAT      : EMSA/MAS spectral data file
#VERSION     : TC202v2.0 PIXL
#TITLE       : N/A
#DATE        :       Date in the format DD-MMM-YYYY, for example 07-JUL-2010
#TIME        :             The time of day at which the spectrum was recorded, in 24-hour format
#OWNER       : PIXL Flight Model       (PIXL will use this to indicate which instrument took the data.)
#NPOINTS     : 4096     Number of data points in the spectrum (This can be zero for configuration only files)
#NCOLUMNS    : 2     Number of data columns in the spectrum (This can be zero for configuration only files)
#XUNITS      : eV
#YUNITS      : COUNTS
#DATATYPE    : YY
#XPERCHAN    : 7.862, 7.881   eV per channel (separate by commas if more than one detector)
#OFFSET      : 18.5, -22.4         eV of first channel  (separate by commas if more than one detector
#SIGNALTYPE  : XRF
#YP_TEMP     : 2.46
#LIVETIME    : 8.55681, 8.54348   seconds (separate by commas if more than one detector)
#REALTIME    : 10, 10.0   seconds (separate by commas if more than one detector)
#SPECTRUM    : start of spectrum data
0, 0
0, 0
0, 0
0, 0
0, 0
0, 0
0, 0
0, 0
0, 1
2, 0
3, 2
42, 58
50, 40
6, 4
4, 2
89, 110
362, 423
92, 99
7, 2
1, 1
20, 18
145, 132
37, 44
17, 18
37, 38
41, 49
28, 30
8, 18
7, 9
3, 4
0, 4
2, 4
4, 3
10, 19
22, 14
2, 6
4, 6
3, 4
4, 5
4, 2
4, 4
10, 11
12, 22
13, 11
4, 35
4, 77
6, 46
8, 9
5, 8
18, 16
25, 15
11, 8
10, 12
38, 51
44, 61
29, 21
33, 35
434, 657
2081, 2585
1659, 1486
288, 146
30, 20
21, 12
96, 134
321, 379
196, 204
30, 31
10, 28
13, 46
9, 23
5, 2
6, 5
2, 5
3, 5
2, 8
3, 10
2, 3
1, 4
2, 2
6, 3
5, 4
6, 3
1, 11
3, 8
1, 3
0, 5
0, 5
2, 2
3, 3
2, 14
4, 11
2, 8
2, 4
3, 4
2, 6
1, 3
4, 3
6, 5
4, 4
11, 1
10, 2
3, 3
1, 2
0, 1
2, 5
0, 7
2, 2
2, 0
2, 3
2, 2
1, 2
2, 3
3, 2
4, 1
3, 3
2, 3
3, 2
4, 2
2, 1
1, 1
3, 5
1, 2
1, 2
1, 1
1, 2
3, 1
1, 3
0, 1
2, 1
1, 1
1, 0
1, 0
0, 0
1, 0
1, 0
0, 0
2, 0
2, 1
0, 1
0, 3
1, 1
1, 0
0, 2
0, 0
0, 0
2, 4
2, 0
1, 0
1, 1
0, 1
0, 2
0, 0
0, 1
0, 0
1, 0
1, 0
0, 0
0, 0
1, 0
0, 0
0, 0
0, 0
0, 0
0, 0
0, 2
0, 1
0, 1
0, 0
1, 0
0, 0
1, 1
0, 0
0, 0
0, 0
1, 1
0, 0
1, 0
0, 0
0, 0
0, 1
0, 0
0, 0
0, 0
0, 0
0, 0
1, 0
0, 0
0, 1
1, 1
0, 0
0, 0
0, 0
0, 0
0, 0
0, 0
0, 0
0, 0
1, 0
0, 0
0, 0
0, 0
0, 0
0, 0
0, 0
0, 0
0, 0
0, 0
0, 0
0, 0
0, 0
0, 0
0, 0
0, 0
0, 0
0, 0
0, 0
0, 0
0, 0
0, 0
0, 0
0, 0
0, 0
0, 0
0, 0
0, 0
0, 0
0, 0
0, 0
0, 0
0, 0
0, 0
0, 0
0, 0
0, 0
0, 0
0, 0
0, 0
0, 0
0, 0
0, 0
0, 0
0, 0
0, 0
0, 0
0, 0
0, 0
0, 0
0, 0
0, 0
0, 0
0, 0
0, 0
0, 0
0, 0
0, 0
0, 0
0, 0
0, 0
0, 0
0, 0
0, 0
0, 0
0, 0
0, 0
0, 0
0, 0
0, 0
0, 0
0, 0
0, 0
0, 0
0, 0
0, 0
0, 0
0, 0
0, 0
0, 0
0, 0
0, 0
0, 0
0, 0
0, 0
0, 0
0, 0
0, 0
0, 0
0, 0
0, 0
0, 0
0, 0
0, 0
0, 0
0, 0
0, 0
#ENDOFDATA     end of spectrum data