Folder: data-repository/host_upload/06-09-2024/ps_0852/dump3 (part 33)

File: ps__0852shot_2291.msa
#FORMAT      : EMSA/MAS spectral data file
#VERSION     : TC202v2.0 PIXL
#TITLE       : N/A
#DATE        :       Date in the format DD-MMM-YYYY, for example 07-JUL-2010
#TIME        :             The time of day at which the spectrum was recorded, in 24-hour format
#OWNER       : PIXL Flight Model       (PIXL will use this to indicate which instrument took the data.)
#NPOINTS     : 4096     Number of data points in the spectrum (This can be zero for configuration only files)
#NCOLUMNS    : 2     Number of data columns in the spectrum (This can be zero for configuration only files)
#XUNITS      : eV
#YUNITS      : COUNTS
#DATATYPE    : YY
#XPERCHAN    : 7.862, 7.881   eV per channel (separate by commas if more than one detector)
#OFFSET      : 18.5, -22.4         eV of first channel  (separate by commas if more than one detector
#SIGNALTYPE  : XRF
#YP_TEMP     : 2.428
#LIVETIME    : 8.55702, 8.56614   seconds (separate by commas if more than one detector)
#REALTIME    : 10, 10.0   seconds (separate by commas if more than one detector)
#SPECTRUM    : start of spectrum data
0, 0
0, 0
0, 0
0, 0
0, 0
0, 0
0, 0
0, 0
1, 3
1, 2
3, 2
27, 39
46, 44
10, 8
6, 2
91, 109
356, 389
93, 86
4, 3
1, 6
41, 62
223, 281
96, 109
23, 48
51, 56
42, 51
23, 22
10, 17
8, 6
4, 3
1, 4
3, 1
2, 8
31, 34
49, 55
7, 13
7, 10
5, 8
6, 7
1, 4
9, 4
11, 11
20, 24
12, 23
5, 17
6, 64
7, 47
4, 13
12, 12
18, 15
28, 16
12, 6
7, 11
38, 41
65, 70
22, 22
37, 33
403, 618
1978, 2404
1630, 1405
248, 156
19, 23
14, 21
74, 126
306, 390
209, 227
26, 29
5, 20
11, 41
12, 19
7, 9
8, 9
0, 5
7, 6
4, 8
5, 4
5, 3
6, 2
6, 9
6, 6
6, 6
4, 4
2, 4
1, 6
3, 4
5, 7
2, 5
3, 4
2, 2
3, 6
3, 14
2, 4
4, 4
4, 2
2, 4
2, 2
4, 2
7, 3
6, 3
15, 2
4, 2
3, 2
0, 6
1, 5
0, 1
1, 3
1, 4
2, 4
1, 1
1, 2
1, 5
4, 1
1, 5
3, 0
2, 0
2, 2
3, 2
2, 4
5, 2
1, 0
2, 3
2, 0
1, 2
4, 2
2, 3
2, 1
1, 1
1, 0
2, 1
0, 0
1, 1
0, 1
0, 0
1, 3
0, 1
0, 0
1, 0
0, 0
0, 0
1, 1
0, 0
1, 2
1, 2
1, 0
0, 0
0, 0
0, 1
0, 1
0, 0
0, 0
0, 0
1, 1
1, 0
0, 0
0, 0
0, 1
0, 0
3, 0
1, 0
0, 0
0, 0
0, 0
0, 0
0, 1
0, 0
0, 0
0, 0
0, 0
0, 1
1, 0
0, 2
0, 0
0, 0
0, 0
0, 0
0, 1
0, 0
0, 0
0, 0
0, 0
0, 0
0, 0
0, 1
0, 0
0, 0
0, 0
0, 0
0, 0
0, 0
0, 0
0, 0
0, 0
0, 0
1, 0
0, 0
0, 0
0, 0
0, 0
0, 0
0, 0
0, 0
0, 0
0, 0
0, 0
0, 0
0, 0
1, 0
0, 0
0, 0
0, 0
0, 0
0, 0
0, 0
0, 0
0, 0
0, 0
0, 0
0, 0
0, 0
0, 0
0, 0
0, 0
0, 0
0, 0
0, 0
0, 0
0, 0
0, 0
0, 0
0, 0
0, 0
0, 0
0, 0
0, 0
0, 0
0, 0
0, 0
0, 0
0, 0
0, 0
0, 0
0, 0
0, 0
0, 0
0, 0
0, 0
0, 0
0, 0
0, 0
0, 0
0, 0
0, 0
0, 0
0, 0
0, 0
0, 0
0, 0
0, 0
0, 0
0, 0
0, 0
0, 0
0, 0
0, 0
0, 0
0, 0
0, 0
0, 0
0, 0
0, 0
0, 0
0, 0
0, 0
0, 0
0, 0
0, 0
0, 0
0, 0
0, 0
0, 0
0, 0
0, 0
0, 0
0, 0
0, 0
0, 0
0, 0
0, 0
0, 0
0, 0
0, 0
0, 0
0, 0
0, 0
#ENDOFDATA     end of spectrum data

File: ps__0852shot_2292.msa
#FORMAT      : EMSA/MAS spectral data file
#VERSION     : TC202v2.0 PIXL
#TITLE       : N/A
#DATE        :       Date in the format DD-MMM-YYYY, for example 07-JUL-2010
#TIME        :             The time of day at which the spectrum was recorded, in 24-hour format
#OWNER       : PIXL Flight Model       (PIXL will use this to indicate which instrument took the data.)
#NPOINTS     : 4096     Number of data points in the spectrum (This can be zero for configuration only files)
#NCOLUMNS    : 2     Number of data columns in the spectrum (This can be zero for configuration only files)
#XUNITS      : eV
#YUNITS      : COUNTS
#DATATYPE    : YY
#XPERCHAN    : 7.862, 7.881   eV per channel (separate by commas if more than one detector)
#OFFSET      : 18.5, -22.4         eV of first channel  (separate by commas if more than one detector
#SIGNALTYPE  : XRF
#YP_TEMP     : 2.396
#LIVETIME    : 8.55018, 8.56367   seconds (separate by commas if more than one detector)
#REALTIME    : 10, 10.0   seconds (separate by commas if more than one detector)
#SPECTRUM    : start of spectrum data
0, 0
0, 0
0, 0
0, 0
0, 0
0, 0
0, 0
0, 1
1, 0
1, 0
1, 4
29, 41
42, 60
4, 6
4, 9
86, 84
339, 407
65, 87
6, 6
3, 8
38, 45
164, 186
67, 62
24, 26
42, 51
30, 65
26, 31
11, 12
7, 5
4, 3
0, 4
2, 3
4, 7
25, 35
43, 53
9, 8
10, 12
9, 17
6, 2
4, 8
9, 5
10, 11
18, 19
6, 16
6, 15
9, 45
10, 33
4, 6
5, 9
20, 16
27, 11
5, 5
7, 7
26, 46
64, 53
20, 15
37, 35
436, 645
2105, 2466
1556, 1421
236, 155
23, 25
18, 22
90, 130
282, 413
203, 213
31, 19
9, 22
24, 32
30, 20
16, 2
4, 6
3, 3
2, 6
4, 3
8, 6
4, 2
2, 4
6, 8
4, 4
4, 3
3, 6
1, 7
1, 5
3, 8
4, 3
6, 2
4, 2
7, 4
3, 4
1, 4
1, 5
3, 5
1, 7
4, 12
2, 4
0, 7
4, 4
4, 3
10, 2
6, 0
3, 2
2, 2
0, 2
1, 1
0, 2
2, 4
2, 3
2, 1
3, 2
0, 2
2, 3
1, 2
2, 6
1, 4
1, 3
3, 2
6, 2
2, 2
0, 2
0, 4
1, 2
2, 1
3, 4
2, 1
3, 0
1, 2
1, 0
4, 1
2, 1
0, 3
0, 0
0, 0
0, 0
0, 0
1, 0
0, 0
0, 0
1, 0
1, 0
0, 0
1, 1
0, 0
1, 1
0, 1
0, 0
0, 0
0, 0
0, 0
0, 1
0, 1
0, 1
0, 0
0, 0
0, 0
0, 1
0, 0
0, 0
2, 0
0, 0
1, 0
0, 0
0, 0
0, 1
0, 0
0, 0
0, 0
0, 2
1, 1
0, 0
0, 0
0, 0
0, 0
0, 0
0, 1
0, 0
0, 0
0, 0
0, 0
0, 0
0, 0
0, 0
0, 0
0, 0
0, 1
0, 1
1, 1
0, 0
0, 1
0, 0
1, 0
0, 0
0, 0
0, 0
0, 0
0, 0
0, 0
0, 0
0, 0
0, 0
0, 0
0, 0
0, 0
0, 0
0, 0
0, 0
0, 0
0, 0
0, 0
0, 0
0, 0
0, 0
0, 0
0, 0
0, 0
0, 0
0, 0
0, 0
0, 0
0, 0
0, 0
0, 0
0, 0
0, 0
0, 0
0, 0
0, 0
0, 0
0, 0
0, 0
0, 0
0, 0
0, 0
0, 0
0, 0
0, 0
0, 0
0, 0
0, 0
0, 0
0, 0
0, 0
0, 0
0, 0
0, 0
0, 0
0, 0
0, 0
0, 0
0, 0
0, 0
0, 0
0, 0
0, 0
0, 0
0, 0
0, 0
0, 0
0, 0
0, 0
0, 0
0, 0
0, 0
0, 0
0, 0
0, 0
0, 0
0, 0
0, 0
0, 0
0, 0
0, 0
0, 0
0, 0
0, 0
0, 0
0, 0
0, 0
0, 0
0, 0
0, 0
0, 0
0, 0
0, 0
0, 0
0, 0
0, 0
0, 0
0, 0
0, 0
0, 0
0, 0
0, 0
0, 0
#ENDOFDATA     end of spectrum data

File: ps__0852shot_2293.msa
#FORMAT      : EMSA/MAS spectral data file
#VERSION     : TC202v2.0 PIXL
#TITLE       : N/A
#DATE        :       Date in the format DD-MMM-YYYY, for example 07-JUL-2010
#TIME        :             The time of day at which the spectrum was recorded, in 24-hour format
#OWNER       : PIXL Flight Model       (PIXL will use this to indicate which instrument took the data.)
#NPOINTS     : 4096     Number of data points in the spectrum (This can be zero for configuration only files)
#NCOLUMNS    : 2     Number of data columns in the spectrum (This can be zero for configuration only files)
#XUNITS      : eV
#YUNITS      : COUNTS
#DATATYPE    : YY
#XPERCHAN    : 7.862, 7.881   eV per channel (separate by commas if more than one detector)
#OFFSET      : 18.5, -22.4         eV of first channel  (separate by commas if more than one detector
#SIGNALTYPE  : XRF
#YP_TEMP     : 2.396
#LIVETIME    : 8.56979, 8.55024   seconds (separate by commas if more than one detector)
#REALTIME    : 10, 10.0   seconds (separate by commas if more than one detector)
#SPECTRUM    : start of spectrum data
0, 0
0, 0
0, 0
0, 0
0, 0
0, 0
0, 0
0, 1
0, 1
0, 4
2, 2
43, 44
53, 45
3, 5
8, 6
87, 100
317, 391
85, 90
4, 4
0, 2
20, 25
112, 141
43, 49
21, 24
42, 45
38, 42
21, 23
12, 23
8, 7
1, 2
4, 9
5, 4
5, 4
11, 14
10, 23
5, 5
3, 2
3, 3
5, 6
1, 4
6, 3
8, 14
11, 20
8, 33
7, 32
5, 13
9, 8
2, 11
7, 11
14, 17
10, 11
9, 21
14, 24
37, 60
47, 66
55, 26
137, 29
481, 614
2053, 2490
1503, 1499
197, 151
17, 22
22, 24
89, 125
308, 398
199, 201
34, 24
15, 12
21, 19
34, 5
22, 2
16, 6
8, 3
6, 5
3, 4
7, 8
10, 4
16, 3
5, 6
6, 6
10, 7
3, 5
3, 4
1, 7
7, 4
3, 3
4, 3
1, 3
5, 3
3, 3
1, 2
1, 3
6, 8
4, 20
5, 16
2, 6
3, 2
8, 5
5, 5
3, 0
1, 1
1, 1
1, 3
1, 2
2, 3
1, 0
2, 2
0, 4
2, 3
1, 0
2, 5
4, 4
2, 1
3, 3
5, 5
5, 7
3, 2
10, 3
1, 5
1, 5
0, 1
2, 3
4, 1
0, 3
0, 4
2, 0
0, 4
2, 2
2, 0
0, 2
2, 3
2, 0
1, 1
2, 0
1, 1
1, 0
0, 2
0, 1
0, 1
0, 0
1, 2
0, 2
0, 2
1, 0
2, 0
0, 0
1, 0
0, 1
0, 0
1, 1
1, 2
0, 1
0, 1
0, 0
0, 1
0, 1
0, 0
1, 1
0, 0
1, 0
1, 0
0, 1
0, 0
1, 1
0, 0
0, 0
0, 0
0, 0
0, 1
1, 0
0, 0
0, 0
0, 0
0, 0
1, 1
0, 0
0, 0
0, 0
0, 0
0, 0
0, 0
1, 0
0, 0
0, 0
1, 0
0, 0
0, 0
0, 0
0, 0
0, 0
0, 0
0, 0
1, 0
0, 0
0, 0
0, 0
0, 0
0, 0
0, 0
0, 0
0, 0
0, 0
0, 0
0, 0
0, 0
0, 0
0, 0
0, 0
0, 0
0, 0
0, 0
0, 0
0, 0
0, 0
0, 0
0, 0
0, 0
0, 0
0, 0
0, 0
0, 0
0, 0
0, 0
0, 0
0, 0
0, 0
0, 0
0, 0
0, 0
0, 0
0, 0
0, 0
0, 0
0, 0
0, 0
0, 0
0, 0
0, 0
0, 0
0, 0
0, 0
0, 0
0, 0
0, 0
0, 0
0, 0
0, 0
0, 0
0, 0
0, 0
0, 0
0, 0
0, 0
0, 0
0, 0
0, 0
0, 0
0, 0
0, 0
0, 0
0, 0
0, 0
0, 0
0, 0
0, 0
0, 0
0, 0
0, 0
0, 0
0, 0
0, 0
0, 0
0, 0
0, 0
0, 0
0, 0
0, 0
0, 0
0, 0
0, 0
0, 0
0, 0
0, 0
0, 0
0, 0
0, 0
0, 0
0, 0
0, 0
0, 0
0, 0
0, 0
0, 0
0, 0
#ENDOFDATA     end of spectrum data

File: ps__0852shot_2294.msa
#FORMAT      : EMSA/MAS spectral data file
#VERSION     : TC202v2.0 PIXL
#TITLE       : N/A
#DATE        :       Date in the format DD-MMM-YYYY, for example 07-JUL-2010
#TIME        :             The time of day at which the spectrum was recorded, in 24-hour format
#OWNER       : PIXL Flight Model       (PIXL will use this to indicate which instrument took the data.)
#NPOINTS     : 4096     Number of data points in the spectrum (This can be zero for configuration only files)
#NCOLUMNS    : 2     Number of data columns in the spectrum (This can be zero for configuration only files)
#XUNITS      : eV
#YUNITS      : COUNTS
#DATATYPE    : YY
#XPERCHAN    : 7.862, 7.881   eV per channel (separate by commas if more than one detector)
#OFFSET      : 18.5, -22.4         eV of first channel  (separate by commas if more than one detector
#SIGNALTYPE  : XRF
#YP_TEMP     : 2.203
#LIVETIME    : 8.56063, 8.5565   seconds (separate by commas if more than one detector)
#REALTIME    : 10, 10.0   seconds (separate by commas if more than one detector)
#SPECTRUM    : start of spectrum data
0, 0
0, 0
0, 0
0, 0
0, 0
0, 0
0, 0
0, 0
0, 0
0, 0
1, 3
47, 66
67, 71
7, 6
1, 3
94, 108
416, 387
115, 124
6, 4
1, 1
16, 13
66, 75
26, 23
12, 8
32, 26
40, 35
10, 22
16, 10
4, 6
5, 2
3, 4
6, 0
26, 4
46, 12
15, 13
4, 8
6, 9
6, 6
3, 6
4, 7
9, 7
11, 10
18, 14
10, 34
14, 23
7, 11
9, 6
8, 2
18, 13
36, 16
31, 10
9, 28
8, 30
43, 50
69, 72
49, 16
153, 47
544, 612
2124, 2297
1577, 1428
231, 135
14, 12
18, 16
105, 152
335, 373
220, 204
34, 26
7, 10
23, 9
9, 13
8, 5
8, 5
4, 6
3, 3
6, 6
10, 4
20, 3
27, 2
8, 9
8, 7
5, 1
4, 4
6, 4
6, 6
3, 6
3, 7
7, 8
2, 3
4, 6
4, 5
4, 2
3, 3
1, 5
4, 2
2, 1
6, 1
5, 1
7, 5
6, 3
3, 2
3, 2
8, 6
4, 1
0, 2
4, 2
2, 1
5, 2
4, 3
2, 3
3, 2
2, 1
3, 4
3, 3
3, 0
4, 2
2, 4
4, 4
1, 7
3, 2
1, 3
4, 1
0, 0
4, 3
1, 0
1, 0
0, 2
2, 0
1, 0
1, 1
0, 2
0, 0
1, 1
2, 1
2, 1
2, 1
3, 1
0, 0
0, 2
1, 1
3, 1
0, 1
0, 2
1, 0
0, 0
0, 1
1, 1
1, 0
1, 1
0, 2
0, 0
0, 1
2, 0
2, 0
0, 0
0, 0
0, 0
1, 1
0, 0
0, 1
1, 0
1, 1
0, 0
0, 0
0, 0
1, 1
1, 0
0, 1
0, 0
0, 0
0, 0
0, 0
0, 0
0, 0
0, 0
0, 0
1, 0
0, 1
1, 0
0, 0
0, 0
0, 0
0, 1
0, 0
0, 0
0, 0
0, 0
0, 0
0, 0
0, 0
0, 0
0, 0
0, 0
0, 1
0, 0
0, 0
0, 0
0, 0
0, 0
0, 0
0, 1
0, 0
0, 0
0, 0
0, 0
0, 0
0, 0
0, 0
0, 0
0, 0
0, 0
0, 0
1, 0
0, 0
0, 0
0, 0
0, 0
0, 0
0, 0
0, 0
0, 0
0, 0
0, 0
0, 0
0, 0
0, 0
0, 0
0, 0
0, 0
0, 0
0, 0
0, 0
0, 0
0, 0
0, 0
0, 0
0, 0
0, 0
0, 0
0, 0
0, 0
0, 0
0, 0
0, 0
0, 0
0, 0
0, 0
0, 0
0, 0
0, 0
0, 0
0, 0
0, 0
0, 0
0, 0
0, 0
0, 0
0, 0
0, 0
0, 0
0, 0
0, 0
0, 0
0, 0
0, 0
0, 0
0, 0
0, 0
0, 0
0, 0
0, 0
0, 0
0, 0
0, 0
0, 0
0, 0
0, 0
0, 0
0, 0
0, 0
0, 0
0, 0
0, 0
0, 0
0, 0
0, 0
0, 0
0, 0
0, 0
0, 0
0, 0
0, 0
0, 0
0, 0
0, 0
#ENDOFDATA     end of spectrum data

File: ps__0852shot_2295.msa
#FORMAT      : EMSA/MAS spectral data file
#VERSION     : TC202v2.0 PIXL
#TITLE       : N/A
#DATE        :       Date in the format DD-MMM-YYYY, for example 07-JUL-2010
#TIME        :             The time of day at which the spectrum was recorded, in 24-hour format
#OWNER       : PIXL Flight Model       (PIXL will use this to indicate which instrument took the data.)
#NPOINTS     : 4096     Number of data points in the spectrum (This can be zero for configuration only files)
#NCOLUMNS    : 2     Number of data columns in the spectrum (This can be zero for configuration only files)
#XUNITS      : eV
#YUNITS      : COUNTS
#DATATYPE    : YY
#XPERCHAN    : 7.862, 7.881   eV per channel (separate by commas if more than one detector)
#OFFSET      : 18.5, -22.4         eV of first channel  (separate by commas if more than one detector
#SIGNALTYPE  : XRF
#YP_TEMP     : 2.075
#LIVETIME    : 8.57119, 8.37207   seconds (separate by commas if more than one detector)
#REALTIME    : 10, 10.0   seconds (separate by commas if more than one detector)
#SPECTRUM    : start of spectrum data
0, 0
0, 0
0, 0
0, 0
0, 0
0, 0
0, 0
0, 0
0, 0
2, 2
1, 3
50, 44
64, 53
5, 5
4, 2
110, 81
458, 390
101, 92
3, 4
3, 2
7, 7
29, 29
17, 3
9, 8
24, 17
35, 30
18, 19
12, 13
3, 4
2, 2
2, 1
1, 3
32, 1
63, 9
26, 14
4, 13
5, 7
8, 4
2, 15
4, 11
5, 4
13, 6
11, 26
8, 17
10, 9
7, 6
10, 9
19, 3
32, 13
58, 10
69, 19
14, 11
10, 15
39, 46
49, 55
34, 20
49, 43
481, 574
2211, 2213
1634, 1416
213, 127
36, 19
44, 20
120, 131
341, 375
250, 231
38, 43
9, 12
12, 16
8, 10
3, 12
4, 4
3, 5
4, 7
8, 4
3, 6
10, 6
8, 6
3, 2
6, 4
7, 5
6, 4
6, 5
5, 9
3, 9
5, 20
5, 8
0, 9
5, 3
7, 3
6, 7
6, 2
5, 0
2, 6
5, 3
3, 2
7, 1
3, 2
2, 1
5, 2
1, 5
0, 4
0, 2
1, 0
1, 1
1, 0
2, 2
0, 1
1, 1
3, 0
3, 1
4, 2
2, 1
1, 2
1, 1
3, 5
2, 5
4, 4
1, 1
2, 1
0, 2
4, 0
3, 2
0, 1
2, 2
1, 0
3, 1
2, 1
1, 2
1, 1
1, 1
1, 1
2, 0
1, 1
2, 0
2, 0
0, 0
1, 0
0, 0
2, 0
2, 2
0, 3
2, 1
2, 1
0, 0
0, 0
2, 0
0, 0
1, 1
0, 0
1, 1
0, 0
2, 1
0, 1
0, 0
0, 0
0, 0
0, 0
0, 0
0, 0
4, 0
0, 1
0, 0
0, 0
0, 0
0, 0
1, 0
0, 0
0, 0
0, 0
0, 2
0, 0
0, 0
0, 0
0, 0
0, 0
0, 0
0, 0
0, 0
0, 0
0, 0
0, 0
0, 0
0, 0
0, 0
0, 0
0, 0
1, 0
0, 0
0, 0
0, 0
0, 0
0, 0
0, 0
0, 0
0, 0
0, 0
0, 0
0, 0
0, 1
0, 0
0, 0
0, 0
0, 0
0, 0
0, 0
0, 0
0, 0
0, 0
0, 0
0, 0
0, 0
0, 0
0, 0
0, 0
0, 0
0, 0
0, 0
0, 0
0, 0
0, 0
0, 0
0, 0
0, 0
0, 0
0, 0
0, 0
0, 0
0, 0
0, 0
0, 0
0, 0
0, 0
0, 0
0, 0
0, 0
0, 0
0, 0
0, 0
0, 0
0, 0
0, 0
0, 0
0, 0
0, 0
0, 0
0, 0
0, 0
0, 0
0, 0
0, 0
0, 0
0, 0
0, 0
0, 0
0, 0
0, 0
0, 0
0, 0
0, 0
0, 0
0, 0
0, 0
0, 0
0, 0
0, 0
0, 0
0, 0
0, 0
0, 0
0, 0
0, 0
0, 0
0, 0
0, 0
0, 0
0, 0
0, 0
0, 0
0, 0
0, 0
0, 0
0, 0
0, 0
0, 0
0, 0
0, 0
0, 0
0, 0
0, 0
0, 0
0, 0
0, 0
0, 0
#ENDOFDATA     end of spectrum data

File: ps__0852shot_2296.msa
#FORMAT      : EMSA/MAS spectral data file
#VERSION     : TC202v2.0 PIXL
#TITLE       : N/A
#DATE        :       Date in the format DD-MMM-YYYY, for example 07-JUL-2010
#TIME        :             The time of day at which the spectrum was recorded, in 24-hour format
#OWNER       : PIXL Flight Model       (PIXL will use this to indicate which instrument took the data.)
#NPOINTS     : 4096     Number of data points in the spectrum (This can be zero for configuration only files)
#NCOLUMNS    : 2     Number of data columns in the spectrum (This can be zero for configuration only files)
#XUNITS      : eV
#YUNITS      : COUNTS
#DATATYPE    : YY
#XPERCHAN    : 7.862, 7.881   eV per channel (separate by commas if more than one detector)
#OFFSET      : 18.5, -22.4         eV of first channel  (separate by commas if more than one detector
#SIGNALTYPE  : XRF
#YP_TEMP     : 2.3
#LIVETIME    : 8.53407, 8.52504   seconds (separate by commas if more than one detector)
#REALTIME    : 10, 10.0   seconds (separate by commas if more than one detector)
#SPECTRUM    : start of spectrum data
0, 0
0, 0
0, 0
0, 0
0, 0
0, 0
0, 0
0, 0
0, 1
2, 1
2, 1
50, 40
66, 60
10, 7
7, 4
88, 93
436, 407
119, 81
3, 4
3, 2
4, 3
28, 26
11, 20
8, 9
21, 32
46, 46
24, 25
9, 8
5, 4
2, 2
1, 6
2, 1
4, 2
13, 11
22, 27
6, 7
5, 2
11, 8
8, 13
4, 7
5, 8
13, 17
13, 30
15, 25
3, 8
7, 2
8, 4
10, 5
16, 6
46, 21
40, 14
24, 17
17, 15
34, 44
48, 46
26, 18
36, 42
514, 591
2239, 2188
1580, 1403
237, 143
54, 14
55, 23
127, 119
321, 356
240, 202
38, 27
6, 16
18, 15
10, 7
3, 5
6, 7
1, 5
7, 2
4, 5
5, 9
7, 6
6, 3
4, 7
4, 9
3, 3
4, 3
9, 7
3, 9
5, 9
4, 17
4, 4
6, 3
1, 3
13, 4
8, 1
6, 3
1, 2
11, 2
5, 5
2, 4
2, 4
2, 4
6, 3
2, 1
6, 0
3, 2
3, 3
2, 0
0, 1
6, 3
2, 2
0, 3
2, 1
4, 3
4, 0
4, 2
2, 1
2, 2
2, 0
2, 6
5, 5
5, 4
0, 0
2, 1
1, 2
1, 0
1, 3
1, 2
0, 1
1, 0
0, 1
0, 3
1, 0
1, 2
1, 0
3, 1
0, 0
0, 2
2, 1
0, 2
1, 0
2, 1
2, 1
0, 0
1, 0
0, 1
1, 0
1, 0
0, 1
1, 0
1, 0
1, 0
0, 1
0, 0
0, 0
0, 0
0, 0
0, 0
0, 0
1, 0
1, 1
0, 0
0, 0
0, 0
0, 0
0, 0
1, 1
0, 0
0, 0
0, 0
1, 0
1, 0
0, 0
0, 2
1, 0
0, 0
0, 0
0, 0
0, 0
0, 0
0, 0
0, 0
0, 0
2, 0
0, 0
0, 0
0, 0
0, 0
1, 0
0, 1
1, 0
0, 0
0, 0
0, 0
0, 0
0, 0
0, 0
0, 0
0, 0
0, 0
0, 0
0, 0
0, 0
0, 0
0, 0
0, 0
0, 0
0, 0
0, 0
0, 0
0, 0
0, 0
0, 0
0, 0
0, 0
0, 0
0, 0
0, 0
0, 0
0, 0
0, 0
0, 0
0, 0
0, 0
0, 0
0, 0
0, 0
0, 0
0, 0
0, 0
0, 0
0, 0
0, 0
0, 0
0, 0
0, 0
0, 0
0, 0
0, 0
0, 0
0, 0
0, 0
0, 0
0, 0
0, 0
0, 0
0, 0
0, 0
0, 0
0, 0
0, 0
0, 0
0, 0
0, 0
0, 0
0, 0
0, 0
0, 0
0, 0
0, 0
0, 0
0, 0
0, 0
0, 0
0, 0
0, 0
0, 0
0, 0
0, 0
0, 0
0, 0
0, 0
0, 0
0, 0
0, 0
0, 0
0, 0
0, 0
0, 0
0, 0
0, 0
0, 0
0, 0
0, 0
0, 0
0, 0
0, 0
0, 0
0, 0
0, 0
0, 0
0, 0
0, 0
0, 0
0, 0
0, 0
0, 0
0, 0
#ENDOFDATA     end of spectrum data

File: ps__0852shot_2297.msa
#FORMAT      : EMSA/MAS spectral data file
#VERSION     : TC202v2.0 PIXL
#TITLE       : N/A
#DATE        :       Date in the format DD-MMM-YYYY, for example 07-JUL-2010
#TIME        :             The time of day at which the spectrum was recorded, in 24-hour format
#OWNER       : PIXL Flight Model       (PIXL will use this to indicate which instrument took the data.)
#NPOINTS     : 4096     Number of data points in the spectrum (This can be zero for configuration only files)
#NCOLUMNS    : 2     Number of data columns in the spectrum (This can be zero for configuration only files)
#XUNITS      : eV
#YUNITS      : COUNTS
#DATATYPE    : YY
#XPERCHAN    : 7.862, 7.881   eV per channel (separate by commas if more than one detector)
#OFFSET      : 18.5, -22.4         eV of first channel  (separate by commas if more than one detector
#SIGNALTYPE  : XRF
#YP_TEMP     : 2.332
#LIVETIME    : 8.53485, 8.5673   seconds (separate by commas if more than one detector)
#REALTIME    : 10, 10.0   seconds (separate by commas if more than one detector)
#SPECTRUM    : start of spectrum data
0, 0
0, 0
0, 0
0, 0
0, 0
0, 0
0, 0
0, 0
0, 0
0, 1
1, 2
42, 50
47, 62
4, 5
7, 5
100, 97
446, 396
106, 83
3, 2
0, 4
1, 2
15, 19
10, 8
2, 18
34, 31
39, 29
35, 20
14, 16
3, 5
1, 0
1, 2
2, 6
3, 3
12, 12
23, 22
9, 5
4, 3
4, 10
4, 15
7, 7
4, 5
8, 9
15, 27
19, 17
6, 4
10, 5
17, 9
18, 4
19, 8
50, 17
44, 19
31, 9
23, 9
42, 41
53, 68
26, 25
19, 43
473, 529
2421, 2177
1673, 1263
212, 119
40, 18
36, 29
108, 130
377, 333
240, 193
34, 22
6, 4
7, 13
8, 8
4, 9
5, 7
6, 5
6, 5
8, 4
8, 5
6, 3
3, 2
7, 5
3, 1
3, 3
8, 3
6, 4
3, 3
12, 9
2, 12
2, 9
6, 2
5, 2
3, 3
6, 4
2, 5
2, 3
6, 3
2, 2
1, 3
5, 5
2, 4
1, 0
2, 2
1, 2
0, 3
3, 2
1, 4
2, 7
1, 6
2, 5
4, 2
1, 1
2, 2
1, 2
4, 1
1, 1
3, 0
2, 6
0, 4
4, 3
9, 4
0, 0
1, 1
0, 1
3, 1
3, 4
2, 0
3, 2
1, 0
3, 1
1, 2
3, 2
1, 3
3, 2
1, 1
1, 1
0, 2
2, 1
1, 0
0, 1
0, 0
0, 2
0, 0
0, 0
1, 2
0, 2
0, 1
2, 1
0, 0
1, 1
0, 1
0, 3
0, 0
0, 2
0, 0
0, 0
1, 0
0, 0
0, 0
1, 1
1, 0
0, 2
0, 0
0, 0
0, 0
1, 0
0, 0
0, 0
0, 0
0, 0
0, 1
1, 0
0, 0
0, 0
0, 0
1, 0
1, 0
0, 0
1, 0
0, 1
0, 0
0, 0
0, 0
0, 0
0, 0
0, 0
0, 1
0, 0
0, 0
0, 0
0, 0
0, 0
1, 0
0, 0
0, 0
1, 0
0, 0
0, 0
0, 0
0, 0
0, 0
0, 0
0, 0
0, 0
0, 0
0, 0
0, 0
0, 0
0, 0
0, 0
0, 0
1, 0
0, 0
0, 0
0, 0
0, 0
0, 0
0, 0
0, 0
0, 0
0, 0
0, 0
0, 0
0, 0
0, 0
0, 0
0, 0
0, 0
0, 0
0, 0
0, 0
0, 0
0, 0
0, 0
0, 0
0, 0
0, 0
0, 0
0, 0
0, 0
0, 0
0, 0
0, 0
0, 0
0, 0
0, 0
0, 0
0, 0
0, 0
0, 0
0, 0
0, 0
0, 0
0, 0
0, 0
0, 0
0, 0
0, 0
0, 0
0, 0
0, 0
0, 0
0, 0
0, 0
0, 0
0, 0
0, 0
0, 0
0, 0
0, 0
0, 0
0, 0
0, 0
0, 0
0, 0
0, 0
0, 0
0, 0
0, 0
0, 0
0, 0
0, 0
0, 0
0, 0
0, 0
0, 0
0, 0
0, 0
0, 0
0, 0
0, 0
0, 0
0, 0
0, 0
0, 0
0, 0
0, 0
#ENDOFDATA     end of spectrum data

File: ps__0852shot_2298.msa
#FORMAT      : EMSA/MAS spectral data file
#VERSION     : TC202v2.0 PIXL
#TITLE       : N/A
#DATE        :       Date in the format DD-MMM-YYYY, for example 07-JUL-2010
#TIME        :             The time of day at which the spectrum was recorded, in 24-hour format
#OWNER       : PIXL Flight Model       (PIXL will use this to indicate which instrument took the data.)
#NPOINTS     : 4096     Number of data points in the spectrum (This can be zero for configuration only files)
#NCOLUMNS    : 2     Number of data columns in the spectrum (This can be zero for configuration only files)
#XUNITS      : eV
#YUNITS      : COUNTS
#DATATYPE    : YY
#XPERCHAN    : 7.862, 7.881   eV per channel (separate by commas if more than one detector)
#OFFSET      : 18.5, -22.4         eV of first channel  (separate by commas if more than one detector
#SIGNALTYPE  : XRF
#YP_TEMP     : 2.364
#LIVETIME    : 8.5284, 8.54585   seconds (separate by commas if more than one detector)
#REALTIME    : 10, 10.0   seconds (separate by commas if more than one detector)
#SPECTRUM    : start of spectrum data
0, 0
0, 0
0, 0
0, 0
0, 0
0, 0
0, 0
0, 0
0, 0
2, 3
4, 3
47, 47
65, 55
12, 4
3, 3
102, 81
452, 385
114, 87
4, 6
2, 2
3, 5
18, 15
13, 6
10, 8
44, 42
66, 45
27, 28
14, 14
0, 5
2, 0
1, 4
3, 3
4, 3
15, 21
35, 21
18, 3
3, 8
11, 10
26, 12
10, 6
8, 7
12, 14
15, 13
20, 13
5, 6
4, 5
10, 3
7, 3
10, 6
24, 6
48, 20
25, 11
17, 13
36, 34
75, 66
23, 49
40, 52
505, 563
2166, 2245
1654, 1422
209, 137
31, 31
48, 24
105, 120
361, 345
224, 194
33, 23
7, 5
9, 14
15, 5
9, 1
10, 4
7, 1
6, 4
4, 9
5, 10
7, 10
6, 6
5, 4
4, 3
5, 2
6, 6
3, 4
2, 4
3, 9
1, 4
4, 4
4, 3
8, 3
5, 3
8, 3
4, 2
2, 2
4, 4
3, 1
2, 2
0, 5
3, 2
2, 3
1, 1
1, 0
3, 2
2, 2
3, 3
1, 4
0, 3
6, 6
9, 3
2, 2
1, 1
1, 3
3, 2
1, 1
1, 3
2, 2
2, 4
3, 4
1, 3
2, 5
0, 0
2, 2
3, 4
4, 3
2, 2
1, 1
4, 0
1, 1
1, 2
2, 1
1, 2
0, 3
1, 1
0, 1
0, 2
0, 0
1, 0
2, 0
0, 0
0, 0
0, 0
1, 0
1, 0
0, 2
0, 0
1, 1
0, 0
1, 3
0, 1
3, 0
0, 1
1, 1
1, 0
2, 2
1, 1
1, 1
1, 0
0, 0
0, 1
1, 0
0, 0
0, 0
1, 0
0, 0
0, 0
1, 1
0, 0
0, 0
0, 0
1, 0
0, 1
1, 0
0, 0
0, 0
1, 0
0, 0
0, 0
0, 0
0, 0
0, 0
0, 0
0, 0
1, 0
0, 0
1, 1
0, 0
0, 0
0, 0
0, 0
0, 0
0, 0
0, 0
1, 0
0, 0
0, 0
0, 0
0, 0
0, 0
0, 0
0, 0
0, 0
0, 0
0, 0
0, 0
0, 0
0, 0
0, 0
0, 0
0, 0
0, 0
0, 0
0, 0
0, 0
0, 0
0, 0
0, 0
0, 0
1, 0
0, 0
0, 0
0, 0
0, 0
0, 0
0, 0
0, 0
0, 0
0, 0
0, 0
0, 0
0, 0
0, 0
0, 0
0, 0
0, 0
0, 0
0, 0
0, 0
0, 0
0, 0
0, 0
0, 0
0, 0
0, 0
0, 0
0, 0
0, 0
0, 0
0, 0
0, 0
0, 0
0, 0
0, 0
0, 0
0, 0
0, 0
0, 0
0, 0
0, 0
0, 0
0, 0
0, 0
0, 0
0, 0
0, 0
0, 0
0, 0
0, 0
0, 0
0, 0
0, 0
0, 0
0, 0
0, 0
0, 0
0, 0
0, 0
0, 0
0, 0
0, 0
0, 0
0, 0
0, 0
0, 0
0, 0
0, 0
0, 0
0, 0
0, 0
0, 0
0, 0
0, 0
0, 0
0, 0
0, 0
0, 0
#ENDOFDATA     end of spectrum data

File: ps__0852shot_2299.msa
#FORMAT      : EMSA/MAS spectral data file
#VERSION     : TC202v2.0 PIXL
#TITLE       : N/A
#DATE        :       Date in the format DD-MMM-YYYY, for example 07-JUL-2010
#TIME        :             The time of day at which the spectrum was recorded, in 24-hour format
#OWNER       : PIXL Flight Model       (PIXL will use this to indicate which instrument took the data.)
#NPOINTS     : 4096     Number of data points in the spectrum (This can be zero for configuration only files)
#NCOLUMNS    : 2     Number of data columns in the spectrum (This can be zero for configuration only files)
#XUNITS      : eV
#YUNITS      : COUNTS
#DATATYPE    : YY
#XPERCHAN    : 7.862, 7.881   eV per channel (separate by commas if more than one detector)
#OFFSET      : 18.5, -22.4         eV of first channel  (separate by commas if more than one detector
#SIGNALTYPE  : XRF
#YP_TEMP     : 2.364
#LIVETIME    : 8.53765, 8.56208   seconds (separate by commas if more than one detector)
#REALTIME    : 10, 10.0   seconds (separate by commas if more than one detector)
#SPECTRUM    : start of spectrum data
0, 0
0, 0
0, 0
0, 0
0, 0
0, 0
0, 1
0, 0
0, 2
1, 1
2, 3
51, 33
68, 44
4, 5
6, 2
89, 92
479, 352
123, 80
6, 3
0, 3
2, 2
17, 11
14, 11
16, 10
44, 28
46, 34
37, 19
14, 14
3, 11
0, 2
2, 8
2, 6
7, 4
69, 49
122, 64
30, 16
15, 15
29, 6
30, 7
20, 3
11, 5
18, 17
26, 7
17, 10
8, 5
5, 6
7, 8
5, 7
15, 12
17, 16
25, 19
31, 4
16, 13
46, 42
85, 53
26, 44
36, 30
519, 487
2179, 1857
1633, 1131
187, 125
12, 23
28, 20
97, 105
331, 308
227, 149
32, 19
9, 19
16, 13
14, 5
7, 2
2, 1
8, 3
7, 7
6, 11
16, 9
13, 6
5, 2
5, 4
4, 4
7, 2
1, 5
2, 3
7, 3
5, 4
5, 2
6, 3
6, 3
6, 5
6, 3
1, 2
3, 2
3, 2
4, 6
1, 3
7, 4
2, 6
5, 4
6, 1
1, 1
5, 3
3, 0
0, 5
2, 1
3, 2
2, 1
2, 0
1, 1
2, 1
4, 0
1, 0
0, 0
3, 2
6, 2
2, 5
4, 1
3, 2
4, 2
0, 3
0, 0
0, 3
3, 1
1, 3
2, 1
1, 3
0, 1
3, 1
0, 0
0, 0
2, 2
0, 2
0, 1
0, 1
1, 2
0, 1
2, 0
1, 1
1, 0
0, 1
0, 1
0, 0
1, 0
0, 1
1, 1
1, 0
0, 1
0, 0
0, 1
0, 0
1, 0
1, 0
0, 0
0, 0
2, 0
0, 0
1, 2
0, 1
0, 0
0, 0
1, 0
0, 0
2, 0
0, 0
0, 1
0, 0
0, 0
2, 0
0, 0
0, 0
0, 0
0, 0
1, 1
0, 0
0, 0
0, 0
0, 0
0, 0
0, 0
0, 1
0, 0
0, 0
0, 0
0, 1
0, 0
0, 2
0, 0
0, 0
0, 1
0, 0
0, 0
0, 0
0, 0
0, 0
0, 0
0, 0
0, 0
0, 0
0, 0
0, 0
0, 0
0, 0
0, 0
0, 0
0, 0
0, 0
0, 0
0, 0
0, 0
0, 0
0, 0
0, 0
0, 0
0, 0
0, 0
0, 0
0, 0
0, 0
0, 0
0, 0
0, 0
0, 0
0, 0
0, 0
0, 0
0, 0
0, 0
0, 0
0, 0
0, 0
0, 0
0, 0
0, 0
0, 0
0, 0
0, 0
0, 0
0, 0
0, 0
0, 0
0, 0
0, 0
0, 0
0, 0
0, 0
0, 0
0, 0
0, 0
0, 0
0, 0
0, 0
0, 0
0, 0
0, 0
0, 0
0, 0
0, 0
0, 0
0, 0
0, 0
0, 0
0, 0
0, 0
0, 0
0, 0
0, 0
0, 0
0, 0
0, 0
0, 0
0, 0
0, 0
0, 0
0, 0
0, 0
0, 0
0, 0
0, 0
0, 0
0, 0
0, 0
0, 0
0, 0
0, 0
0, 0
0, 0
0, 0
0, 0
0, 0
0, 0
0, 0
0, 0
0, 0
0, 0
0, 0
#ENDOFDATA     end of spectrum data