Folder: data-repository/host_upload/06-09-2024/ps_0852/dump3 (part 24)

File: ps__0852shot_2209.msa
#FORMAT      : EMSA/MAS spectral data file
#VERSION     : TC202v2.0 PIXL
#TITLE       : N/A
#DATE        :       Date in the format DD-MMM-YYYY, for example 07-JUL-2010
#TIME        :             The time of day at which the spectrum was recorded, in 24-hour format
#OWNER       : PIXL Flight Model       (PIXL will use this to indicate which instrument took the data.)
#NPOINTS     : 4096     Number of data points in the spectrum (This can be zero for configuration only files)
#NCOLUMNS    : 2     Number of data columns in the spectrum (This can be zero for configuration only files)
#XUNITS      : eV
#YUNITS      : COUNTS
#DATATYPE    : YY
#XPERCHAN    : 7.862, 7.881   eV per channel (separate by commas if more than one detector)
#OFFSET      : 18.5, -22.4         eV of first channel  (separate by commas if more than one detector
#SIGNALTYPE  : XRF
#YP_TEMP     : 2.396
#LIVETIME    : 8.55351, 8.5667   seconds (separate by commas if more than one detector)
#REALTIME    : 10, 10.0   seconds (separate by commas if more than one detector)
#SPECTRUM    : start of spectrum data
0, 0
0, 0
0, 0
0, 0
0, 0
0, 0
0, 0
0, 0
0, 0
1, 0
2, 1
41, 42
65, 60
6, 4
4, 4
87, 105
375, 413
92, 101
7, 7
1, 1
1, 2
5, 1
6, 2
9, 5
24, 17
24, 25
14, 14
17, 9
6, 5
5, 2
3, 3
0, 1
2, 4
8, 26
15, 20
6, 5
4, 2
3, 4
6, 5
27, 3
25, 6
20, 6
15, 14
15, 10
8, 5
8, 8
12, 3
10, 12
11, 14
11, 19
15, 27
13, 14
39, 9
72, 42
68, 62
28, 20
48, 41
471, 609
2008, 2380
1571, 1420
196, 174
14, 19
15, 24
104, 126
309, 357
218, 184
35, 31
12, 9
24, 18
15, 2
2, 4
2, 2
2, 3
3, 1
3, 2
5, 6
5, 4
9, 1
15, 7
15, 13
7, 7
3, 10
5, 6
3, 4
5, 1
2, 1
0, 2
1, 3
1, 3
4, 1
7, 6
5, 3
10, 4
6, 13
4, 8
2, 4
4, 3
1, 4
1, 0
0, 3
3, 5
3, 7
1, 1
3, 2
4, 1
3, 2
5, 4
0, 3
1, 0
4, 2
1, 2
2, 2
0, 3
1, 5
4, 5
2, 0
2, 4
4, 7
3, 3
1, 2
2, 2
2, 2
0, 3
4, 0
0, 1
0, 0
3, 0
2, 1
0, 0
1, 1
2, 3
0, 0
2, 3
1, 1
1, 1
0, 0
1, 3
1, 0
1, 1
2, 1
0, 0
0, 0
0, 0
1, 0
1, 1
1, 0
1, 0
1, 3
0, 2
0, 2
0, 2
3, 0
1, 0
1, 1
1, 1
1, 1
0, 0
0, 0
0, 0
0, 0
0, 1
1, 0
0, 0
0, 0
1, 0
0, 0
0, 1
1, 1
0, 0
1, 1
0, 0
0, 0
1, 0
0, 0
0, 0
1, 1
0, 0
0, 1
0, 0
0, 0
0, 0
0, 0
0, 0
1, 0
0, 0
0, 0
0, 0
0, 0
1, 0
0, 0
0, 0
0, 0
0, 0
0, 0
1, 0
0, 0
0, 0
0, 0
0, 0
0, 0
0, 0
0, 0
0, 0
0, 0
0, 0
0, 0
0, 0
0, 0
0, 0
0, 0
0, 0
0, 0
0, 0
0, 0
0, 0
0, 0
0, 0
0, 0
0, 0
0, 0
0, 0
0, 0
0, 0
0, 0
0, 0
0, 0
0, 0
0, 0
0, 0
0, 0
1, 0
0, 0
0, 0
0, 0
0, 0
0, 0
0, 0
0, 0
0, 0
0, 0
0, 0
0, 0
0, 0
0, 0
0, 0
0, 0
0, 0
0, 0
0, 0
0, 0
0, 0
0, 0
0, 0
0, 0
0, 0
0, 0
0, 0
0, 0
0, 0
0, 0
0, 0
0, 0
0, 0
0, 0
0, 0
0, 0
0, 0
0, 0
0, 0
0, 0
0, 0
0, 0
0, 0
0, 0
0, 0
0, 0
0, 0
0, 0
0, 0
0, 0
0, 0
0, 0
0, 0
0, 0
0, 0
0, 0
0, 0
0, 0
0, 0
0, 0
0, 0
0, 0
0, 0
0, 0
#ENDOFDATA     end of spectrum data

File: ps__0852shot_2210.msa
#FORMAT      : EMSA/MAS spectral data file
#VERSION     : TC202v2.0 PIXL
#TITLE       : N/A
#DATE        :       Date in the format DD-MMM-YYYY, for example 07-JUL-2010
#TIME        :             The time of day at which the spectrum was recorded, in 24-hour format
#OWNER       : PIXL Flight Model       (PIXL will use this to indicate which instrument took the data.)
#NPOINTS     : 4096     Number of data points in the spectrum (This can be zero for configuration only files)
#NCOLUMNS    : 2     Number of data columns in the spectrum (This can be zero for configuration only files)
#XUNITS      : eV
#YUNITS      : COUNTS
#DATATYPE    : YY
#XPERCHAN    : 7.862, 7.881   eV per channel (separate by commas if more than one detector)
#OFFSET      : 18.5, -22.4         eV of first channel  (separate by commas if more than one detector
#SIGNALTYPE  : XRF
#YP_TEMP     : 2.492
#LIVETIME    : 8.54746, 8.37207   seconds (separate by commas if more than one detector)
#REALTIME    : 10, 10.0   seconds (separate by commas if more than one detector)
#SPECTRUM    : start of spectrum data
0, 0
0, 0
0, 0
0, 0
0, 0
0, 0
0, 0
0, 0
1, 0
0, 1
2, 3
44, 45
67, 51
3, 3
2, 3
118, 90
429, 436
118, 89
5, 6
2, 2
1, 1
5, 4
3, 4
3, 5
11, 13
31, 20
13, 14
8, 11
1, 5
1, 3
0, 2
1, 3
3, 22
7, 51
19, 20
3, 6
2, 3
6, 6
4, 1
13, 3
20, 7
32, 12
19, 13
26, 7
11, 4
7, 4
4, 3
4, 6
6, 2
14, 18
14, 21
5, 12
26, 16
68, 46
75, 52
24, 32
70, 40
579, 573
2207, 2345
1646, 1355
184, 127
20, 14
10, 25
111, 136
328, 358
202, 207
41, 15
12, 7
21, 6
16, 7
8, 3
3, 4
3, 2
4, 2
5, 4
4, 5
9, 4
3, 1
8, 6
7, 4
8, 5
4, 7
1, 6
2, 4
2, 4
6, 9
3, 8
2, 2
3, 3
2, 2
4, 1
6, 0
7, 1
9, 8
3, 6
5, 1
4, 0
4, 4
2, 0
4, 2
3, 4
2, 4
2, 1
3, 1
2, 3
2, 1
2, 1
2, 3
3, 1
2, 2
3, 5
2, 1
4, 5
5, 4
3, 5
2, 2
6, 4
7, 6
4, 3
2, 1
0, 0
3, 1
2, 4
2, 2
0, 0
0, 0
3, 2
1, 0
2, 3
3, 0
0, 3
1, 1
2, 0
1, 2
0, 1
2, 1
0, 1
0, 2
1, 1
0, 0
0, 0
0, 0
1, 0
0, 1
0, 2
1, 2
0, 1
0, 2
0, 1
1, 0
0, 0
0, 0
1, 0
0, 1
1, 0
0, 0
0, 0
0, 0
0, 1
0, 0
0, 0
0, 0
0, 2
1, 0
1, 0
1, 0
0, 1
0, 0
0, 0
1, 0
1, 0
0, 0
0, 0
1, 0
0, 0
0, 0
0, 0
0, 0
0, 0
0, 1
0, 0
0, 0
0, 0
0, 0
0, 0
0, 0
0, 0
0, 0
0, 0
0, 0
1, 0
0, 0
0, 0
0, 0
0, 0
0, 0
0, 0
0, 0
0, 0
0, 0
0, 0
0, 0
0, 0
0, 0
0, 0
0, 0
0, 0
0, 0
0, 0
0, 0
0, 0
0, 0
0, 0
0, 0
0, 0
0, 0
0, 0
0, 0
0, 0
0, 0
0, 0
0, 0
0, 0
0, 0
0, 0
0, 0
0, 0
0, 0
0, 0
0, 0
0, 0
0, 0
0, 0
0, 0
0, 0
0, 0
0, 0
0, 0
0, 0
0, 0
0, 0
0, 0
0, 0
0, 0
0, 0
0, 0
0, 0
0, 0
0, 0
0, 0
0, 0
0, 0
0, 0
0, 0
0, 0
0, 0
0, 0
0, 0
0, 0
0, 0
0, 0
0, 0
0, 0
0, 0
0, 0
0, 0
0, 0
0, 0
0, 0
0, 0
0, 0
0, 0
0, 0
0, 0
0, 0
0, 0
0, 0
0, 0
0, 0
0, 0
0, 0
0, 0
0, 0
0, 0
0, 0
0, 0
0, 0
0, 0
0, 0
0, 0
0, 0
0, 0
0, 0
0, 0
#ENDOFDATA     end of spectrum data

File: ps__0852shot_2211.msa
#FORMAT      : EMSA/MAS spectral data file
#VERSION     : TC202v2.0 PIXL
#TITLE       : N/A
#DATE        :       Date in the format DD-MMM-YYYY, for example 07-JUL-2010
#TIME        :             The time of day at which the spectrum was recorded, in 24-hour format
#OWNER       : PIXL Flight Model       (PIXL will use this to indicate which instrument took the data.)
#NPOINTS     : 4096     Number of data points in the spectrum (This can be zero for configuration only files)
#NCOLUMNS    : 2     Number of data columns in the spectrum (This can be zero for configuration only files)
#XUNITS      : eV
#YUNITS      : COUNTS
#DATATYPE    : YY
#XPERCHAN    : 7.862, 7.881   eV per channel (separate by commas if more than one detector)
#OFFSET      : 18.5, -22.4         eV of first channel  (separate by commas if more than one detector
#SIGNALTYPE  : XRF
#YP_TEMP     : 2.396
#LIVETIME    : 8.54638, 8.54313   seconds (separate by commas if more than one detector)
#REALTIME    : 10, 10.0   seconds (separate by commas if more than one detector)
#SPECTRUM    : start of spectrum data
0, 0
0, 0
0, 0
0, 0
0, 0
0, 0
0, 0
0, 0
0, 0
0, 0
1, 2
59, 44
57, 67
3, 2
4, 4
98, 120
393, 455
100, 100
4, 4
1, 2
0, 0
2, 0
0, 1
7, 8
18, 13
41, 20
17, 12
7, 13
2, 6
2, 9
1, 7
2, 4
3, 15
9, 39
14, 13
4, 9
1, 3
5, 1
2, 1
10, 5
22, 2
38, 12
31, 50
16, 42
4, 8
6, 20
4, 25
6, 17
7, 7
10, 15
9, 16
10, 2
23, 13
75, 56
83, 59
25, 19
38, 39
517, 611
2121, 2364
1534, 1395
214, 155
11, 22
20, 41
99, 123
333, 385
216, 192
30, 26
14, 12
11, 8
14, 3
12, 10
4, 8
5, 10
1, 2
6, 5
5, 7
5, 3
9, 8
5, 10
7, 12
7, 3
3, 10
0, 3
2, 2
3, 6
2, 4
6, 8
4, 4
2, 1
4, 6
9, 0
18, 1
15, 3
11, 10
1, 7
4, 0
2, 1
0, 3
3, 2
6, 0
2, 4
3, 3
1, 4
3, 5
3, 6
1, 7
1, 1
3, 2
3, 1
1, 1
4, 1
0, 1
1, 3
2, 2
1, 0
0, 4
3, 3
7, 1
2, 2
2, 2
2, 4
1, 0
2, 2
2, 1
0, 1
3, 1
0, 0
2, 2
1, 1
0, 0
1, 0
3, 0
1, 1
0, 1
0, 0
0, 0
0, 0
0, 0
0, 1
0, 0
0, 1
1, 0
0, 0
1, 1
2, 1
0, 1
1, 0
0, 0
0, 1
0, 0
0, 2
1, 0
1, 0
0, 0
0, 0
1, 0
0, 0
2, 0
0, 0
0, 1
0, 0
0, 0
0, 0
0, 0
0, 1
0, 0
0, 1
0, 0
1, 0
0, 1
0, 1
0, 1
0, 0
0, 0
0, 1
0, 0
1, 0
0, 0
0, 0
0, 0
0, 1
1, 0
0, 0
0, 0
0, 0
0, 1
0, 0
0, 0
0, 0
0, 0
0, 0
0, 0
0, 0
0, 0
0, 0
0, 1
0, 0
0, 0
0, 0
0, 0
0, 0
0, 0
0, 0
0, 0
0, 0
0, 0
0, 0
0, 0
0, 0
0, 0
0, 0
0, 0
0, 0
0, 0
0, 0
0, 0
0, 0
0, 0
0, 0
0, 0
0, 0
0, 0
0, 0
0, 0
0, 0
0, 0
0, 0
0, 0
0, 0
0, 0
0, 0
0, 0
0, 0
0, 0
0, 0
0, 0
0, 0
0, 0
0, 0
0, 0
0, 0
0, 0
0, 0
0, 0
0, 0
0, 0
0, 0
0, 0
0, 0
0, 0
0, 0
0, 0
0, 0
0, 0
0, 0
0, 0
0, 0
0, 0
0, 0
0, 0
0, 0
0, 0
0, 0
0, 0
0, 0
0, 0
0, 0
0, 0
0, 0
0, 0
0, 0
0, 0
0, 0
0, 0
0, 0
0, 0
0, 0
0, 0
0, 0
0, 0
0, 0
0, 0
0, 0
0, 0
0, 0
0, 0
0, 0
0, 0
0, 0
0, 0
0, 0
0, 0
0, 0
0, 0
#ENDOFDATA     end of spectrum data

File: ps__0852shot_2212.msa
#FORMAT      : EMSA/MAS spectral data file
#VERSION     : TC202v2.0 PIXL
#TITLE       : N/A
#DATE        :       Date in the format DD-MMM-YYYY, for example 07-JUL-2010
#TIME        :             The time of day at which the spectrum was recorded, in 24-hour format
#OWNER       : PIXL Flight Model       (PIXL will use this to indicate which instrument took the data.)
#NPOINTS     : 4096     Number of data points in the spectrum (This can be zero for configuration only files)
#NCOLUMNS    : 2     Number of data columns in the spectrum (This can be zero for configuration only files)
#XUNITS      : eV
#YUNITS      : COUNTS
#DATATYPE    : YY
#XPERCHAN    : 7.862, 7.881   eV per channel (separate by commas if more than one detector)
#OFFSET      : 18.5, -22.4         eV of first channel  (separate by commas if more than one detector
#SIGNALTYPE  : XRF
#YP_TEMP     : 2.332
#LIVETIME    : 8.56595, 8.53079   seconds (separate by commas if more than one detector)
#REALTIME    : 10, 10.0   seconds (separate by commas if more than one detector)
#SPECTRUM    : start of spectrum data
0, 0
0, 0
0, 0
0, 0
0, 0
0, 0
0, 0
0, 0
0, 0
1, 0
1, 0
46, 44
55, 53
4, 2
3, 1
113, 97
432, 446
104, 106
5, 3
1, 1
1, 1
3, 2
4, 4
5, 3
24, 15
47, 6
25, 10
15, 6
5, 6
1, 7
3, 5
1, 0
1, 5
8, 15
17, 14
2, 2
2, 3
11, 6
20, 5
30, 2
48, 3
25, 12
12, 54
11, 45
6, 18
5, 13
3, 10
3, 10
2, 10
12, 13
25, 13
33, 7
60, 6
88, 44
81, 55
22, 14
25, 44
468, 590
2226, 2314
1683, 1341
218, 139
10, 19
31, 18
123, 126
315, 364
249, 208
33, 24
11, 8
11, 24
8, 6
9, 3
2, 8
5, 12
7, 3
5, 9
13, 7
12, 7
11, 12
11, 9
13, 4
4, 7
4, 5
6, 6
4, 1
2, 3
0, 3
2, 0
7, 7
1, 3
4, 6
3, 5
15, 1
7, 5
3, 18
1, 8
3, 6
1, 1
0, 4
4, 0
4, 2
5, 0
3, 1
1, 1
1, 2
3, 4
2, 0
0, 2
1, 3
2, 2
3, 2
0, 4
1, 3
1, 2
0, 4
3, 0
4, 3
3, 4
1, 0
2, 0
3, 1
2, 1
3, 2
5, 2
1, 2
1, 1
1, 0
1, 0
1, 1
1, 2
0, 1
4, 2
2, 0
1, 1
0, 0
1, 1
1, 1
1, 0
0, 0
2, 0
0, 0
0, 1
0, 0
0, 0
1, 0
1, 1
0, 0
0, 1
0, 1
1, 0
1, 2
1, 0
0, 0
0, 0
1, 0
0, 0
0, 0
0, 0
0, 2
1, 1
0, 0
1, 0
0, 0
0, 1
0, 0
0, 0
0, 0
0, 0
1, 0
1, 0
1, 1
0, 0
0, 0
1, 1
1, 0
0, 0
0, 0
0, 0
0, 0
0, 0
0, 0
0, 0
0, 0
0, 0
0, 0
0, 1
0, 0
1, 1
0, 0
0, 0
0, 0
1, 0
1, 0
0, 0
0, 0
0, 1
0, 0
0, 0
0, 0
0, 0
0, 0
0, 0
0, 0
0, 0
0, 0
1, 0
0, 0
0, 0
0, 0
1, 0
0, 0
0, 0
0, 0
0, 0
0, 0
0, 0
0, 0
0, 0
0, 0
0, 0
0, 0
0, 0
0, 0
0, 0
0, 0
0, 0
0, 0
0, 0
0, 0
0, 0
0, 0
0, 0
0, 0
0, 0
0, 0
0, 0
0, 0
0, 0
0, 0
0, 0
0, 0
0, 0
0, 0
0, 0
0, 0
0, 0
0, 0
0, 0
0, 0
0, 0
0, 0
0, 0
0, 0
0, 0
0, 0
0, 0
0, 0
0, 0
0, 0
0, 0
0, 0
0, 0
0, 0
0, 0
0, 0
0, 0
0, 0
0, 0
0, 0
0, 0
0, 0
0, 0
0, 0
0, 0
0, 0
0, 0
0, 0
0, 0
0, 0
0, 0
0, 0
0, 0
0, 0
0, 0
0, 0
0, 0
0, 0
0, 0
0, 0
0, 0
0, 0
0, 0
0, 0
0, 0
0, 0
#ENDOFDATA     end of spectrum data

File: ps__0852shot_2213.msa
#FORMAT      : EMSA/MAS spectral data file
#VERSION     : TC202v2.0 PIXL
#TITLE       : N/A
#DATE        :       Date in the format DD-MMM-YYYY, for example 07-JUL-2010
#TIME        :             The time of day at which the spectrum was recorded, in 24-hour format
#OWNER       : PIXL Flight Model       (PIXL will use this to indicate which instrument took the data.)
#NPOINTS     : 4096     Number of data points in the spectrum (This can be zero for configuration only files)
#NCOLUMNS    : 2     Number of data columns in the spectrum (This can be zero for configuration only files)
#XUNITS      : eV
#YUNITS      : COUNTS
#DATATYPE    : YY
#XPERCHAN    : 7.862, 7.881   eV per channel (separate by commas if more than one detector)
#OFFSET      : 18.5, -22.4         eV of first channel  (separate by commas if more than one detector
#SIGNALTYPE  : XRF
#YP_TEMP     : 2.107
#LIVETIME    : 8.54456, 8.57125   seconds (separate by commas if more than one detector)
#REALTIME    : 10, 10.0   seconds (separate by commas if more than one detector)
#SPECTRUM    : start of spectrum data
0, 0
0, 0
0, 0
0, 0
0, 0
0, 0
0, 0
0, 0
0, 0
3, 1
1, 0
67, 37
66, 55
10, 7
4, 4
99, 103
467, 414
108, 81
5, 5
2, 1
2, 2
6, 5
1, 4
7, 3
33, 18
35, 26
32, 17
14, 11
7, 3
3, 2
3, 1
1, 3
2, 1
10, 15
22, 20
3, 1
4, 4
13, 4
23, 4
27, 3
32, 2
21, 10
22, 24
8, 45
7, 26
4, 13
0, 12
6, 10
8, 7
16, 13
30, 7
44, 3
61, 10
97, 45
75, 48
22, 21
25, 33
473, 563
2312, 2197
1652, 1318
208, 153
13, 25
25, 16
111, 114
359, 341
237, 217
37, 35
8, 7
13, 7
8, 5
1, 3
2, 1
4, 7
6, 0
11, 4
21, 4
26, 8
11, 17
9, 11
15, 4
9, 5
4, 12
3, 8
3, 4
1, 6
1, 1
1, 6
5, 2
2, 5
2, 5
5, 7
4, 3
4, 6
9, 13
6, 15
0, 6
2, 4
0, 4
2, 0
4, 0
6, 2
7, 0
4, 2
4, 2
6, 1
1, 0
0, 3
2, 6
2, 2
0, 0
3, 0
2, 1
2, 1
1, 1
2, 3
4, 2
9, 1
5, 3
2, 2
3, 2
1, 1
3, 3
2, 2
0, 2
2, 0
1, 0
1, 0
1, 2
1, 2
2, 0
1, 2
2, 0
2, 0
2, 0
0, 1
0, 2
0, 1
1, 0
1, 0
0, 0
0, 1
4, 1
0, 0
1, 1
2, 0
0, 1
0, 1
1, 0
1, 1
0, 1
0, 1
0, 0
0, 0
0, 0
0, 0
2, 1
1, 0
0, 2
0, 1
0, 0
0, 0
0, 0
1, 0
0, 0
0, 1
0, 1
0, 0
0, 0
0, 0
1, 0
1, 0
0, 0
0, 0
0, 1
1, 0
0, 1
0, 0
0, 0
0, 0
0, 0
0, 0
0, 0
0, 0
2, 0
0, 0
0, 0
0, 0
0, 0
0, 0
0, 0
0, 0
0, 0
0, 1
0, 0
0, 0
0, 0
0, 0
0, 0
0, 0
0, 0
0, 0
0, 1
0, 0
0, 0
0, 0
0, 0
0, 0
0, 0
0, 0
0, 0
0, 0
0, 0
0, 0
0, 0
0, 0
0, 0
0, 0
0, 0
0, 0
0, 0
0, 0
0, 0
0, 0
0, 0
0, 0
0, 0
0, 0
0, 0
0, 0
0, 0
0, 0
0, 0
0, 0
0, 0
0, 0
0, 0
0, 0
0, 0
0, 0
0, 0
0, 0
0, 0
0, 0
0, 0
0, 0
0, 0
0, 0
0, 0
0, 0
0, 0
0, 0
0, 0
0, 0
0, 0
0, 0
0, 0
0, 0
0, 0
0, 0
0, 0
0, 0
0, 0
0, 0
0, 0
0, 0
0, 0
0, 0
0, 0
0, 0
0, 0
0, 0
0, 0
0, 0
0, 0
0, 0
0, 0
0, 0
0, 0
0, 0
0, 0
0, 0
0, 0
0, 0
0, 0
0, 0
0, 0
0, 0
0, 0
0, 0
0, 0
0, 0
0, 0
0, 0
0, 0
#ENDOFDATA     end of spectrum data

File: ps__0852shot_2214.msa
#FORMAT      : EMSA/MAS spectral data file
#VERSION     : TC202v2.0 PIXL
#TITLE       : N/A
#DATE        :       Date in the format DD-MMM-YYYY, for example 07-JUL-2010
#TIME        :             The time of day at which the spectrum was recorded, in 24-hour format
#OWNER       : PIXL Flight Model       (PIXL will use this to indicate which instrument took the data.)
#NPOINTS     : 4096     Number of data points in the spectrum (This can be zero for configuration only files)
#NCOLUMNS    : 2     Number of data columns in the spectrum (This can be zero for configuration only files)
#XUNITS      : eV
#YUNITS      : COUNTS
#DATATYPE    : YY
#XPERCHAN    : 7.862, 7.881   eV per channel (separate by commas if more than one detector)
#OFFSET      : 18.5, -22.4         eV of first channel  (separate by commas if more than one detector
#SIGNALTYPE  : XRF
#YP_TEMP     : 2.203
#LIVETIME    : 8.55375, 8.56478   seconds (separate by commas if more than one detector)
#REALTIME    : 10, 10.0   seconds (separate by commas if more than one detector)
#SPECTRUM    : start of spectrum data
0, 0
0, 0
0, 0
0, 0
0, 0
0, 0
0, 0
0, 0
1, 0
1, 2
5, 3
37, 39
77, 63
11, 7
3, 3
107, 85
442, 371
108, 121
3, 8
1, 3
2, 0
3, 6
3, 3
5, 12
28, 42
35, 32
21, 10
16, 9
3, 4
5, 2
2, 5
1, 6
4, 4
16, 20
18, 11
2, 3
2, 3
7, 4
6, 4
14, 2
10, 4
20, 9
13, 17
12, 16
6, 16
5, 32
3, 42
5, 12
7, 6
23, 13
17, 18
21, 16
30, 9
52, 44
70, 60
21, 19
34, 31
469, 574
2278, 2393
1710, 1346
232, 147
19, 13
26, 21
84, 98
320, 347
253, 198
41, 28
14, 15
13, 42
9, 41
9, 10
8, 2
13, 3
4, 3
7, 5
6, 3
9, 7
3, 12
6, 6
7, 7
6, 3
3, 7
4, 10
8, 11
2, 6
2, 3
5, 2
2, 5
1, 3
3, 5
3, 6
7, 6
6, 7
4, 9
3, 6
0, 3
0, 3
2, 1
2, 4
6, 5
4, 0
2, 1
3, 0
3, 2
0, 5
2, 2
1, 3
1, 0
2, 1
2, 2
0, 1
0, 1
3, 1
3, 2
1, 2
2, 2
2, 6
4, 1
3, 2
1, 4
1, 2
4, 0
3, 2
3, 3
1, 0
2, 3
2, 0
0, 2
1, 1
0, 2
0, 0
0, 1
0, 0
0, 2
1, 2
2, 0
1, 1
0, 1
0, 0
1, 1
2, 1
0, 0
1, 0
0, 1
1, 0
1, 1
0, 0
1, 0
0, 1
0, 0
2, 0
3, 1
0, 0
1, 0
1, 0
0, 0
0, 0
0, 0
1, 0
0, 0
1, 0
0, 0
0, 0
1, 1
0, 0
0, 0
0, 0
1, 0
1, 0
1, 0
0, 0
0, 0
0, 1
0, 0
0, 0
0, 0
0, 1
0, 0
0, 0
0, 0
0, 1
0, 0
0, 0
0, 0
1, 0
0, 0
0, 0
0, 0
0, 0
0, 0
0, 0
0, 0
0, 0
0, 0
0, 0
0, 0
0, 0
0, 0
0, 0
0, 0
0, 0
0, 0
0, 0
0, 0
0, 0
0, 0
0, 0
0, 1
0, 0
0, 0
0, 0
0, 0
0, 0
0, 1
0, 0
0, 0
0, 0
0, 0
0, 0
0, 0
0, 0
0, 0
0, 0
0, 0
0, 0
0, 0
0, 0
0, 0
0, 0
0, 0
0, 0
0, 0
0, 0
0, 0
0, 0
0, 0
0, 0
0, 0
0, 0
0, 0
0, 0
0, 0
0, 0
0, 0
0, 0
0, 0
0, 0
0, 0
0, 0
0, 0
0, 0
0, 0
0, 0
0, 0
0, 0
0, 0
0, 0
0, 0
0, 0
0, 0
0, 0
0, 0
0, 0
0, 0
0, 0
0, 0
0, 0
0, 0
0, 0
0, 0
0, 0
0, 0
0, 0
0, 0
0, 0
0, 0
0, 0
0, 0
0, 0
0, 0
0, 0
0, 0
0, 0
0, 0
0, 0
0, 0
0, 0
0, 0
0, 0
0, 0
0, 0
0, 0
0, 0
0, 0
#ENDOFDATA     end of spectrum data

File: ps__0852shot_2215.msa
#FORMAT      : EMSA/MAS spectral data file
#VERSION     : TC202v2.0 PIXL
#TITLE       : N/A
#DATE        :       Date in the format DD-MMM-YYYY, for example 07-JUL-2010
#TIME        :             The time of day at which the spectrum was recorded, in 24-hour format
#OWNER       : PIXL Flight Model       (PIXL will use this to indicate which instrument took the data.)
#NPOINTS     : 4096     Number of data points in the spectrum (This can be zero for configuration only files)
#NCOLUMNS    : 2     Number of data columns in the spectrum (This can be zero for configuration only files)
#XUNITS      : eV
#YUNITS      : COUNTS
#DATATYPE    : YY
#XPERCHAN    : 7.862, 7.881   eV per channel (separate by commas if more than one detector)
#OFFSET      : 18.5, -22.4         eV of first channel  (separate by commas if more than one detector
#SIGNALTYPE  : XRF
#YP_TEMP     : 2.203
#LIVETIME    : 8.56318, 8.5658   seconds (separate by commas if more than one detector)
#REALTIME    : 10, 10.0   seconds (separate by commas if more than one detector)
#SPECTRUM    : start of spectrum data
0, 0
0, 0
0, 0
0, 0
0, 0
0, 0
0, 0
0, 0
1, 1
1, 0
2, 2
44, 46
64, 68
6, 2
7, 7
104, 124
437, 481
111, 116
9, 5
3, 1
2, 3
4, 4
3, 3
11, 14
30, 29
42, 31
11, 16
14, 10
2, 2
3, 2
0, 3
2, 1
4, 4
5, 17
10, 13
5, 6
4, 5
3, 7
3, 3
4, 6
4, 4
8, 8
20, 9
6, 7
3, 11
5, 52
3, 67
5, 9
8, 4
19, 8
10, 11
5, 7
9, 6
38, 43
64, 61
17, 20
28, 36
454, 645
2234, 2375
1620, 1381
199, 149
18, 24
19, 18
106, 121
346, 367
256, 184
35, 29
8, 20
15, 72
7, 53
3, 18
10, 2
10, 7
9, 5
5, 4
0, 3
6, 4
4, 3
4, 3
4, 4
4, 5
8, 1
2, 0
1, 11
5, 7
0, 1
2, 2
3, 4
0, 2
5, 3
5, 4
2, 7
2, 4
3, 3
4, 1
3, 4
3, 3
4, 1
2, 3
3, 1
2, 4
2, 3
4, 3
0, 3
1, 4
2, 4
1, 3
2, 2
0, 2
0, 4
2, 2
2, 1
3, 0
4, 3
5, 3
2, 5
4, 5
3, 1
2, 0
2, 1
5, 1
1, 0
6, 2
2, 2
0, 1
0, 0
2, 1
0, 4
2, 1
1, 1
0, 0
1, 1
1, 1
2, 3
1, 0
0, 2
0, 1
0, 1
2, 1
0, 0
1, 2
1, 3
0, 0
0, 1
0, 1
1, 1
0, 0
0, 1
1, 0
1, 0
0, 0
0, 0
1, 1
0, 0
0, 0
0, 1
2, 0
0, 0
2, 0
0, 0
1, 0
0, 0
0, 0
0, 0
1, 1
0, 1
0, 0
0, 1
0, 0
0, 0
0, 1
0, 1
0, 0
0, 0
0, 0
2, 1
0, 0
0, 0
0, 0
0, 0
1, 1
0, 0
0, 0
0, 0
0, 0
0, 0
0, 0
0, 0
0, 0
0, 0
0, 0
0, 0
1, 0
0, 0
0, 0
0, 0
0, 0
0, 0
0, 0
0, 0
0, 0
0, 0
0, 0
0, 0
0, 0
0, 0
0, 0
0, 0
0, 0
0, 0
0, 0
0, 0
0, 0
0, 0
0, 0
0, 0
0, 0
0, 0
0, 0
0, 0
0, 0
0, 0
0, 0
0, 0
0, 0
0, 0
0, 0
0, 0
0, 0
0, 0
0, 0
0, 0
0, 0
0, 0
0, 0
0, 0
0, 0
0, 0
0, 0
0, 0
0, 0
1, 0
0, 0
0, 0
0, 0
0, 0
0, 0
0, 0
0, 0
0, 0
0, 0
0, 0
0, 0
0, 0
0, 0
0, 0
0, 0
0, 0
0, 0
0, 0
0, 0
0, 0
0, 0
0, 0
0, 0
0, 0
0, 0
0, 0
0, 0
0, 0
0, 0
0, 0
0, 0
0, 0
0, 0
0, 0
0, 0
0, 0
0, 0
0, 0
0, 0
0, 0
0, 0
0, 0
0, 0
0, 0
0, 0
0, 0
0, 0
0, 0
0, 0
0, 0
0, 0
0, 0
#ENDOFDATA     end of spectrum data

File: ps__0852shot_2216.msa
#FORMAT      : EMSA/MAS spectral data file
#VERSION     : TC202v2.0 PIXL
#TITLE       : N/A
#DATE        :       Date in the format DD-MMM-YYYY, for example 07-JUL-2010
#TIME        :             The time of day at which the spectrum was recorded, in 24-hour format
#OWNER       : PIXL Flight Model       (PIXL will use this to indicate which instrument took the data.)
#NPOINTS     : 4096     Number of data points in the spectrum (This can be zero for configuration only files)
#NCOLUMNS    : 2     Number of data columns in the spectrum (This can be zero for configuration only files)
#XUNITS      : eV
#YUNITS      : COUNTS
#DATATYPE    : YY
#XPERCHAN    : 7.862, 7.881   eV per channel (separate by commas if more than one detector)
#OFFSET      : 18.5, -22.4         eV of first channel  (separate by commas if more than one detector
#SIGNALTYPE  : XRF
#YP_TEMP     : 2.396
#LIVETIME    : 8.5606, 8.57349   seconds (separate by commas if more than one detector)
#REALTIME    : 10, 10.0   seconds (separate by commas if more than one detector)
#SPECTRUM    : start of spectrum data
0, 0
0, 0
0, 0
0, 0
0, 0
0, 0
0, 0
1, 0
1, 1
1, 2
3, 3
50, 37
50, 52
4, 7
6, 4
94, 118
418, 453
91, 111
7, 2
0, 0
1, 1
1, 6
3, 7
10, 9
42, 50
38, 41
24, 17
14, 15
2, 2
2, 1
3, 4
0, 0
5, 3
7, 6
17, 26
4, 14
5, 9
3, 6
4, 3
6, 2
10, 4
6, 6
14, 13
7, 7
7, 16
5, 64
2, 60
6, 20
6, 4
7, 13
12, 9
10, 6
9, 8
40, 42
56, 58
27, 12
32, 38
445, 626
2153, 2488
1590, 1401
207, 149
26, 11
13, 21
111, 121
344, 343
247, 212
31, 24
10, 24
20, 69
9, 68
9, 18
19, 5
16, 5
6, 5
3, 5
6, 6
5, 2
5, 3
5, 1
4, 1
6, 2
3, 0
2, 7
3, 5
2, 1
1, 7
1, 3
6, 3
2, 1
3, 1
1, 2
5, 3
3, 1
1, 3
1, 3
2, 2
1, 6
4, 2
2, 3
3, 4
1, 2
5, 3
4, 2
3, 0
2, 2
3, 0
3, 2
2, 1
2, 0
2, 1
4, 4
2, 2
5, 3
0, 2
1, 3
3, 1
2, 3
1, 7
3, 3
1, 0
1, 0
5, 3
3, 1
2, 1
2, 2
0, 2
2, 1
1, 4
0, 0
1, 1
1, 0
1, 0
0, 0
3, 0
0, 1
0, 1
1, 2
1, 0
0, 0
1, 0
0, 0
0, 0
0, 0
0, 1
0, 0
0, 0
1, 0
0, 2
1, 0
0, 1
0, 0
0, 0
0, 0
0, 1
0, 0
0, 0
0, 1
0, 0
0, 0
1, 0
0, 0
0, 0
0, 0
0, 0
1, 0
0, 0
0, 0
1, 1
1, 0
2, 0
0, 2
0, 0
0, 0
0, 0
0, 0
1, 0
0, 0
0, 0
0, 0
0, 0
0, 0
0, 0
1, 0
0, 0
1, 0
0, 0
0, 0
0, 0
0, 0
0, 0
0, 1
0, 0
1, 1
0, 0
0, 0
0, 0
0, 0
0, 0
0, 0
0, 0
0, 0
0, 0
0, 0
0, 0
0, 0
0, 0
0, 0
0, 0
0, 0
0, 0
0, 0
0, 0
0, 0
0, 0
0, 0
0, 0
0, 0
0, 0
0, 0
0, 0
0, 0
0, 0
0, 0
0, 0
0, 0
0, 0
0, 0
0, 0
0, 0
0, 0
0, 0
0, 0
0, 0
0, 0
0, 0
0, 0
0, 0
0, 0
0, 0
0, 0
0, 0
0, 0
0, 0
0, 0
0, 0
0, 0
0, 0
0, 0
0, 0
0, 0
0, 0
0, 0
0, 0
0, 0
0, 0
0, 0
0, 0
0, 0
0, 0
0, 0
0, 0
0, 0
0, 0
0, 0
0, 0
0, 0
0, 0
0, 0
0, 0
0, 0
0, 0
0, 0
0, 0
0, 0
0, 0
0, 0
0, 0
0, 0
0, 0
0, 0
0, 0
0, 0
0, 0
0, 0
0, 0
0, 0
0, 0
0, 0
0, 0
0, 0
0, 0
0, 0
0, 0
0, 0
#ENDOFDATA     end of spectrum data

File: ps__0852shot_2217.msa
#FORMAT      : EMSA/MAS spectral data file
#VERSION     : TC202v2.0 PIXL
#TITLE       : N/A
#DATE        :       Date in the format DD-MMM-YYYY, for example 07-JUL-2010
#TIME        :             The time of day at which the spectrum was recorded, in 24-hour format
#OWNER       : PIXL Flight Model       (PIXL will use this to indicate which instrument took the data.)
#NPOINTS     : 4096     Number of data points in the spectrum (This can be zero for configuration only files)
#NCOLUMNS    : 2     Number of data columns in the spectrum (This can be zero for configuration only files)
#XUNITS      : eV
#YUNITS      : COUNTS
#DATATYPE    : YY
#XPERCHAN    : 7.862, 7.881   eV per channel (separate by commas if more than one detector)
#OFFSET      : 18.5, -22.4         eV of first channel  (separate by commas if more than one detector
#SIGNALTYPE  : XRF
#YP_TEMP     : 2.396
#LIVETIME    : 8.55295, 8.58418   seconds (separate by commas if more than one detector)
#REALTIME    : 10, 10.0   seconds (separate by commas if more than one detector)
#SPECTRUM    : start of spectrum data
0, 0
0, 0
0, 0
0, 0
0, 0
0, 0
0, 0
0, 0
0, 0
0, 1
1, 1
50, 39
63, 58
8, 3
4, 2
107, 98
423, 423
120, 89
8, 8
0, 1
1, 2
2, 3
3, 2
8, 5
34, 32
42, 36
13, 17
15, 5
2, 5
3, 1
4, 4
6, 0
3, 3
5, 11
16, 8
3, 2
2, 6
8, 4
6, 9
8, 2
10, 2
11, 7
13, 19
15, 14
4, 12
4, 26
8, 18
7, 11
10, 13
19, 25
16, 10
12, 10
15, 13
48, 51
65, 62
31, 16
25, 39
504, 601
2282, 2262
1651, 1361
219, 134
22, 18
21, 19
118, 119
342, 370
255, 215
36, 23
10, 10
14, 29
8, 27
5, 8
7, 2
5, 2
4, 6
8, 6
4, 6
7, 7
2, 1
4, 4
4, 3
3, 7
6, 5
4, 3
4, 4
3, 12
2, 6
0, 2
3, 2
3, 4
3, 2
9, 9
9, 5
3, 2
5, 7
2, 6
4, 5
5, 2
0, 3
4, 1
2, 1
3, 2
5, 1
4, 2
3, 2
1, 0
0, 2
3, 3
2, 3
1, 4
1, 4
2, 1
4, 2
1, 2
2, 3
2, 3
3, 2
5, 5
5, 3
4, 1
2, 3
0, 1
4, 2
1, 1
1, 3
2, 6
1, 1
1, 2
0, 2
0, 2
1, 2
0, 0
1, 1
0, 0
2, 0
0, 0
3, 1
0, 2
0, 0
0, 0
0, 2
0, 0
0, 3
3, 0
1, 0
0, 1
0, 0
0, 0
0, 0
0, 0
0, 0
0, 0
0, 1
0, 0
0, 0
1, 0
0, 0
0, 1
0, 0
1, 0
1, 0
0, 0
1, 0
0, 0
1, 1
1, 0
1, 0
0, 1
0, 0
0, 0
0, 0
0, 0
2, 0
0, 0
0, 0
0, 0
0, 0
0, 0
0, 0
0, 1
0, 0
0, 0
0, 0
0, 0
1, 1
1, 0
0, 0
0, 0
1, 0
0, 0
0, 0
0, 1
0, 0
0, 0
0, 0
0, 0
1, 0
0, 0
0, 0
0, 0
0, 0
0, 0
0, 0
0, 0
0, 0
0, 0
0, 0
0, 0
0, 0
0, 0
0, 0
0, 0
0, 0
0, 0
0, 0
0, 1
0, 0
0, 0
0, 0
1, 0
0, 0
0, 0
0, 0
0, 0
0, 0
0, 0
0, 0
0, 0
0, 0
0, 0
0, 0
0, 0
0, 0
0, 0
0, 0
0, 0
0, 0
0, 0
0, 0
0, 0
0, 0
0, 0
0, 0
0, 0
0, 0
0, 0
0, 0
0, 0
0, 0
0, 0
0, 0
0, 0
0, 0
0, 0
0, 0
0, 0
0, 0
0, 0
0, 0
0, 0
0, 0
0, 0
0, 0
0, 0
0, 0
0, 0
0, 0
0, 0
0, 0
0, 0
0, 0
0, 0
0, 0
0, 0
0, 0
0, 0
0, 0
0, 0
0, 0
0, 0
0, 0
0, 0
0, 0
0, 0
0, 0
0, 0
0, 0
0, 0
0, 0
0, 0
0, 0
0, 0
0, 0
0, 0
0, 0
#ENDOFDATA     end of spectrum data