Folder: data-repository/host_upload/06-09-2024/ps_0852/dump3 (part 57)

File: ps__0852shot_2510.msa
#FORMAT      : EMSA/MAS spectral data file
#VERSION     : TC202v2.0 PIXL
#TITLE       : N/A
#DATE        :       Date in the format DD-MMM-YYYY, for example 07-JUL-2010
#TIME        :             The time of day at which the spectrum was recorded, in 24-hour format
#OWNER       : PIXL Flight Model       (PIXL will use this to indicate which instrument took the data.)
#NPOINTS     : 4096     Number of data points in the spectrum (This can be zero for configuration only files)
#NCOLUMNS    : 2     Number of data columns in the spectrum (This can be zero for configuration only files)
#XUNITS      : eV
#YUNITS      : COUNTS
#DATATYPE    : YY
#XPERCHAN    : 7.862, 7.881   eV per channel (separate by commas if more than one detector)
#OFFSET      : 18.5, -22.4         eV of first channel  (separate by commas if more than one detector
#SIGNALTYPE  : XRF
#YP_TEMP     : 2.171
#LIVETIME    : 8.5663, 8.55001   seconds (separate by commas if more than one detector)
#REALTIME    : 10, 10.0   seconds (separate by commas if more than one detector)
#SPECTRUM    : start of spectrum data
0, 0
0, 0
0, 0
0, 0
0, 0
0, 0
0, 0
0, 0
0, 0
1, 1
3, 7
43, 36
65, 54
7, 5
3, 2
74, 88
445, 361
100, 79
3, 6
3, 5
20, 36
136, 168
60, 54
17, 15
68, 38
71, 35
21, 15
10, 14
7, 3
0, 4
1, 3
1, 4
3, 4
13, 16
12, 18
11, 6
15, 6
11, 6
6, 12
7, 11
3, 4
12, 13
12, 5
12, 27
7, 22
7, 4
9, 9
4, 9
9, 17
14, 26
14, 11
10, 23
12, 60
50, 81
54, 63
50, 23
89, 36
524, 567
2278, 2166
1666, 1352
187, 116
18, 14
19, 27
80, 133
306, 332
231, 198
32, 23
16, 10
12, 15
9, 11
5, 2
16, 4
11, 3
5, 9
10, 11
9, 12
29, 6
45, 3
27, 7
7, 5
5, 3
5, 1
5, 1
3, 1
6, 4
2, 5
3, 2
2, 5
2, 2
5, 2
5, 3
4, 2
6, 2
3, 4
5, 4
3, 2
6, 3
3, 4
3, 1
2, 5
2, 2
0, 2
5, 7
0, 3
3, 1
1, 6
1, 1
4, 2
4, 1
2, 2
2, 2
1, 1
4, 4
0, 2
1, 1
2, 0
3, 4
2, 3
6, 6
1, 3
2, 2
4, 0
3, 1
0, 0
0, 1
0, 0
0, 2
1, 1
0, 1
0, 2
1, 1
2, 1
3, 1
0, 0
2, 1
2, 1
0, 0
0, 0
0, 0
3, 0
0, 0
0, 1
2, 1
0, 0
3, 2
2, 1
0, 0
0, 1
0, 0
0, 0
0, 0
1, 0
0, 0
1, 0
0, 0
0, 2
0, 0
1, 0
0, 1
1, 0
0, 0
0, 2
0, 0
1, 1
0, 0
0, 0
1, 0
0, 0
0, 1
0, 2
0, 0
0, 0
0, 0
0, 1
1, 1
0, 1
0, 0
0, 0
0, 0
0, 0
1, 0
0, 0
0, 1
0, 0
0, 0
1, 0
0, 0
1, 0
0, 0
0, 0
0, 0
0, 0
0, 0
0, 0
0, 0
0, 0
0, 0
0, 0
0, 0
0, 0
0, 0
0, 0
0, 0
0, 0
0, 0
0, 0
0, 0
0, 0
0, 0
0, 0
0, 0
0, 0
0, 0
0, 0
0, 0
0, 0
0, 0
0, 0
0, 0
0, 0
0, 0
0, 0
0, 0
0, 0
0, 0
0, 0
0, 0
0, 0
0, 0
0, 0
0, 0
0, 0
0, 0
0, 0
0, 0
0, 0
0, 0
0, 0
0, 0
0, 0
0, 0
0, 1
0, 0
0, 0
0, 0
0, 0
0, 0
0, 0
0, 0
0, 0
0, 0
0, 0
0, 0
0, 0
0, 0
0, 0
0, 0
0, 0
0, 0
0, 0
0, 0
0, 0
0, 0
0, 0
0, 0
0, 0
0, 0
0, 0
0, 0
0, 0
0, 0
0, 0
0, 0
0, 0
0, 0
0, 0
0, 0
0, 0
0, 0
0, 0
0, 0
0, 0
0, 0
0, 0
0, 0
0, 0
0, 0
0, 0
0, 0
0, 0
0, 0
0, 0
0, 0
0, 0
#ENDOFDATA     end of spectrum data

File: ps__0852shot_2511.msa
#FORMAT      : EMSA/MAS spectral data file
#VERSION     : TC202v2.0 PIXL
#TITLE       : N/A
#DATE        :       Date in the format DD-MMM-YYYY, for example 07-JUL-2010
#TIME        :             The time of day at which the spectrum was recorded, in 24-hour format
#OWNER       : PIXL Flight Model       (PIXL will use this to indicate which instrument took the data.)
#NPOINTS     : 4096     Number of data points in the spectrum (This can be zero for configuration only files)
#NCOLUMNS    : 2     Number of data columns in the spectrum (This can be zero for configuration only files)
#XUNITS      : eV
#YUNITS      : COUNTS
#DATATYPE    : YY
#XPERCHAN    : 7.862, 7.881   eV per channel (separate by commas if more than one detector)
#OFFSET      : 18.5, -22.4         eV of first channel  (separate by commas if more than one detector
#SIGNALTYPE  : XRF
#YP_TEMP     : 2.492
#LIVETIME    : 8.54797, 8.57539   seconds (separate by commas if more than one detector)
#REALTIME    : 10, 10.0   seconds (separate by commas if more than one detector)
#SPECTRUM    : start of spectrum data
0, 0
0, 0
0, 0
0, 0
0, 0
0, 0
0, 0
0, 0
0, 1
1, 2
1, 1
47, 41
64, 56
6, 2
1, 8
103, 85
416, 382
106, 73
6, 6
1, 0
9, 16
94, 96
31, 38
14, 15
34, 32
38, 43
17, 24
12, 9
10, 4
3, 0
1, 3
3, 1
1, 3
7, 11
18, 12
3, 3
9, 8
8, 11
11, 27
3, 15
9, 10
7, 6
14, 21
18, 49
10, 35
6, 3
9, 7
8, 6
14, 10
17, 18
14, 12
10, 18
8, 44
51, 58
55, 59
69, 30
153, 44
567, 552
2262, 2301
1675, 1308
196, 142
14, 13
30, 21
101, 131
333, 362
238, 174
30, 23
14, 9
13, 13
8, 10
7, 6
3, 5
5, 7
2, 3
2, 10
11, 12
30, 5
47, 3
26, 4
6, 4
4, 2
4, 9
7, 1
5, 8
5, 4
3, 7
4, 5
6, 6
1, 1
5, 3
3, 1
1, 3
4, 3
4, 3
4, 2
1, 3
1, 0
3, 3
2, 4
2, 2
3, 0
3, 0
3, 2
1, 5
3, 5
1, 2
3, 3
2, 1
2, 0
3, 1
2, 3
1, 0
2, 2
1, 0
3, 3
4, 3
8, 4
2, 7
2, 1
3, 1
2, 0
3, 0
2, 1
2, 1
0, 1
0, 1
0, 0
2, 2
0, 1
0, 2
0, 1
1, 2
0, 2
2, 0
1, 1
0, 1
0, 0
0, 1
0, 0
0, 0
0, 0
2, 2
1, 0
0, 1
0, 0
0, 0
1, 0
0, 0
0, 1
0, 0
0, 0
1, 1
0, 0
0, 0
0, 1
0, 0
1, 0
0, 0
0, 0
0, 0
0, 1
1, 0
0, 2
1, 0
0, 1
0, 0
0, 0
0, 0
0, 0
0, 0
1, 0
1, 0
0, 0
0, 0
0, 0
1, 0
1, 0
0, 0
0, 0
0, 0
0, 0
0, 0
0, 0
0, 0
0, 0
0, 0
1, 0
0, 0
0, 0
0, 0
0, 0
0, 0
0, 0
0, 0
0, 0
0, 0
0, 0
0, 0
0, 0
0, 0
0, 0
0, 0
0, 0
1, 0
0, 0
0, 0
0, 0
0, 0
0, 0
0, 0
0, 0
0, 0
1, 0
0, 0
0, 0
0, 0
0, 0
0, 0
0, 0
0, 0
0, 0
0, 0
0, 0
0, 0
0, 0
0, 0
0, 0
0, 0
0, 0
0, 0
0, 0
0, 0
0, 0
0, 0
0, 0
0, 0
0, 0
0, 0
0, 0
0, 0
0, 0
0, 0
0, 0
0, 0
0, 0
0, 0
0, 0
0, 0
0, 0
0, 0
0, 0
0, 0
0, 0
0, 0
0, 0
0, 0
0, 0
0, 0
0, 0
0, 0
0, 0
0, 0
0, 0
0, 0
0, 0
0, 0
0, 0
0, 0
0, 0
0, 0
0, 0
0, 0
0, 0
0, 0
0, 0
0, 0
0, 0
0, 0
0, 0
0, 0
0, 0
0, 0
0, 0
0, 0
0, 0
0, 0
0, 0
0, 0
0, 0
0, 0
0, 0
0, 0
0, 0
0, 0
#ENDOFDATA     end of spectrum data

File: ps__0852shot_2512.msa
#FORMAT      : EMSA/MAS spectral data file
#VERSION     : TC202v2.0 PIXL
#TITLE       : N/A
#DATE        :       Date in the format DD-MMM-YYYY, for example 07-JUL-2010
#TIME        :             The time of day at which the spectrum was recorded, in 24-hour format
#OWNER       : PIXL Flight Model       (PIXL will use this to indicate which instrument took the data.)
#NPOINTS     : 4096     Number of data points in the spectrum (This can be zero for configuration only files)
#NCOLUMNS    : 2     Number of data columns in the spectrum (This can be zero for configuration only files)
#XUNITS      : eV
#YUNITS      : COUNTS
#DATATYPE    : YY
#XPERCHAN    : 7.862, 7.881   eV per channel (separate by commas if more than one detector)
#OFFSET      : 18.5, -22.4         eV of first channel  (separate by commas if more than one detector
#SIGNALTYPE  : XRF
#YP_TEMP     : 2.011
#LIVETIME    : 8.55285, 8.54464   seconds (separate by commas if more than one detector)
#REALTIME    : 10, 10.0   seconds (separate by commas if more than one detector)
#SPECTRUM    : start of spectrum data
0, 0
0, 0
0, 0
0, 0
0, 0
0, 0
0, 0
1, 0
1, 5
0, 0
2, 2
55, 48
67, 55
6, 6
4, 4
119, 100
487, 367
110, 89
8, 4
4, 3
17, 7
64, 55
23, 25
11, 11
36, 31
29, 32
16, 24
12, 18
6, 3
3, 5
5, 2
4, 2
4, 2
4, 6
16, 17
1, 3
2, 12
4, 9
5, 6
9, 1
7, 4
9, 8
15, 11
14, 43
5, 54
9, 32
3, 19
10, 5
9, 5
13, 16
22, 9
11, 5
8, 31
40, 53
60, 61
53, 16
141, 38
568, 537
2316, 2202
1679, 1278
220, 144
15, 20
24, 24
93, 117
370, 348
231, 166
41, 20
8, 8
24, 9
19, 8
7, 2
3, 1
5, 5
3, 3
6, 3
6, 10
13, 3
13, 4
8, 4
4, 4
9, 3
4, 4
1, 9
3, 5
2, 2
1, 7
4, 4
6, 7
7, 5
3, 6
8, 2
5, 4
0, 2
1, 1
4, 0
2, 3
5, 3
4, 6
2, 5
10, 5
6, 2
4, 3
2, 1
4, 1
2, 0
2, 3
2, 4
3, 1
3, 1
3, 1
2, 0
3, 1
1, 2
3, 3
3, 2
2, 3
3, 8
3, 0
3, 3
2, 2
2, 1
6, 2
3, 3
1, 1
2, 0
3, 2
0, 0
1, 0
0, 0
1, 0
1, 0
1, 0
1, 0
1, 2
0, 0
0, 0
0, 0
1, 2
0, 0
1, 1
0, 0
3, 1
0, 0
1, 0
0, 1
0, 0
0, 1
0, 1
0, 1
0, 0
1, 1
0, 0
2, 0
0, 1
0, 0
0, 0
0, 0
0, 0
2, 0
0, 0
1, 1
0, 0
0, 0
0, 0
1, 0
0, 0
0, 0
0, 0
0, 0
0, 0
0, 0
1, 0
0, 2
0, 0
0, 0
0, 1
0, 0
0, 0
0, 0
0, 0
0, 0
0, 0
0, 1
1, 0
0, 0
0, 0
0, 1
1, 0
0, 0
0, 1
0, 0
0, 0
0, 0
0, 0
0, 0
0, 1
0, 0
0, 0
0, 0
0, 0
0, 0
0, 0
0, 0
0, 0
0, 0
0, 0
0, 0
0, 0
0, 0
0, 0
0, 0
0, 0
0, 0
0, 0
0, 0
0, 0
0, 0
0, 0
0, 0
0, 0
0, 0
0, 0
0, 0
0, 0
0, 0
0, 0
0, 0
0, 0
0, 0
0, 0
0, 0
0, 0
0, 0
0, 0
0, 0
0, 0
0, 0
0, 0
0, 0
0, 0
0, 0
0, 0
0, 0
0, 0
0, 0
0, 0
0, 0
0, 0
0, 0
0, 0
0, 0
0, 0
0, 0
0, 0
0, 0
0, 0
0, 0
0, 0
0, 0
0, 0
0, 0
0, 0
0, 0
0, 0
0, 0
0, 0
0, 0
0, 0
0, 0
0, 0
0, 0
0, 0
0, 0
0, 0
0, 0
0, 0
0, 0
0, 0
0, 0
0, 0
0, 0
0, 0
0, 0
0, 0
0, 0
0, 0
0, 0
0, 0
0, 0
0, 0
0, 0
0, 0
0, 0
0, 0
#ENDOFDATA     end of spectrum data

File: ps__0852shot_2513.msa
#FORMAT      : EMSA/MAS spectral data file
#VERSION     : TC202v2.0 PIXL
#TITLE       : N/A
#DATE        :       Date in the format DD-MMM-YYYY, for example 07-JUL-2010
#TIME        :             The time of day at which the spectrum was recorded, in 24-hour format
#OWNER       : PIXL Flight Model       (PIXL will use this to indicate which instrument took the data.)
#NPOINTS     : 4096     Number of data points in the spectrum (This can be zero for configuration only files)
#NCOLUMNS    : 2     Number of data columns in the spectrum (This can be zero for configuration only files)
#XUNITS      : eV
#YUNITS      : COUNTS
#DATATYPE    : YY
#XPERCHAN    : 7.862, 7.881   eV per channel (separate by commas if more than one detector)
#OFFSET      : 18.5, -22.4         eV of first channel  (separate by commas if more than one detector
#SIGNALTYPE  : XRF
#YP_TEMP     : 2.3
#LIVETIME    : 8.54849, 8.56817   seconds (separate by commas if more than one detector)
#REALTIME    : 10, 10.0   seconds (separate by commas if more than one detector)
#SPECTRUM    : start of spectrum data
0, 0
0, 0
0, 0
0, 0
0, 0
0, 0
0, 0
0, 0
1, 3
2, 2
2, 2
53, 55
70, 68
7, 1
2, 5
105, 86
431, 394
111, 79
7, 1
0, 0
3, 5
15, 18
3, 4
4, 6
26, 31
40, 45
34, 21
8, 8
7, 3
0, 1
2, 1
0, 3
4, 1
8, 18
18, 13
8, 2
6, 3
2, 8
5, 7
4, 2
5, 2
8, 12
11, 13
9, 12
12, 20
8, 42
6, 37
9, 11
19, 8
19, 19
34, 8
11, 9
4, 10
45, 50
62, 45
35, 25
37, 28
498, 627
2302, 2280
1699, 1321
224, 143
24, 23
13, 20
88, 135
346, 344
258, 202
32, 22
14, 8
16, 17
11, 9
7, 5
3, 4
0, 3
4, 4
3, 8
7, 5
3, 6
5, 6
9, 4
9, 9
11, 5
3, 6
4, 4
5, 5
2, 6
2, 3
3, 1
1, 2
6, 4
7, 9
3, 5
3, 4
7, 2
1, 1
0, 3
4, 5
3, 2
2, 2
7, 3
4, 3
10, 1
7, 3
2, 2
4, 3
2, 5
3, 2
1, 3
2, 1
5, 3
2, 4
1, 1
1, 4
4, 3
2, 4
0, 2
4, 4
6, 5
6, 3
3, 4
2, 4
1, 4
4, 2
2, 3
3, 0
1, 2
0, 0
1, 0
0, 1
0, 1
2, 2
1, 2
3, 1
0, 0
0, 0
0, 0
1, 0
2, 0
0, 0
2, 0
1, 1
0, 0
1, 1
0, 2
1, 1
0, 0
1, 2
0, 0
0, 0
1, 0
0, 2
0, 0
0, 0
1, 0
2, 0
1, 1
1, 1
1, 0
0, 0
0, 0
2, 1
0, 1
1, 0
0, 0
0, 0
0, 0
0, 0
1, 1
1, 0
0, 0
0, 3
1, 0
0, 1
0, 0
0, 0
0, 0
0, 0
0, 0
1, 0
0, 0
0, 0
0, 0
0, 0
1, 0
0, 0
0, 0
0, 0
0, 0
0, 0
0, 0
0, 0
0, 0
0, 0
0, 0
0, 0
0, 0
1, 0
0, 0
0, 0
0, 0
0, 0
0, 0
0, 0
0, 0
0, 0
0, 0
0, 0
0, 0
0, 1
0, 0
0, 0
0, 0
0, 0
0, 0
0, 0
0, 0
0, 0
0, 0
0, 0
0, 0
0, 0
0, 0
0, 0
0, 0
0, 0
0, 0
0, 0
0, 0
0, 0
0, 0
0, 0
0, 0
0, 0
0, 0
0, 0
0, 0
0, 0
0, 0
0, 0
0, 0
0, 0
0, 0
0, 0
0, 0
0, 0
0, 0
0, 0
0, 0
0, 0
0, 0
0, 0
0, 0
0, 0
0, 0
0, 0
0, 0
0, 0
0, 0
0, 0
0, 0
0, 0
0, 0
0, 0
0, 0
0, 0
0, 0
0, 0
0, 0
0, 0
0, 0
0, 0
0, 0
0, 0
0, 0
0, 0
0, 0
0, 0
0, 0
0, 0
0, 0
0, 0
0, 0
0, 0
0, 0
0, 0
0, 0
0, 0
0, 0
0, 0
0, 0
0, 0
0, 0
0, 0
0, 0
0, 0
#ENDOFDATA     end of spectrum data

File: ps__0852shot_2514.msa
#FORMAT      : EMSA/MAS spectral data file
#VERSION     : TC202v2.0 PIXL
#TITLE       : N/A
#DATE        :       Date in the format DD-MMM-YYYY, for example 07-JUL-2010
#TIME        :             The time of day at which the spectrum was recorded, in 24-hour format
#OWNER       : PIXL Flight Model       (PIXL will use this to indicate which instrument took the data.)
#NPOINTS     : 4096     Number of data points in the spectrum (This can be zero for configuration only files)
#NCOLUMNS    : 2     Number of data columns in the spectrum (This can be zero for configuration only files)
#XUNITS      : eV
#YUNITS      : COUNTS
#DATATYPE    : YY
#XPERCHAN    : 7.862, 7.881   eV per channel (separate by commas if more than one detector)
#OFFSET      : 18.5, -22.4         eV of first channel  (separate by commas if more than one detector
#SIGNALTYPE  : XRF
#YP_TEMP     : 2.3
#LIVETIME    : 8.55781, 8.55867   seconds (separate by commas if more than one detector)
#REALTIME    : 10, 10.0   seconds (separate by commas if more than one detector)
#SPECTRUM    : start of spectrum data
0, 0
0, 0
0, 0
0, 0
0, 0
0, 0
0, 0
0, 0
0, 1
1, 2
2, 1
48, 54
61, 64
6, 4
5, 5
94, 107
383, 401
87, 97
4, 9
1, 0
21, 19
106, 154
59, 79
23, 15
40, 52
55, 50
27, 30
10, 8
4, 11
2, 2
8, 4
1, 4
5, 4
15, 8
14, 12
3, 2
9, 6
7, 11
8, 18
11, 9
1, 16
10, 21
16, 21
14, 14
3, 14
4, 78
4, 26
5, 12
12, 9
27, 14
29, 9
12, 5
12, 15
37, 59
56, 69
14, 20
37, 31
441, 622
2037, 2524
1536, 1460
184, 121
14, 12
21, 33
98, 130
328, 360
226, 210
24, 25
1, 11
16, 20
10, 9
4, 2
5, 8
0, 10
3, 6
5, 13
5, 9
4, 9
4, 6
3, 5
5, 2
6, 3
4, 7
5, 8
5, 6
9, 3
3, 6
6, 5
3, 4
2, 8
7, 10
0, 13
0, 5
5, 2
3, 4
2, 2
5, 6
5, 3
3, 3
5, 4
8, 1
5, 2
4, 1
4, 1
4, 5
5, 5
2, 3
1, 5
2, 3
3, 1
1, 1
0, 2
2, 1
3, 4
1, 1
3, 2
1, 0
3, 2
2, 0
1, 6
2, 4
1, 5
2, 2
2, 4
1, 2
2, 0
0, 0
0, 1
2, 1
0, 1
0, 0
0, 1
0, 0
2, 0
1, 1
0, 0
1, 1
1, 0
1, 2
0, 0
2, 0
0, 0
0, 1
0, 3
0, 0
0, 1
0, 2
0, 1
0, 1
0, 1
0, 1
1, 0
0, 0
0, 0
0, 1
0, 0
1, 0
0, 0
1, 0
0, 0
0, 0
0, 1
0, 0
0, 0
0, 0
0, 1
0, 0
2, 0
2, 0
0, 1
0, 0
1, 1
0, 0
0, 0
1, 0
0, 0
0, 0
0, 1
2, 0
0, 0
0, 0
0, 0
0, 0
1, 0
0, 0
0, 0
0, 1
0, 0
0, 0
0, 0
0, 0
0, 0
0, 0
0, 0
0, 0
0, 1
0, 0
0, 0
0, 0
0, 0
0, 0
0, 0
0, 0
0, 0
0, 0
0, 0
0, 0
0, 0
1, 1
0, 0
0, 0
0, 0
0, 0
0, 0
0, 0
0, 0
0, 0
0, 0
0, 0
0, 0
0, 0
0, 0
0, 0
0, 0
0, 0
0, 0
0, 0
0, 0
0, 0
0, 0
0, 0
0, 0
0, 0
0, 0
0, 0
0, 0
0, 0
0, 0
0, 0
0, 0
0, 0
0, 0
0, 0
0, 0
0, 0
0, 0
0, 0
0, 0
0, 0
0, 0
0, 0
0, 0
0, 0
0, 0
0, 0
0, 0
0, 0
0, 0
0, 0
0, 0
0, 0
0, 0
0, 0
0, 0
0, 0
0, 0
0, 0
0, 0
0, 0
0, 0
0, 0
0, 0
0, 0
0, 0
0, 0
0, 0
0, 0
0, 0
0, 0
0, 0
0, 0
0, 0
0, 0
0, 0
0, 0
0, 0
0, 0
0, 0
0, 0
0, 0
0, 0
0, 0
0, 0
0, 0
0, 0
#ENDOFDATA     end of spectrum data

File: ps__0852shot_2515.msa
#FORMAT      : EMSA/MAS spectral data file
#VERSION     : TC202v2.0 PIXL
#TITLE       : N/A
#DATE        :       Date in the format DD-MMM-YYYY, for example 07-JUL-2010
#TIME        :             The time of day at which the spectrum was recorded, in 24-hour format
#OWNER       : PIXL Flight Model       (PIXL will use this to indicate which instrument took the data.)
#NPOINTS     : 4096     Number of data points in the spectrum (This can be zero for configuration only files)
#NCOLUMNS    : 2     Number of data columns in the spectrum (This can be zero for configuration only files)
#XUNITS      : eV
#YUNITS      : COUNTS
#DATATYPE    : YY
#XPERCHAN    : 7.862, 7.881   eV per channel (separate by commas if more than one detector)
#OFFSET      : 18.5, -22.4         eV of first channel  (separate by commas if more than one detector
#SIGNALTYPE  : XRF
#YP_TEMP     : 2.203
#LIVETIME    : 8.55764, 8.54831   seconds (separate by commas if more than one detector)
#REALTIME    : 10, 10.0   seconds (separate by commas if more than one detector)
#SPECTRUM    : start of spectrum data
0, 0
0, 0
0, 0
0, 0
0, 0
0, 0
0, 0
1, 3
2, 7
3, 2
3, 3
34, 56
40, 55
3, 2
2, 6
61, 99
271, 344
71, 70
7, 4
4, 6
71, 75
374, 469
156, 178
37, 47
100, 95
77, 76
36, 35
16, 20
6, 7
4, 3
15, 14
14, 8
11, 6
19, 19
20, 26
3, 13
5, 12
9, 9
7, 9
8, 17
7, 53
9, 133
10, 54
11, 15
9, 7
4, 19
5, 13
2, 11
3, 10
12, 13
10, 19
11, 6
14, 8
28, 45
63, 64
17, 23
30, 39
457, 618
1970, 2364
1445, 1398
174, 121
14, 13
25, 24
112, 118
329, 367
232, 194
33, 28
8, 10
4, 22
10, 8
14, 0
9, 3
8, 5
3, 7
2, 9
5, 13
4, 12
6, 11
2, 8
2, 5
5, 5
6, 14
8, 9
14, 8
8, 2
5, 3
5, 2
3, 6
3, 4
5, 3
3, 5
5, 2
4, 3
3, 1
2, 5
2, 4
6, 4
0, 4
3, 8
3, 2
4, 0
3, 5
2, 6
3, 5
1, 1
2, 1
2, 6
4, 1
1, 1
4, 1
1, 3
2, 5
3, 4
1, 3
1, 4
0, 2
2, 4
1, 1
3, 1
1, 0
3, 2
0, 2
0, 1
1, 2
1, 2
1, 2
2, 0
1, 2
1, 1
1, 2
0, 0
1, 0
1, 1
0, 0
1, 1
2, 0
0, 1
2, 2
0, 0
1, 0
0, 0
1, 1
0, 1
0, 1
0, 1
0, 0
0, 0
1, 0
0, 0
0, 0
1, 0
0, 0
0, 0
0, 0
0, 0
0, 0
0, 0
0, 0
0, 0
0, 0
0, 0
0, 0
0, 0
1, 0
0, 0
0, 0
0, 0
0, 0
0, 0
1, 0
1, 0
0, 0
1, 0
0, 0
0, 0
0, 0
0, 0
0, 0
0, 0
0, 1
0, 0
0, 1
0, 0
1, 1
0, 0
0, 0
0, 0
0, 0
0, 0
0, 0
0, 0
0, 0
0, 0
0, 0
0, 0
0, 0
0, 0
0, 0
0, 0
0, 0
0, 0
0, 0
0, 0
0, 0
0, 0
0, 0
0, 0
1, 0
0, 0
0, 0
0, 0
0, 0
0, 0
0, 0
0, 0
0, 0
1, 0
0, 0
0, 0
0, 0
0, 0
0, 0
0, 0
0, 0
0, 0
0, 0
0, 0
0, 0
0, 0
0, 0
0, 0
0, 0
0, 0
0, 0
0, 0
0, 0
0, 0
0, 0
0, 0
0, 0
0, 0
0, 0
0, 0
0, 0
0, 0
0, 0
0, 0
0, 0
0, 0
0, 0
0, 0
0, 0
0, 0
0, 0
0, 0
0, 0
0, 0
0, 0
0, 0
0, 0
0, 0
0, 0
0, 0
0, 0
0, 0
0, 0
0, 0
0, 0
0, 0
0, 0
0, 0
0, 0
0, 0
0, 0
0, 0
0, 0
0, 0
0, 0
0, 0
0, 0
0, 0
0, 0
0, 0
0, 0
0, 0
0, 0
0, 0
0, 0
0, 0
0, 0
0, 0
0, 0
0, 0
0, 0
#ENDOFDATA     end of spectrum data

File: ps__0852shot_2516.msa
#FORMAT      : EMSA/MAS spectral data file
#VERSION     : TC202v2.0 PIXL
#TITLE       : N/A
#DATE        :       Date in the format DD-MMM-YYYY, for example 07-JUL-2010
#TIME        :             The time of day at which the spectrum was recorded, in 24-hour format
#OWNER       : PIXL Flight Model       (PIXL will use this to indicate which instrument took the data.)
#NPOINTS     : 4096     Number of data points in the spectrum (This can be zero for configuration only files)
#NCOLUMNS    : 2     Number of data columns in the spectrum (This can be zero for configuration only files)
#XUNITS      : eV
#YUNITS      : COUNTS
#DATATYPE    : YY
#XPERCHAN    : 7.862, 7.881   eV per channel (separate by commas if more than one detector)
#OFFSET      : 18.5, -22.4         eV of first channel  (separate by commas if more than one detector
#SIGNALTYPE  : XRF
#YP_TEMP     : 2.428
#LIVETIME    : 8.54836, 8.56594   seconds (separate by commas if more than one detector)
#REALTIME    : 10, 10.0   seconds (separate by commas if more than one detector)
#SPECTRUM    : start of spectrum data
0, 0
0, 0
0, 0
0, 0
0, 0
0, 0
0, 0
0, 1
1, 1
2, 5
7, 4
38, 38
53, 42
5, 5
10, 6
65, 84
278, 325
66, 66
4, 5
7, 3
78, 95
548, 555
200, 221
45, 60
75, 100
59, 71
27, 27
11, 21
7, 6
7, 4
9, 5
2, 2
15, 8
40, 45
56, 82
14, 12
14, 17
16, 12
1, 5
0, 5
0, 42
17, 118
20, 53
7, 15
5, 2
8, 14
7, 9
7, 9
1, 8
14, 22
24, 16
6, 7
5, 5
40, 62
49, 60
28, 8
29, 30
420, 606
1973, 2311
1471, 1358
172, 117
17, 18
20, 18
96, 99
294, 345
213, 196
25, 23
6, 8
8, 19
7, 3
7, 7
4, 3
4, 2
4, 9
6, 9
5, 12
5, 9
1, 5
6, 6
2, 7
3, 8
1, 10
7, 12
6, 12
5, 8
1, 7
4, 5
6, 3
2, 5
3, 5
7, 1
5, 2
3, 4
2, 6
4, 3
2, 3
2, 2
5, 4
6, 4
3, 4
1, 2
1, 1
4, 3
4, 1
4, 1
0, 3
4, 3
0, 3
1, 1
2, 2
0, 2
3, 2
0, 1
2, 2
1, 1
3, 2
1, 4
2, 1
3, 2
2, 2
3, 2
4, 1
1, 1
0, 3
0, 1
4, 2
3, 1
2, 1
2, 2
2, 1
2, 2
0, 1
0, 1
0, 1
1, 0
1, 0
1, 0
1, 0
1, 0
1, 0
1, 2
0, 2
1, 0
1, 0
0, 0
0, 0
0, 0
0, 0
0, 0
1, 1
0, 0
0, 0
1, 0
0, 0
0, 1
0, 0
0, 0
0, 0
0, 0
0, 0
0, 0
0, 0
0, 1
0, 0
0, 0
0, 0
1, 0
0, 0
1, 0
0, 0
0, 0
0, 0
0, 0
0, 0
2, 0
0, 0
0, 0
0, 1
0, 0
0, 0
0, 0
0, 1
0, 0
0, 1
1, 0
0, 0
0, 0
0, 0
0, 0
0, 0
0, 0
0, 0
0, 0
0, 0
0, 0
0, 0
0, 0
0, 0
0, 0
0, 0
0, 0
0, 0
0, 0
0, 0
0, 0
0, 0
0, 0
0, 0
0, 0
0, 0
0, 0
0, 0
0, 0
0, 0
0, 0
0, 0
0, 0
0, 0
0, 0
0, 0
0, 0
0, 0
0, 0
0, 0
0, 0
0, 0
0, 0
0, 0
0, 0
0, 0
0, 0
0, 0
0, 0
0, 0
0, 0
0, 0
0, 0
0, 0
0, 0
0, 0
0, 0
0, 0
0, 0
0, 0
0, 0
0, 0
0, 0
0, 0
0, 0
0, 0
0, 0
0, 0
0, 0
0, 0
0, 0
0, 0
0, 0
0, 0
0, 0
0, 0
0, 0
0, 0
0, 0
0, 0
0, 0
0, 0
0, 0
0, 0
0, 0
0, 0
0, 0
0, 0
0, 0
0, 0
0, 0
0, 0
0, 0
0, 0
0, 0
0, 0
0, 0
0, 0
0, 0
0, 0
0, 0
0, 0
0, 0
0, 0
0, 0
0, 0
0, 0
0, 0
0, 0
0, 0
#ENDOFDATA     end of spectrum data

File: ps__0852shot_2517.msa
#FORMAT      : EMSA/MAS spectral data file
#VERSION     : TC202v2.0 PIXL
#TITLE       : N/A
#DATE        :       Date in the format DD-MMM-YYYY, for example 07-JUL-2010
#TIME        :             The time of day at which the spectrum was recorded, in 24-hour format
#OWNER       : PIXL Flight Model       (PIXL will use this to indicate which instrument took the data.)
#NPOINTS     : 4096     Number of data points in the spectrum (This can be zero for configuration only files)
#NCOLUMNS    : 2     Number of data columns in the spectrum (This can be zero for configuration only files)
#XUNITS      : eV
#YUNITS      : COUNTS
#DATATYPE    : YY
#XPERCHAN    : 7.862, 7.881   eV per channel (separate by commas if more than one detector)
#OFFSET      : 18.5, -22.4         eV of first channel  (separate by commas if more than one detector
#SIGNALTYPE  : XRF
#YP_TEMP     : 2.171
#LIVETIME    : 8.54789, 8.56111   seconds (separate by commas if more than one detector)
#REALTIME    : 10, 10.0   seconds (separate by commas if more than one detector)
#SPECTRUM    : start of spectrum data
0, 0
0, 0
0, 0
0, 0
0, 0
0, 0
1, 0
0, 2
2, 4
1, 3
5, 2
46, 26
48, 55
7, 6
4, 7
65, 65
306, 299
81, 83
5, 10
7, 4
103, 105
549, 592
195, 211
43, 63
80, 91
49, 57
33, 36
20, 22
7, 10
4, 5
8, 9
6, 5
6, 5
53, 83
83, 98
16, 22
16, 9
24, 18
18, 5
13, 10
7, 18
11, 27
11, 20
6, 16
9, 11
4, 12
9, 4
6, 9
12, 16
28, 26
20, 23
5, 18
15, 17
39, 40
51, 53
21, 21
29, 26
461, 529
2082, 2096
1429, 1206
181, 121
21, 22
15, 39
99, 97
270, 297
210, 169
22, 19
4, 7
13, 9
8, 17
8, 35
2, 29
2, 12
6, 4
6, 4
0, 7
6, 2
7, 2
2, 7
3, 6
5, 7
6, 4
6, 7
3, 5
2, 5
6, 3
5, 5
4, 5
1, 2
2, 4
5, 3
0, 4
6, 5
4, 8
0, 2
8, 3
6, 1
6, 1
7, 2
3, 5
2, 5
0, 9
0, 8
7, 11
2, 1
3, 2
3, 2
2, 3
1, 1
0, 7
4, 2
0, 3
4, 4
2, 1
3, 0
1, 2
2, 7
0, 1
4, 2
2, 1
2, 2
3, 2
2, 2
3, 4
1, 3
0, 1
0, 1
2, 1
1, 2
3, 0
1, 0
0, 0
1, 0
0, 1
0, 1
1, 0
2, 0
1, 0
0, 1
0, 0
2, 1
3, 3
1, 0
0, 1
0, 0
1, 2
1, 0
2, 1
0, 2
0, 3
1, 0
0, 0
1, 0
0, 1
1, 0
1, 1
0, 0
0, 0
0, 0
0, 0
0, 0
0, 0
1, 2
0, 0
0, 0
0, 0
0, 0
0, 0
0, 0
0, 1
0, 0
0, 0
1, 0
0, 0
0, 0
0, 0
0, 0
0, 0
0, 0
0, 0
0, 0
0, 1
0, 0
0, 1
1, 0
0, 0
0, 0
0, 0
0, 0
0, 0
0, 0
0, 0
1, 0
0, 0
0, 0
0, 0
0, 0
0, 0
0, 0
0, 0
0, 0
0, 0
0, 0
0, 0
0, 0
0, 0
0, 0
0, 0
0, 0
0, 0
0, 0
0, 0
0, 0
0, 0
0, 0
0, 0
0, 0
0, 0
0, 0
0, 0
0, 0
0, 0
0, 0
0, 0
0, 0
0, 0
0, 0
0, 0
0, 0
0, 0
0, 0
0, 0
0, 0
0, 0
0, 0
0, 0
0, 0
0, 0
0, 0
0, 0
0, 0
0, 0
0, 0
0, 0
0, 0
0, 0
0, 0
0, 0
0, 0
0, 0
0, 0
0, 0
0, 0
0, 0
0, 0
0, 0
0, 0
0, 0
0, 0
0, 0
0, 0
0, 0
0, 0
0, 0
0, 0
0, 0
0, 0
0, 0
0, 0
0, 0
0, 0
0, 0
0, 0
0, 0
0, 0
0, 0
0, 0
0, 0
0, 0
0, 0
0, 0
0, 0
0, 0
0, 0
0, 0
0, 0
0, 0
0, 0
0, 0
0, 0
0, 0
0, 0
0, 0
0, 0
#ENDOFDATA     end of spectrum data

File: ps__0852shot_2518.msa
#FORMAT      : EMSA/MAS spectral data file
#VERSION     : TC202v2.0 PIXL
#TITLE       : N/A
#DATE        :       Date in the format DD-MMM-YYYY, for example 07-JUL-2010
#TIME        :             The time of day at which the spectrum was recorded, in 24-hour format
#OWNER       : PIXL Flight Model       (PIXL will use this to indicate which instrument took the data.)
#NPOINTS     : 4096     Number of data points in the spectrum (This can be zero for configuration only files)
#NCOLUMNS    : 2     Number of data columns in the spectrum (This can be zero for configuration only files)
#XUNITS      : eV
#YUNITS      : COUNTS
#DATATYPE    : YY
#XPERCHAN    : 7.862, 7.881   eV per channel (separate by commas if more than one detector)
#OFFSET      : 18.5, -22.4         eV of first channel  (separate by commas if more than one detector
#SIGNALTYPE  : XRF
#YP_TEMP     : 2.171
#LIVETIME    : 8.56201, 8.5514   seconds (separate by commas if more than one detector)
#REALTIME    : 10, 10.0   seconds (separate by commas if more than one detector)
#SPECTRUM    : start of spectrum data
0, 0
0, 0
0, 0
0, 0
0, 0
0, 0
0, 0
1, 0
1, 2
0, 3
4, 1
45, 40
69, 48
6, 6
5, 6
87, 70
401, 328
99, 74
6, 8
3, 3
50, 77
297, 371
109, 153
25, 35
52, 62
58, 52
13, 20
12, 12
3, 5
3, 7
5, 3
1, 5
4, 3
22, 35
37, 51
8, 11
9, 9
19, 4
75, 11
33, 4
9, 9
14, 17
12, 15
11, 6
3, 9
6, 13
2, 4
6, 6
6, 15
24, 19
24, 22
11, 36
5, 34
48, 53
52, 49
18, 15
35, 40
452, 592
2125, 2318
1598, 1273
187, 112
17, 13
27, 21
97, 119
315, 324
242, 178
29, 19
5, 11
14, 15
17, 13
10, 11
3, 10
4, 2
13, 4
6, 5
10, 5
13, 7
9, 4
5, 1
3, 5
2, 4
4, 3
4, 10
3, 16
4, 15
1, 12
4, 1
7, 7
3, 2
5, 4
2, 7
3, 8
3, 7
1, 4
3, 6
2, 6
5, 1
2, 2
1, 1
2, 4
1, 4
2, 4
3, 1
1, 1
5, 6
2, 2
2, 3
0, 2
0, 2
3, 2
1, 3
2, 2
4, 0
4, 2
2, 4
1, 3
9, 5
4, 1
4, 2
2, 0
1, 2
1, 2
2, 3
1, 3
0, 1
4, 5
0, 0
2, 2
0, 4
1, 0
0, 0
3, 0
1, 2
0, 1
1, 0
0, 0
1, 1
1, 1
0, 0
2, 2
1, 0
1, 1
0, 1
1, 1
0, 0
1, 0
0, 0
1, 0
0, 0
0, 0
0, 0
0, 0
0, 0
1, 0
0, 0
2, 1
0, 1
0, 0
0, 0
0, 0
0, 0
0, 0
0, 0
1, 0
1, 0
0, 1
0, 0
0, 1
0, 0
0, 0
0, 0
2, 0
0, 0
1, 0
1, 0
0, 0
0, 0
0, 2
0, 1
0, 0
0, 0
0, 0
0, 0
0, 2
0, 0
0, 0
0, 0
0, 0
0, 0
0, 0
0, 0
0, 0
0, 0
0, 0
0, 0
0, 0
0, 0
0, 0
0, 0
0, 0
0, 0
0, 0
0, 0
0, 0
0, 0
0, 0
0, 1
0, 0
0, 0
0, 0
0, 0
0, 0
0, 0
0, 0
0, 0
0, 0
0, 0
0, 0
0, 0
0, 0
0, 0
0, 0
0, 0
0, 0
0, 0
0, 0
0, 0
0, 0
0, 0
0, 1
0, 0
0, 0
0, 0
0, 0
0, 0
0, 0
0, 0
0, 0
0, 0
0, 0
0, 0
0, 0
0, 0
0, 0
0, 0
0, 0
0, 0
0, 0
0, 0
0, 0
0, 0
0, 0
0, 0
0, 0
0, 0
0, 0
0, 0
0, 0
0, 0
0, 0
0, 0
0, 0
0, 0
0, 0
0, 0
0, 0
0, 0
0, 0
0, 0
0, 0
0, 0
0, 0
0, 0
0, 0
0, 0
0, 0
0, 0
0, 0
0, 0
0, 0
0, 0
0, 0
0, 0
0, 0
0, 0
0, 0
0, 0
0, 0
0, 0
0, 0
0, 0
0, 0
0, 0
0, 0
#ENDOFDATA     end of spectrum data