Folder: data-repository/host_upload/06-09-2024/ps_0852/dump3 (part 29)

File: ps__0852shot_2255.msa
#FORMAT      : EMSA/MAS spectral data file
#VERSION     : TC202v2.0 PIXL
#TITLE       : N/A
#DATE        :       Date in the format DD-MMM-YYYY, for example 07-JUL-2010
#TIME        :             The time of day at which the spectrum was recorded, in 24-hour format
#OWNER       : PIXL Flight Model       (PIXL will use this to indicate which instrument took the data.)
#NPOINTS     : 4096     Number of data points in the spectrum (This can be zero for configuration only files)
#NCOLUMNS    : 2     Number of data columns in the spectrum (This can be zero for configuration only files)
#XUNITS      : eV
#YUNITS      : COUNTS
#DATATYPE    : YY
#XPERCHAN    : 7.862, 7.881   eV per channel (separate by commas if more than one detector)
#OFFSET      : 18.5, -22.4         eV of first channel  (separate by commas if more than one detector
#SIGNALTYPE  : XRF
#YP_TEMP     : 2.235
#LIVETIME    : 8.5587, 8.55606   seconds (separate by commas if more than one detector)
#REALTIME    : 10, 10.0   seconds (separate by commas if more than one detector)
#SPECTRUM    : start of spectrum data
0, 0
0, 0
0, 0
0, 0
0, 0
0, 0
0, 0
0, 0
0, 0
0, 3
1, 2
50, 47
68, 62
10, 2
5, 5
86, 80
469, 370
111, 86
9, 3
3, 0
1, 0
2, 2
2, 1
4, 8
16, 30
28, 33
13, 41
12, 13
5, 3
5, 1
2, 1
1, 3
3, 3
16, 6
14, 16
6, 6
3, 5
4, 2
2, 5
3, 5
3, 3
11, 13
13, 35
63, 44
99, 7
19, 3
7, 6
2, 8
11, 5
14, 11
13, 16
5, 12
18, 11
52, 38
64, 49
22, 20
38, 33
536, 554
2313, 2283
1755, 1265
237, 122
91, 19
96, 25
109, 107
349, 317
235, 190
36, 19
13, 18
20, 15
12, 11
7, 2
3, 3
3, 2
5, 5
7, 10
5, 7
5, 4
14, 8
9, 8
6, 2
1, 4
7, 4
3, 4
5, 5
1, 16
6, 22
3, 16
7, 2
4, 3
10, 2
15, 6
4, 5
7, 2
2, 2
1, 1
3, 2
3, 2
1, 4
1, 0
3, 4
2, 0
1, 2
5, 0
3, 6
1, 6
5, 2
2, 2
2, 3
3, 0
3, 0
1, 2
0, 0
2, 0
4, 0
0, 0
2, 4
5, 1
6, 4
2, 1
0, 2
2, 1
1, 1
3, 0
1, 1
0, 0
2, 4
3, 1
1, 1
2, 1
0, 0
1, 1
2, 1
0, 1
4, 0
1, 1
1, 0
0, 1
0, 2
1, 2
2, 0
0, 1
0, 1
2, 1
0, 1
1, 2
0, 1
1, 0
0, 1
0, 1
0, 0
0, 2
0, 0
0, 0
0, 0
0, 0
1, 0
0, 0
0, 0
0, 0
0, 0
0, 1
0, 0
1, 0
1, 0
2, 0
0, 0
1, 1
1, 0
1, 0
0, 0
0, 1
0, 0
1, 0
0, 0
0, 0
0, 0
0, 0
1, 0
0, 0
0, 0
0, 0
0, 0
0, 0
0, 0
1, 1
0, 0
0, 0
0, 0
0, 0
0, 0
0, 0
0, 0
0, 0
0, 0
0, 0
0, 0
0, 0
1, 0
0, 1
0, 0
0, 0
0, 0
0, 0
0, 0
0, 0
0, 0
0, 0
0, 0
0, 0
0, 0
0, 0
0, 0
0, 0
0, 0
0, 0
0, 1
0, 0
0, 0
0, 0
0, 0
0, 0
0, 0
0, 0
0, 0
0, 0
0, 0
0, 0
0, 0
0, 0
0, 0
0, 0
0, 0
0, 0
0, 0
0, 0
0, 0
0, 0
0, 0
0, 0
0, 0
0, 0
0, 0
0, 0
0, 0
0, 0
0, 0
0, 0
0, 0
0, 0
0, 0
0, 0
0, 0
0, 0
0, 0
0, 0
0, 0
0, 0
0, 0
0, 0
0, 0
0, 0
0, 0
0, 0
0, 0
0, 0
0, 0
0, 0
0, 0
0, 0
0, 0
0, 0
0, 0
0, 0
0, 0
0, 0
0, 0
0, 0
0, 0
0, 0
0, 0
0, 0
0, 0
0, 0
0, 0
0, 0
0, 0
0, 0
0, 0
0, 0
0, 0
0, 0
0, 0
0, 0
0, 0
#ENDOFDATA     end of spectrum data

File: ps__0852shot_2256.msa
#FORMAT      : EMSA/MAS spectral data file
#VERSION     : TC202v2.0 PIXL
#TITLE       : N/A
#DATE        :       Date in the format DD-MMM-YYYY, for example 07-JUL-2010
#TIME        :             The time of day at which the spectrum was recorded, in 24-hour format
#OWNER       : PIXL Flight Model       (PIXL will use this to indicate which instrument took the data.)
#NPOINTS     : 4096     Number of data points in the spectrum (This can be zero for configuration only files)
#NCOLUMNS    : 2     Number of data columns in the spectrum (This can be zero for configuration only files)
#XUNITS      : eV
#YUNITS      : COUNTS
#DATATYPE    : YY
#XPERCHAN    : 7.862, 7.881   eV per channel (separate by commas if more than one detector)
#OFFSET      : 18.5, -22.4         eV of first channel  (separate by commas if more than one detector
#SIGNALTYPE  : XRF
#YP_TEMP     : 2.556
#LIVETIME    : 8.56717, 8.35754   seconds (separate by commas if more than one detector)
#REALTIME    : 10, 10.0   seconds (separate by commas if more than one detector)
#SPECTRUM    : start of spectrum data
0, 0
0, 0
0, 0
0, 0
0, 0
0, 0
0, 0
0, 0
1, 0
1, 4
3, 2
61, 52
64, 58
8, 4
3, 6
110, 101
421, 376
130, 78
10, 3
0, 1
2, 3
5, 6
1, 3
7, 9
24, 32
41, 54
23, 52
11, 17
7, 2
1, 4
2, 2
5, 1
4, 4
12, 10
22, 17
8, 5
4, 6
3, 4
2, 4
2, 4
3, 2
17, 15
16, 47
30, 27
49, 5
12, 8
2, 7
11, 7
10, 10
20, 12
12, 19
13, 26
7, 20
42, 57
57, 66
17, 28
26, 42
495, 573
2259, 2257
1599, 1270
219, 139
95, 17
110, 27
103, 121
329, 320
252, 214
31, 18
4, 10
13, 16
8, 12
7, 4
6, 5
5, 2
2, 6
3, 9
5, 3
12, 3
12, 3
10, 3
0, 4
3, 6
2, 3
2, 3
5, 9
3, 22
5, 27
5, 10
7, 2
4, 5
7, 2
6, 5
9, 3
4, 3
2, 1
3, 5
4, 5
1, 1
0, 1
4, 3
4, 3
2, 2
1, 3
3, 5
1, 4
2, 5
4, 10
2, 5
0, 1
4, 1
4, 1
3, 0
2, 4
1, 0
1, 2
2, 2
2, 3
2, 4
2, 3
2, 2
1, 0
2, 2
0, 0
1, 1
1, 1
0, 1
1, 1
1, 1
3, 1
0, 0
1, 0
3, 1
1, 2
0, 1
1, 1
5, 1
0, 1
0, 0
1, 0
0, 1
0, 0
2, 0
0, 1
0, 0
1, 0
0, 0
2, 0
1, 0
0, 0
1, 1
1, 0
1, 0
0, 1
0, 0
0, 0
0, 0
1, 1
0, 0
1, 0
0, 0
0, 0
1, 0
0, 0
0, 0
0, 0
0, 0
0, 0
0, 1
1, 0
0, 2
1, 1
1, 0
0, 0
0, 0
0, 0
0, 0
0, 0
0, 0
0, 0
0, 0
0, 0
0, 0
0, 0
0, 0
0, 0
0, 0
0, 0
0, 0
0, 0
0, 0
0, 0
0, 0
0, 0
0, 0
0, 0
0, 0
0, 0
0, 0
0, 0
0, 0
0, 0
0, 0
0, 0
0, 0
0, 0
0, 0
0, 0
0, 0
0, 0
0, 0
0, 0
0, 0
0, 0
0, 0
0, 0
0, 0
0, 0
0, 0
0, 0
0, 0
0, 0
0, 0
0, 0
0, 0
0, 0
0, 0
0, 0
0, 0
0, 0
0, 0
0, 0
0, 0
0, 0
0, 0
0, 0
0, 0
0, 0
0, 0
0, 0
0, 0
0, 0
0, 0
0, 0
0, 0
0, 0
0, 0
0, 0
0, 0
0, 0
0, 0
0, 0
0, 0
0, 0
0, 0
0, 0
0, 0
0, 0
0, 0
0, 0
0, 0
0, 0
0, 0
0, 0
0, 0
0, 0
0, 0
0, 0
0, 0
0, 0
0, 0
0, 0
0, 0
0, 0
0, 0
0, 0
0, 0
0, 0
0, 0
0, 0
0, 0
0, 0
0, 0
0, 0
0, 0
0, 0
0, 0
0, 0
0, 0
0, 0
0, 0
0, 0
0, 0
0, 0
0, 0
0, 0
#ENDOFDATA     end of spectrum data

File: ps__0852shot_2257.msa
#FORMAT      : EMSA/MAS spectral data file
#VERSION     : TC202v2.0 PIXL
#TITLE       : N/A
#DATE        :       Date in the format DD-MMM-YYYY, for example 07-JUL-2010
#TIME        :             The time of day at which the spectrum was recorded, in 24-hour format
#OWNER       : PIXL Flight Model       (PIXL will use this to indicate which instrument took the data.)
#NPOINTS     : 4096     Number of data points in the spectrum (This can be zero for configuration only files)
#NCOLUMNS    : 2     Number of data columns in the spectrum (This can be zero for configuration only files)
#XUNITS      : eV
#YUNITS      : COUNTS
#DATATYPE    : YY
#XPERCHAN    : 7.862, 7.881   eV per channel (separate by commas if more than one detector)
#OFFSET      : 18.5, -22.4         eV of first channel  (separate by commas if more than one detector
#SIGNALTYPE  : XRF
#YP_TEMP     : 2.492
#LIVETIME    : 8.55296, 8.56562   seconds (separate by commas if more than one detector)
#REALTIME    : 10, 10.0   seconds (separate by commas if more than one detector)
#SPECTRUM    : start of spectrum data
0, 0
0, 0
0, 0
0, 0
0, 0
0, 0
0, 0
0, 0
1, 2
6, 2
3, 0
43, 39
57, 52
7, 5
6, 5
113, 122
441, 378
124, 96
5, 7
2, 3
4, 6
10, 13
6, 11
12, 16
77, 121
117, 166
35, 53
19, 10
6, 2
2, 2
2, 2
1, 2
4, 6
45, 36
68, 50
14, 12
11, 8
24, 9
12, 7
13, 4
8, 7
20, 7
22, 35
31, 21
6, 32
8, 16
15, 7
8, 7
13, 8
28, 30
28, 25
26, 12
16, 21
41, 83
62, 67
22, 28
35, 41
485, 576
2254, 2183
1634, 1343
216, 133
52, 28
82, 25
125, 97
350, 343
235, 206
40, 21
5, 13
16, 15
9, 9
4, 4
3, 7
6, 6
4, 6
12, 5
13, 7
13, 3
4, 10
8, 1
7, 4
4, 5
4, 4
4, 4
6, 6
5, 7
9, 7
3, 5
3, 6
4, 2
6, 2
8, 3
9, 3
4, 3
7, 3
10, 2
3, 0
1, 5
2, 4
2, 2
0, 0
5, 2
8, 3
4, 2
3, 5
3, 2
0, 3
2, 5
1, 3
3, 1
2, 2
1, 2
1, 2
5, 1
1, 0
1, 2
2, 5
8, 3
3, 3
0, 0
4, 2
0, 3
0, 0
1, 4
1, 3
2, 1
2, 3
0, 2
1, 1
1, 0
2, 1
1, 0
1, 1
0, 0
1, 0
1, 0
0, 1
0, 0
0, 1
0, 0
0, 1
0, 2
0, 0
1, 1
0, 1
2, 1
1, 1
1, 1
0, 0
0, 0
2, 0
1, 0
0, 0
0, 0
1, 0
1, 0
1, 0
1, 0
0, 0
0, 0
0, 0
0, 0
0, 0
0, 0
0, 0
2, 1
0, 0
0, 0
2, 0
0, 0
0, 1
0, 0
1, 0
0, 0
0, 1
0, 0
0, 0
0, 0
0, 1
0, 0
0, 0
0, 0
1, 0
0, 1
0, 0
0, 0
1, 0
0, 0
0, 0
0, 0
0, 0
0, 0
0, 0
0, 0
0, 0
0, 0
0, 0
0, 0
1, 0
0, 0
0, 0
0, 0
0, 0
0, 0
0, 0
0, 0
0, 0
0, 0
0, 0
0, 0
0, 0
0, 0
0, 0
0, 0
0, 0
0, 0
0, 0
0, 0
0, 0
0, 0
0, 0
0, 0
0, 0
0, 0
0, 0
0, 0
0, 0
0, 0
0, 0
0, 0
0, 0
0, 0
0, 0
0, 0
0, 0
0, 0
0, 0
0, 0
0, 0
0, 0
0, 0
0, 0
0, 0
0, 0
0, 0
0, 0
0, 0
0, 0
0, 0
0, 0
0, 0
0, 0
0, 0
0, 0
0, 0
0, 0
0, 0
0, 0
0, 0
0, 0
0, 0
0, 0
0, 0
0, 0
0, 0
0, 0
0, 0
0, 0
0, 0
0, 0
0, 0
0, 0
0, 0
0, 0
0, 0
0, 0
0, 0
0, 0
0, 0
0, 0
0, 0
0, 0
0, 0
0, 0
0, 0
0, 0
0, 0
0, 0
0, 0
0, 0
0, 0
0, 0
0, 0
0, 0
0, 0
#ENDOFDATA     end of spectrum data

File: ps__0852shot_2258.msa
#FORMAT      : EMSA/MAS spectral data file
#VERSION     : TC202v2.0 PIXL
#TITLE       : N/A
#DATE        :       Date in the format DD-MMM-YYYY, for example 07-JUL-2010
#TIME        :             The time of day at which the spectrum was recorded, in 24-hour format
#OWNER       : PIXL Flight Model       (PIXL will use this to indicate which instrument took the data.)
#NPOINTS     : 4096     Number of data points in the spectrum (This can be zero for configuration only files)
#NCOLUMNS    : 2     Number of data columns in the spectrum (This can be zero for configuration only files)
#XUNITS      : eV
#YUNITS      : COUNTS
#DATATYPE    : YY
#XPERCHAN    : 7.862, 7.881   eV per channel (separate by commas if more than one detector)
#OFFSET      : 18.5, -22.4         eV of first channel  (separate by commas if more than one detector
#SIGNALTYPE  : XRF
#YP_TEMP     : 2.267
#LIVETIME    : 8.5591, 8.56514   seconds (separate by commas if more than one detector)
#REALTIME    : 10, 10.0   seconds (separate by commas if more than one detector)
#SPECTRUM    : start of spectrum data
0, 0
0, 0
0, 0
0, 0
0, 0
0, 0
0, 0
0, 0
6, 0
6, 0
2, 1
49, 41
63, 58
6, 4
2, 7
90, 95
428, 465
107, 109
12, 2
1, 1
2, 0
3, 5
5, 2
23, 2
274, 29
405, 42
69, 12
16, 15
2, 6
1, 2
1, 0
1, 2
2, 3
26, 16
35, 27
4, 7
12, 5
34, 6
45, 4
14, 5
2, 6
7, 6
13, 17
19, 79
6, 106
9, 23
3, 6
7, 10
7, 11
19, 27
30, 15
31, 2
19, 8
34, 50
54, 55
18, 29
35, 58
448, 617
2050, 2458
1576, 1491
178, 193
26, 19
83, 27
153, 137
332, 412
213, 179
35, 23
7, 8
9, 16
6, 4
2, 3
1, 6
1, 14
7, 3
19, 6
66, 6
75, 3
13, 2
4, 7
3, 7
2, 3
2, 3
2, 7
2, 6
3, 5
2, 5
2, 3
3, 8
1, 4
3, 3
6, 8
2, 7
2, 1
4, 2
1, 2
5, 3
1, 4
3, 2
2, 6
1, 5
3, 7
7, 1
2, 1
2, 2
0, 1
1, 7
5, 2
2, 0
0, 0
1, 2
0, 0
3, 3
3, 1
4, 1
5, 0
0, 4
3, 7
2, 3
1, 6
2, 0
0, 1
3, 4
5, 2
1, 1
1, 1
2, 3
2, 1
0, 0
3, 1
2, 2
2, 3
0, 0
1, 0
2, 1
0, 0
0, 0
0, 1
4, 2
1, 1
0, 2
2, 1
0, 2
0, 0
0, 1
0, 0
1, 1
1, 1
0, 1
0, 0
0, 0
0, 0
0, 2
0, 0
0, 0
0, 0
0, 0
0, 0
0, 0
0, 0
0, 1
0, 0
0, 0
0, 0
0, 1
1, 0
0, 0
1, 0
0, 0
0, 0
0, 1
0, 0
0, 0
0, 1
1, 0
1, 0
0, 0
0, 0
0, 0
0, 0
0, 0
1, 0
1, 0
0, 0
1, 0
0, 0
0, 0
0, 0
0, 0
1, 0
0, 0
0, 0
0, 0
0, 0
0, 0
0, 0
0, 0
0, 0
0, 0
0, 0
0, 1
0, 0
0, 0
0, 0
0, 0
0, 0
0, 0
0, 0
0, 0
0, 0
1, 0
0, 0
0, 0
0, 0
1, 0
0, 0
0, 0
0, 0
0, 0
0, 0
0, 0
0, 0
0, 0
0, 0
0, 0
0, 0
0, 0
0, 0
0, 0
0, 0
0, 0
0, 0
0, 0
0, 0
0, 0
0, 0
0, 0
0, 0
0, 0
0, 0
0, 0
0, 0
0, 0
0, 0
0, 0
0, 0
0, 0
0, 0
0, 0
0, 0
0, 0
0, 0
0, 0
0, 0
0, 0
0, 0
0, 0
0, 0
0, 0
0, 0
0, 0
0, 0
0, 0
0, 0
0, 0
0, 0
0, 0
0, 0
0, 0
0, 0
0, 0
0, 0
0, 0
0, 0
0, 0
0, 0
0, 0
0, 0
0, 0
0, 0
0, 0
0, 0
0, 0
0, 0
0, 0
0, 0
0, 0
0, 0
0, 0
0, 0
0, 0
0, 0
0, 0
0, 0
0, 0
#ENDOFDATA     end of spectrum data

File: ps__0852shot_2259.msa
#FORMAT      : EMSA/MAS spectral data file
#VERSION     : TC202v2.0 PIXL
#TITLE       : N/A
#DATE        :       Date in the format DD-MMM-YYYY, for example 07-JUL-2010
#TIME        :             The time of day at which the spectrum was recorded, in 24-hour format
#OWNER       : PIXL Flight Model       (PIXL will use this to indicate which instrument took the data.)
#NPOINTS     : 4096     Number of data points in the spectrum (This can be zero for configuration only files)
#NCOLUMNS    : 2     Number of data columns in the spectrum (This can be zero for configuration only files)
#XUNITS      : eV
#YUNITS      : COUNTS
#DATATYPE    : YY
#XPERCHAN    : 7.862, 7.881   eV per channel (separate by commas if more than one detector)
#OFFSET      : 18.5, -22.4         eV of first channel  (separate by commas if more than one detector
#SIGNALTYPE  : XRF
#YP_TEMP     : 2.396
#LIVETIME    : 8.5639, 8.57137   seconds (separate by commas if more than one detector)
#REALTIME    : 10, 10.0   seconds (separate by commas if more than one detector)
#SPECTRUM    : start of spectrum data
0, 0
0, 0
0, 0
0, 0
0, 0
0, 0
0, 0
0, 0
7, 2
9, 3
6, 0
38, 46
74, 56
11, 3
4, 4
75, 102
403, 435
100, 106
6, 3
4, 1
2, 0
3, 7
6, 1
36, 4
536, 25
930, 51
119, 32
17, 9
4, 4
3, 1
1, 3
2, 2
0, 5
18, 16
18, 20
5, 7
5, 3
27, 3
51, 3
15, 5
15, 3
11, 16
15, 22
12, 91
6, 94
3, 31
5, 4
5, 2
11, 15
26, 32
41, 29
35, 10
27, 12
48, 48
54, 69
27, 40
28, 81
429, 650
2005, 2437
1492, 1442
200, 185
38, 15
107, 20
193, 109
343, 377
249, 229
36, 19
7, 11
11, 13
7, 9
4, 5
5, 4
3, 9
9, 2
33, 4
59, 4
63, 6
22, 11
4, 4
3, 6
4, 6
5, 7
2, 3
0, 2
4, 1
5, 4
6, 8
2, 9
4, 7
4, 5
0, 2
3, 4
2, 5
5, 4
2, 5
1, 0
3, 2
1, 2
0, 3
5, 3
5, 4
6, 1
2, 4
2, 3
2, 4
3, 2
2, 3
2, 3
2, 1
1, 0
0, 2
1, 2
0, 3
1, 3
3, 2
3, 5
3, 6
4, 1
3, 3
2, 1
3, 1
5, 1
1, 0
1, 2
2, 1
1, 2
0, 1
1, 3
1, 4
1, 0
0, 1
0, 1
1, 1
0, 0
1, 1
2, 1
0, 0
1, 0
3, 2
0, 3
0, 2
0, 0
0, 0
0, 0
0, 0
0, 1
0, 0
0, 1
0, 0
0, 2
0, 0
1, 0
0, 0
1, 0
1, 0
0, 1
0, 0
1, 0
0, 1
0, 0
0, 0
0, 0
1, 0
0, 0
0, 1
0, 0
0, 0
1, 0
0, 0
0, 0
1, 0
0, 1
1, 0
0, 1
0, 0
0, 0
0, 0
0, 0
0, 0
0, 0
0, 0
0, 0
0, 0
0, 0
0, 0
0, 0
0, 0
0, 1
1, 0
0, 0
1, 0
0, 0
0, 0
0, 0
0, 0
0, 0
0, 0
0, 0
0, 0
0, 0
0, 0
0, 0
0, 0
0, 0
0, 0
0, 0
0, 0
0, 0
0, 0
1, 0
0, 0
0, 0
0, 0
0, 0
0, 0
0, 0
0, 0
0, 0
0, 0
0, 0
0, 0
0, 0
0, 0
0, 0
0, 0
0, 0
0, 0
0, 0
0, 0
0, 0
0, 0
0, 0
0, 0
0, 0
0, 0
0, 0
0, 0
0, 0
0, 0
0, 0
0, 0
0, 0
0, 0
0, 0
0, 0
0, 0
0, 0
0, 0
0, 0
0, 0
0, 0
0, 0
0, 0
0, 0
0, 0
0, 0
0, 0
0, 0
0, 0
0, 0
0, 0
0, 0
0, 0
0, 0
0, 0
0, 0
0, 0
0, 0
0, 0
0, 0
0, 0
0, 0
0, 0
0, 0
0, 0
0, 0
0, 0
0, 0
0, 0
0, 0
0, 0
0, 0
0, 0
0, 0
0, 0
0, 0
0, 0
0, 0
0, 0
0, 0
0, 0
0, 0
0, 0
0, 0
#ENDOFDATA     end of spectrum data

File: ps__0852shot_2260.msa
#FORMAT      : EMSA/MAS spectral data file
#VERSION     : TC202v2.0 PIXL
#TITLE       : N/A
#DATE        :       Date in the format DD-MMM-YYYY, for example 07-JUL-2010
#TIME        :             The time of day at which the spectrum was recorded, in 24-hour format
#OWNER       : PIXL Flight Model       (PIXL will use this to indicate which instrument took the data.)
#NPOINTS     : 4096     Number of data points in the spectrum (This can be zero for configuration only files)
#NCOLUMNS    : 2     Number of data columns in the spectrum (This can be zero for configuration only files)
#XUNITS      : eV
#YUNITS      : COUNTS
#DATATYPE    : YY
#XPERCHAN    : 7.862, 7.881   eV per channel (separate by commas if more than one detector)
#OFFSET      : 18.5, -22.4         eV of first channel  (separate by commas if more than one detector
#SIGNALTYPE  : XRF
#YP_TEMP     : 2.428
#LIVETIME    : 8.56374, 8.57289   seconds (separate by commas if more than one detector)
#REALTIME    : 10, 10.0   seconds (separate by commas if more than one detector)
#SPECTRUM    : start of spectrum data
0, 0
0, 0
0, 0
0, 0
0, 0
0, 0
0, 0
0, 0
5, 4
16, 1
7, 2
56, 48
62, 55
10, 5
5, 4
82, 96
430, 382
91, 89
6, 5
2, 2
3, 3
4, 12
3, 3
30, 4
467, 29
806, 65
143, 46
14, 16
4, 5
0, 4
0, 3
3, 0
4, 3
11, 9
18, 14
11, 4
2, 2
31, 1
51, 9
16, 1
16, 8
11, 20
15, 31
14, 56
7, 99
6, 21
6, 1
6, 5
8, 9
20, 26
26, 22
37, 17
17, 14
48, 57
65, 55
29, 33
42, 78
464, 603
2091, 2228
1477, 1342
201, 166
24, 23
91, 20
159, 128
352, 379
208, 213
41, 18
6, 8
15, 15
8, 10
4, 4
5, 2
1, 7
7, 5
14, 6
52, 11
49, 5
21, 6
3, 1
3, 5
3, 3
2, 4
3, 6
3, 6
2, 6
3, 5
7, 9
4, 9
3, 4
1, 5
1, 6
2, 8
2, 1
3, 1
3, 7
3, 0
2, 2
1, 4
4, 4
5, 5
6, 6
5, 3
3, 3
1, 3
3, 3
1, 2
5, 2
4, 3
0, 2
1, 2
2, 4
1, 0
8, 0
3, 1
5, 1
0, 4
3, 4
3, 1
2, 2
0, 0
3, 1
3, 0
2, 5
3, 3
0, 1
2, 1
1, 1
0, 0
0, 0
0, 0
1, 0
1, 0
0, 2
2, 0
0, 0
0, 1
1, 0
0, 1
0, 2
0, 1
0, 0
0, 0
1, 1
1, 0
1, 0
1, 1
0, 0
0, 1
1, 0
1, 2
2, 0
3, 1
0, 1
0, 0
0, 0
0, 0
0, 1
0, 0
1, 0
0, 0
0, 0
0, 2
0, 0
0, 0
0, 0
0, 0
0, 0
0, 0
0, 0
1, 0
0, 1
0, 1
0, 1
0, 0
0, 0
0, 0
0, 0
1, 1
0, 0
0, 0
0, 0
0, 1
0, 0
0, 0
0, 0
0, 0
1, 0
0, 1
0, 0
0, 0
0, 0
0, 0
0, 0
0, 0
0, 0
0, 0
0, 0
0, 0
0, 0
0, 0
0, 0
0, 0
0, 0
0, 0
0, 0
1, 0
0, 0
0, 0
0, 0
0, 0
0, 0
0, 0
0, 0
1, 0
0, 0
0, 0
0, 0
0, 0
0, 0
0, 0
0, 0
0, 0
0, 0
0, 0
0, 0
0, 0
0, 0
0, 0
0, 0
0, 1
0, 0
0, 0
0, 0
0, 0
0, 0
0, 0
0, 0
0, 0
0, 0
0, 0
0, 0
0, 0
0, 0
0, 0
0, 0
0, 0
0, 0
0, 0
0, 0
0, 0
0, 0
0, 0
0, 0
0, 0
0, 0
0, 0
0, 0
0, 0
0, 0
0, 0
0, 0
0, 0
0, 0
0, 0
0, 0
0, 0
0, 0
0, 0
0, 0
0, 0
0, 0
0, 0
0, 0
0, 0
0, 0
0, 0
0, 0
0, 0
0, 0
0, 0
0, 0
0, 0
0, 0
0, 0
0, 0
0, 0
0, 0
0, 0
0, 0
0, 0
0, 0
0, 0
0, 0
0, 0
#ENDOFDATA     end of spectrum data

File: ps__0852shot_2261.msa
#FORMAT      : EMSA/MAS spectral data file
#VERSION     : TC202v2.0 PIXL
#TITLE       : N/A
#DATE        :       Date in the format DD-MMM-YYYY, for example 07-JUL-2010
#TIME        :             The time of day at which the spectrum was recorded, in 24-hour format
#OWNER       : PIXL Flight Model       (PIXL will use this to indicate which instrument took the data.)
#NPOINTS     : 4096     Number of data points in the spectrum (This can be zero for configuration only files)
#NCOLUMNS    : 2     Number of data columns in the spectrum (This can be zero for configuration only files)
#XUNITS      : eV
#YUNITS      : COUNTS
#DATATYPE    : YY
#XPERCHAN    : 7.862, 7.881   eV per channel (separate by commas if more than one detector)
#OFFSET      : 18.5, -22.4         eV of first channel  (separate by commas if more than one detector
#SIGNALTYPE  : XRF
#YP_TEMP     : 2.332
#LIVETIME    : 8.57069, 8.57419   seconds (separate by commas if more than one detector)
#REALTIME    : 10, 10.0   seconds (separate by commas if more than one detector)
#SPECTRUM    : start of spectrum data
0, 0
0, 0
0, 0
0, 0
0, 0
0, 0
0, 0
0, 1
1, 0
5, 3
4, 3
41, 50
65, 67
4, 6
3, 7
87, 98
378, 454
98, 98
3, 8
2, 3
0, 1
1, 2
4, 3
20, 3
298, 29
457, 23
71, 15
13, 9
6, 5
6, 5
1, 2
1, 4
3, 2
8, 14
20, 11
5, 8
3, 0
27, 5
34, 3
10, 2
4, 6
7, 12
10, 15
9, 77
4, 91
5, 17
6, 5
6, 8
7, 5
16, 10
21, 14
35, 6
18, 8
36, 40
59, 74
14, 45
32, 90
425, 651
1972, 2458
1513, 1416
174, 164
38, 20
56, 28
143, 124
302, 329
220, 194
29, 26
6, 7
12, 19
11, 8
2, 4
6, 10
4, 9
7, 4
14, 5
46, 4
39, 8
9, 3
2, 4
3, 6
2, 4
3, 4
1, 3
2, 4
3, 8
1, 5
0, 5
2, 4
6, 6
1, 3
3, 1
1, 5
5, 2
1, 5
2, 3
4, 2
0, 3
1, 3
5, 1
2, 3
2, 5
5, 3
1, 3
3, 1
1, 0
2, 4
1, 0
4, 0
1, 5
2, 3
2, 3
2, 3
1, 5
3, 2
2, 1
8, 3
4, 1
2, 4
1, 1
0, 1
2, 1
0, 4
3, 3
1, 1
1, 0
1, 1
1, 0
0, 0
1, 4
2, 2
0, 1
0, 3
1, 1
1, 4
1, 0
0, 1
0, 1
1, 1
1, 1
0, 0
0, 0
0, 2
0, 1
0, 1
1, 1
0, 1
0, 1
0, 0
0, 2
0, 0
0, 0
0, 0
0, 0
1, 0
0, 0
1, 1
0, 2
0, 0
0, 0
0, 0
2, 0
1, 0
0, 0
0, 1
1, 0
1, 0
0, 0
2, 0
0, 1
1, 0
0, 1
0, 0
0, 0
0, 0
0, 0
0, 1
0, 1
0, 0
0, 0
0, 1
0, 1
0, 0
0, 0
0, 0
0, 0
0, 0
0, 0
0, 0
0, 0
0, 0
0, 0
0, 0
0, 0
0, 0
0, 0
0, 0
0, 0
0, 0
0, 0
0, 0
0, 0
0, 0
0, 0
0, 0
0, 0
0, 0
0, 0
0, 0
0, 0
0, 0
0, 0
0, 0
0, 0
0, 0
0, 0
0, 0
0, 0
0, 0
0, 0
0, 0
0, 0
0, 0
0, 0
0, 0
0, 0
0, 0
0, 0
0, 0
0, 0
0, 0
0, 0
0, 0
0, 0
0, 0
0, 0
0, 0
0, 0
0, 0
0, 0
0, 0
0, 0
0, 0
0, 0
0, 0
0, 0
0, 0
0, 0
0, 0
0, 0
0, 0
0, 0
0, 0
0, 0
0, 0
0, 0
0, 0
0, 0
0, 0
0, 0
0, 0
0, 0
0, 0
0, 0
0, 0
0, 0
0, 0
0, 0
0, 0
0, 0
0, 0
0, 0
0, 0
0, 0
0, 0
0, 0
0, 0
0, 0
0, 0
0, 0
0, 0
0, 0
0, 0
0, 0
0, 0
0, 0
0, 0
0, 0
0, 0
0, 0
0, 0
0, 0
0, 0
0, 0
0, 0
#ENDOFDATA     end of spectrum data

File: ps__0852shot_2262.msa
#FORMAT      : EMSA/MAS spectral data file
#VERSION     : TC202v2.0 PIXL
#TITLE       : N/A
#DATE        :       Date in the format DD-MMM-YYYY, for example 07-JUL-2010
#TIME        :             The time of day at which the spectrum was recorded, in 24-hour format
#OWNER       : PIXL Flight Model       (PIXL will use this to indicate which instrument took the data.)
#NPOINTS     : 4096     Number of data points in the spectrum (This can be zero for configuration only files)
#NCOLUMNS    : 2     Number of data columns in the spectrum (This can be zero for configuration only files)
#XUNITS      : eV
#YUNITS      : COUNTS
#DATATYPE    : YY
#XPERCHAN    : 7.862, 7.881   eV per channel (separate by commas if more than one detector)
#OFFSET      : 18.5, -22.4         eV of first channel  (separate by commas if more than one detector
#SIGNALTYPE  : XRF
#YP_TEMP     : 2.428
#LIVETIME    : 8.56487, 8.56864   seconds (separate by commas if more than one detector)
#REALTIME    : 10, 10.0   seconds (separate by commas if more than one detector)
#SPECTRUM    : start of spectrum data
0, 0
0, 0
0, 0
0, 0
0, 0
0, 0
0, 0
0, 0
3, 0
0, 1
0, 2
46, 50
50, 63
4, 5
4, 8
64, 116
384, 474
97, 118
4, 0
1, 0
2, 3
1, 1
4, 3
11, 2
195, 35
300, 42
61, 19
19, 13
1, 0
0, 0
2, 2
2, 2
4, 2
3, 8
12, 11
0, 3
3, 4
15, 5
26, 7
6, 4
8, 2
9, 19
17, 19
4, 61
5, 76
3, 22
10, 2
2, 8
6, 13
8, 16
27, 10
39, 7
19, 12
34, 56
53, 63
17, 26
21, 56
394, 693
1877, 2520
1447, 1526
176, 222
16, 28
34, 28
102, 118
322, 357
197, 236
21, 34
5, 10
16, 18
9, 9
3, 5
4, 3
3, 2
7, 4
9, 4
47, 4
27, 8
10, 9
12, 6
4, 3
1, 4
5, 4
4, 7
2, 3
3, 5
2, 5
4, 2
4, 5
4, 3
2, 4
5, 2
3, 9
3, 1
2, 3
6, 5
2, 4
3, 2
1, 6
1, 2
6, 7
6, 5
5, 2
9, 5
3, 3
1, 3
3, 1
1, 1
0, 1
4, 4
1, 3
1, 2
1, 1
1, 0
4, 3
1, 1
4, 5
5, 4
4, 3
4, 4
0, 3
0, 4
3, 1
0, 4
1, 4
2, 0
0, 5
0, 1
2, 0
2, 2
1, 0
1, 1
0, 0
1, 1
0, 3
3, 1
0, 0
0, 2
0, 0
0, 0
0, 1
1, 1
0, 0
0, 2
1, 1
2, 3
2, 0
0, 0
0, 0
1, 1
1, 0
1, 1
0, 0
0, 1
0, 0
0, 1
1, 0
0, 2
0, 1
1, 0
0, 1
1, 0
0, 0
0, 0
0, 0
0, 0
0, 0
1, 0
0, 0
1, 1
0, 1
0, 1
1, 0
0, 1
0, 0
0, 1
0, 0
0, 1
1, 0
0, 0
0, 0
0, 0
0, 0
0, 0
0, 0
0, 0
0, 0
0, 0
0, 0
0, 0
0, 0
0, 0
0, 1
0, 0
1, 0
0, 0
0, 0
0, 0
1, 0
0, 0
0, 0
0, 0
0, 0
0, 0
0, 0
0, 0
0, 0
0, 0
0, 0
0, 0
0, 0
0, 0
0, 0
0, 0
0, 0
0, 0
0, 0
0, 0
0, 0
0, 0
0, 0
0, 0
0, 0
0, 0
0, 0
0, 0
0, 0
0, 0
0, 0
0, 0
0, 0
0, 0
0, 0
0, 0
0, 0
0, 0
0, 0
0, 0
0, 0
0, 0
0, 0
0, 0
0, 0
0, 0
0, 0
0, 0
0, 0
0, 0
0, 0
0, 0
0, 0
0, 0
0, 0
0, 0
0, 0
0, 0
0, 0
0, 0
0, 0
0, 0
0, 0
0, 0
0, 0
0, 0
0, 0
0, 0
0, 0
0, 0
0, 0
0, 0
0, 0
0, 0
0, 0
0, 0
0, 0
0, 0
0, 0
0, 0
0, 0
0, 0
0, 0
0, 0
0, 0
0, 0
0, 0
0, 0
0, 0
0, 0
0, 0
0, 0
0, 0
0, 0
0, 0
0, 0
0, 0
#ENDOFDATA     end of spectrum data

File: ps__0852shot_2263.msa
#FORMAT      : EMSA/MAS spectral data file
#VERSION     : TC202v2.0 PIXL
#TITLE       : N/A
#DATE        :       Date in the format DD-MMM-YYYY, for example 07-JUL-2010
#TIME        :             The time of day at which the spectrum was recorded, in 24-hour format
#OWNER       : PIXL Flight Model       (PIXL will use this to indicate which instrument took the data.)
#NPOINTS     : 4096     Number of data points in the spectrum (This can be zero for configuration only files)
#NCOLUMNS    : 2     Number of data columns in the spectrum (This can be zero for configuration only files)
#XUNITS      : eV
#YUNITS      : COUNTS
#DATATYPE    : YY
#XPERCHAN    : 7.862, 7.881   eV per channel (separate by commas if more than one detector)
#OFFSET      : 18.5, -22.4         eV of first channel  (separate by commas if more than one detector
#SIGNALTYPE  : XRF
#YP_TEMP     : 2.235
#LIVETIME    : 8.56608, 8.57301   seconds (separate by commas if more than one detector)
#REALTIME    : 10, 10.0   seconds (separate by commas if more than one detector)
#SPECTRUM    : start of spectrum data
0, 0
0, 0
0, 0
0, 0
0, 0
0, 0
0, 0
0, 1
0, 1
2, 4
1, 1
36, 50
72, 75
2, 6
3, 4
88, 119
407, 496
92, 93
10, 6
1, 0
1, 0
4, 2
6, 7
7, 9
47, 123
77, 238
32, 40
18, 22
10, 8
2, 4
1, 0
0, 3
5, 4
9, 9
13, 15
6, 1
9, 8
19, 11
34, 4
15, 5
5, 6
5, 5
6, 15
16, 87
5, 88
6, 12
2, 7
4, 11
4, 9
20, 9
27, 11
40, 10
19, 7
40, 48
60, 65
22, 30
29, 73
466, 634
2087, 2475
1518, 1463
176, 203
21, 27
42, 32
124, 130
318, 337
248, 202
24, 20
9, 11
9, 21
9, 5
3, 1
0, 2
2, 5
4, 3
13, 4
44, 5
48, 4
14, 6
2, 5
4, 3
1, 5
3, 2
3, 4
10, 2
5, 5
3, 5
2, 13
1, 5
3, 7
2, 2
1, 3
4, 8
3, 4
1, 3
3, 4
2, 5
2, 3
3, 2
1, 4
3, 4
1, 4
2, 3
2, 1
3, 3
2, 4
2, 0
1, 6
0, 2
1, 1
0, 2
2, 2
1, 1
0, 2
1, 0
3, 0
4, 4
5, 5
2, 7
0, 4
3, 1
2, 0
3, 1
1, 3
2, 2
0, 1
1, 1
0, 2
0, 1
2, 1
1, 1
1, 3
2, 0
0, 2
1, 0
1, 0
1, 1
1, 1
0, 0
0, 0
0, 0
0, 0
2, 0
0, 1
0, 0
1, 3
0, 0
1, 0
0, 0
1, 0
0, 2
0, 0
0, 0
0, 0
0, 1
0, 0
0, 0
1, 1
1, 0
0, 0
0, 0
0, 0
0, 0
1, 2
0, 0
0, 1
0, 1
1, 0
0, 0
0, 0
1, 0
0, 0
0, 0
0, 1
0, 0
1, 1
0, 0
0, 0
0, 0
0, 0
0, 0
0, 0
0, 0
0, 0
0, 0
0, 0
0, 0
0, 0
0, 0
0, 0
0, 0
0, 0
0, 0
0, 0
0, 1
1, 0
0, 0
1, 0
0, 0
0, 0
0, 0
0, 0
0, 0
0, 0
0, 0
0, 0
0, 0
0, 0
0, 0
0, 0
0, 0
0, 0
0, 0
0, 0
0, 0
0, 0
0, 0
0, 0
0, 0
0, 0
0, 0
0, 0
0, 0
0, 0
0, 0
0, 0
0, 0
0, 0
0, 0
0, 0
0, 0
0, 0
0, 0
0, 0
0, 0
0, 0
0, 0
0, 0
0, 0
0, 0
0, 0
0, 0
0, 0
0, 0
0, 0
0, 0
0, 0
0, 0
0, 0
0, 0
0, 0
0, 0
0, 0
0, 0
0, 0
0, 0
0, 0
0, 0
0, 0
0, 0
0, 0
0, 0
0, 0
0, 0
0, 0
0, 0
0, 0
0, 0
0, 0
0, 0
0, 0
0, 0
0, 0
0, 0
0, 0
0, 0
0, 0
0, 0
0, 0
0, 0
0, 0
0, 0
0, 0
0, 0
0, 0
0, 0
0, 0
0, 0
0, 0
0, 0
0, 0
0, 0
0, 0
0, 0
0, 0
#ENDOFDATA     end of spectrum data