Folder: data-repository/host_upload/06-09-2024/ps_0852/dump3 (part 64)

File: ps__0852shot_2573.msa
#FORMAT      : EMSA/MAS spectral data file
#VERSION     : TC202v2.0 PIXL
#TITLE       : N/A
#DATE        :       Date in the format DD-MMM-YYYY, for example 07-JUL-2010
#TIME        :             The time of day at which the spectrum was recorded, in 24-hour format
#OWNER       : PIXL Flight Model       (PIXL will use this to indicate which instrument took the data.)
#NPOINTS     : 4096     Number of data points in the spectrum (This can be zero for configuration only files)
#NCOLUMNS    : 2     Number of data columns in the spectrum (This can be zero for configuration only files)
#XUNITS      : eV
#YUNITS      : COUNTS
#DATATYPE    : YY
#XPERCHAN    : 7.862, 7.881   eV per channel (separate by commas if more than one detector)
#OFFSET      : 18.5, -22.4         eV of first channel  (separate by commas if more than one detector
#SIGNALTYPE  : XRF
#YP_TEMP     : 2.332
#LIVETIME    : 8.55066, 8.55898   seconds (separate by commas if more than one detector)
#REALTIME    : 10, 10.0   seconds (separate by commas if more than one detector)
#SPECTRUM    : start of spectrum data
0, 0
0, 0
0, 0
0, 0
0, 0
0, 0
0, 0
0, 0
1, 1
1, 0
0, 2
42, 41
45, 64
7, 3
4, 4
96, 108
461, 474
87, 93
7, 0
0, 2
5, 1
5, 3
5, 6
14, 13
53, 75
42, 57
24, 37
10, 8
6, 4
0, 1
0, 3
6, 1
4, 0
7, 11
14, 18
5, 5
2, 3
7, 4
8, 6
19, 5
9, 6
8, 14
9, 15
12, 8
7, 4
3, 3
6, 8
9, 40
6, 67
14, 31
17, 14
10, 9
4, 7
54, 39
59, 56
17, 16
43, 37
461, 634
2265, 2448
1643, 1547
174, 135
15, 26
24, 23
109, 117
330, 377
225, 172
26, 29
10, 7
15, 14
12, 8
3, 2
5, 5
3, 19
1, 12
4, 9
3, 6
5, 3
1, 6
6, 5
7, 3
2, 4
4, 2
2, 4
6, 16
1, 21
3, 19
5, 7
3, 7
4, 4
5, 2
13, 6
25, 3
5, 1
4, 3
4, 2
3, 2
3, 10
0, 2
1, 3
1, 0
1, 1
1, 1
2, 2
2, 2
3, 2
4, 0
1, 2
2, 4
2, 7
0, 1
0, 4
6, 1
2, 2
5, 0
2, 1
4, 4
4, 5
5, 3
2, 2
2, 1
0, 1
0, 5
2, 2
1, 2
1, 2
0, 1
0, 2
3, 1
0, 0
1, 1
1, 2
1, 2
0, 2
0, 1
3, 2
2, 2
0, 0
0, 0
0, 0
0, 0
1, 0
0, 0
0, 2
0, 0
1, 3
0, 1
1, 0
1, 0
1, 0
1, 1
0, 1
1, 0
0, 2
1, 0
1, 0
1, 0
0, 1
0, 1
0, 1
0, 0
0, 0
0, 0
0, 0
0, 0
0, 0
0, 0
1, 0
0, 0
0, 0
1, 1
0, 1
0, 2
0, 1
0, 0
0, 0
0, 0
1, 0
0, 0
0, 1
0, 0
0, 0
0, 0
0, 0
0, 0
0, 0
0, 0
0, 0
0, 0
0, 0
0, 0
0, 0
0, 0
0, 0
0, 0
0, 0
0, 0
0, 0
0, 1
0, 0
0, 0
0, 0
0, 0
0, 0
0, 0
0, 0
0, 0
0, 0
0, 0
0, 0
0, 0
0, 0
0, 0
0, 0
0, 0
0, 0
0, 0
0, 0
0, 0
0, 0
0, 0
0, 0
0, 0
0, 0
0, 0
0, 0
0, 0
0, 0
0, 0
0, 0
0, 0
0, 0
0, 0
0, 0
0, 0
0, 0
0, 0
0, 0
0, 0
0, 0
0, 0
0, 0
0, 0
0, 0
0, 0
0, 0
0, 0
0, 0
0, 0
0, 0
0, 0
0, 0
0, 0
0, 0
0, 0
0, 0
0, 0
0, 0
0, 0
0, 0
0, 0
0, 0
0, 0
0, 0
0, 0
0, 0
0, 0
0, 0
0, 0
0, 0
0, 0
0, 0
0, 0
0, 0
0, 0
0, 0
0, 0
0, 0
0, 0
0, 0
0, 0
0, 0
0, 0
0, 0
0, 0
0, 0
0, 0
0, 0
0, 0
0, 0
0, 0
0, 0
0, 0
0, 0
0, 0
#ENDOFDATA     end of spectrum data

File: ps__0852shot_2574.msa
#FORMAT      : EMSA/MAS spectral data file
#VERSION     : TC202v2.0 PIXL
#TITLE       : N/A
#DATE        :       Date in the format DD-MMM-YYYY, for example 07-JUL-2010
#TIME        :             The time of day at which the spectrum was recorded, in 24-hour format
#OWNER       : PIXL Flight Model       (PIXL will use this to indicate which instrument took the data.)
#NPOINTS     : 4096     Number of data points in the spectrum (This can be zero for configuration only files)
#NCOLUMNS    : 2     Number of data columns in the spectrum (This can be zero for configuration only files)
#XUNITS      : eV
#YUNITS      : COUNTS
#DATATYPE    : YY
#XPERCHAN    : 7.862, 7.881   eV per channel (separate by commas if more than one detector)
#OFFSET      : 18.5, -22.4         eV of first channel  (separate by commas if more than one detector
#SIGNALTYPE  : XRF
#YP_TEMP     : 2.235
#LIVETIME    : 8.54357, 8.56249   seconds (separate by commas if more than one detector)
#REALTIME    : 10, 10.0   seconds (separate by commas if more than one detector)
#SPECTRUM    : start of spectrum data
0, 0
0, 0
0, 0
0, 0
0, 0
0, 0
0, 0
0, 3
0, 0
0, 1
3, 0
37, 38
47, 62
4, 8
5, 5
109, 123
425, 481
87, 106
7, 5
3, 0
2, 2
4, 6
2, 6
8, 27
52, 199
49, 174
28, 34
12, 21
3, 4
3, 0
2, 3
4, 3
4, 5
6, 9
9, 19
5, 4
2, 3
3, 5
16, 5
20, 7
9, 4
6, 11
12, 13
13, 16
20, 6
11, 6
5, 6
1, 16
9, 55
18, 33
16, 15
19, 5
13, 9
39, 57
39, 75
12, 20
28, 39
456, 645
2033, 2644
1428, 1578
172, 150
15, 22
25, 21
87, 134
312, 367
206, 246
29, 21
4, 13
10, 18
2, 7
2, 5
4, 4
4, 12
4, 12
4, 6
3, 5
7, 3
4, 3
4, 1
6, 4
5, 8
6, 2
4, 4
3, 12
4, 18
3, 17
2, 8
4, 3
3, 4
3, 2
8, 3
11, 4
14, 2
4, 3
2, 6
4, 2
1, 9
4, 6
2, 2
2, 2
0, 2
2, 2
2, 4
1, 3
4, 1
1, 3
2, 2
1, 3
1, 4
0, 3
1, 5
3, 1
0, 2
4, 2
5, 2
4, 1
5, 3
5, 1
1, 2
1, 1
0, 3
3, 3
1, 1
1, 3
2, 2
1, 1
2, 0
1, 2
2, 2
0, 0
0, 4
1, 1
0, 1
2, 1
1, 1
0, 0
1, 1
0, 0
0, 0
0, 0
1, 2
0, 1
2, 0
1, 0
1, 1
0, 1
1, 0
1, 1
2, 0
0, 0
0, 0
0, 1
0, 0
0, 0
1, 0
1, 0
0, 1
0, 0
0, 0
0, 0
0, 0
2, 1
0, 0
0, 0
0, 1
1, 1
0, 0
0, 0
0, 0
1, 1
0, 1
0, 0
0, 0
0, 0
1, 0
0, 1
0, 0
0, 0
0, 0
0, 1
0, 1
0, 0
0, 0
0, 0
0, 0
0, 0
0, 0
0, 0
0, 0
0, 0
0, 0
0, 0
0, 0
0, 0
0, 1
0, 0
0, 0
0, 0
0, 0
0, 0
0, 0
0, 0
0, 0
0, 0
0, 0
0, 0
0, 0
0, 0
0, 0
0, 0
0, 0
0, 0
0, 0
0, 0
0, 0
0, 0
0, 0
0, 0
0, 0
0, 0
0, 0
0, 0
0, 0
0, 0
0, 0
0, 0
0, 0
0, 0
0, 0
0, 0
0, 0
0, 0
0, 0
0, 0
0, 0
0, 0
0, 0
0, 0
0, 0
0, 0
0, 0
0, 0
0, 0
0, 0
0, 0
0, 0
0, 0
0, 0
0, 0
0, 0
0, 0
0, 0
0, 0
0, 0
0, 0
0, 0
0, 0
0, 0
0, 0
0, 0
0, 0
0, 0
0, 0
0, 0
0, 0
0, 0
0, 0
0, 0
0, 0
0, 0
0, 0
0, 0
0, 0
0, 0
0, 0
0, 0
0, 0
0, 0
0, 0
0, 0
0, 0
0, 0
0, 0
0, 0
0, 0
0, 0
0, 0
0, 0
0, 0
0, 0
0, 0
0, 0
0, 0
0, 0
#ENDOFDATA     end of spectrum data

File: ps__0852shot_2575.msa
#FORMAT      : EMSA/MAS spectral data file
#VERSION     : TC202v2.0 PIXL
#TITLE       : N/A
#DATE        :       Date in the format DD-MMM-YYYY, for example 07-JUL-2010
#TIME        :             The time of day at which the spectrum was recorded, in 24-hour format
#OWNER       : PIXL Flight Model       (PIXL will use this to indicate which instrument took the data.)
#NPOINTS     : 4096     Number of data points in the spectrum (This can be zero for configuration only files)
#NCOLUMNS    : 2     Number of data columns in the spectrum (This can be zero for configuration only files)
#XUNITS      : eV
#YUNITS      : COUNTS
#DATATYPE    : YY
#XPERCHAN    : 7.862, 7.881   eV per channel (separate by commas if more than one detector)
#OFFSET      : 18.5, -22.4         eV of first channel  (separate by commas if more than one detector
#SIGNALTYPE  : XRF
#YP_TEMP     : 2.171
#LIVETIME    : 8.54917, 8.59341   seconds (separate by commas if more than one detector)
#REALTIME    : 10, 10.0   seconds (separate by commas if more than one detector)
#SPECTRUM    : start of spectrum data
0, 0
0, 0
0, 0
0, 0
0, 0
0, 0
0, 0
0, 1
2, 5
2, 13
1, 5
43, 49
58, 47
6, 9
7, 2
102, 88
455, 422
101, 114
10, 3
1, 4
1, 1
1, 6
0, 11
13, 48
39, 515
39, 627
24, 75
9, 13
5, 1
5, 1
5, 2
2, 5
1, 0
10, 9
13, 9
11, 7
18, 3
5, 5
3, 31
11, 26
2, 4
9, 8
11, 17
17, 13
27, 4
24, 7
10, 12
7, 14
5, 16
12, 35
10, 16
54, 5
26, 8
41, 37
55, 69
17, 14
30, 31
519, 613
2224, 2290
1573, 1444
186, 131
11, 9
22, 38
104, 163
358, 363
222, 182
22, 29
7, 9
19, 20
6, 8
3, 7
9, 2
7, 9
7, 24
7, 11
7, 5
5, 2
4, 5
2, 2
5, 2
9, 3
6, 6
1, 5
3, 4
2, 5
2, 5
8, 4
5, 4
2, 5
1, 6
7, 3
5, 6
8, 4
1, 4
1, 1
8, 1
8, 2
10, 7
3, 8
3, 3
1, 2
5, 0
4, 2
2, 2
6, 5
4, 2
2, 1
0, 2
0, 3
2, 4
0, 0
0, 2
1, 0
3, 4
3, 1
2, 1
5, 2
5, 7
1, 2
1, 1
1, 1
1, 4
0, 3
0, 0
4, 1
2, 2
2, 0
2, 0
1, 2
1, 0
1, 2
0, 1
0, 1
0, 0
1, 0
1, 1
0, 0
0, 1
1, 1
2, 0
1, 0
0, 1
0, 0
1, 0
2, 2
0, 0
2, 1
1, 1
1, 2
1, 1
0, 0
1, 0
1, 0
0, 0
0, 0
0, 1
1, 1
0, 0
0, 1
0, 0
1, 0
0, 1
0, 0
1, 0
0, 0
1, 1
1, 0
0, 0
0, 0
1, 0
0, 1
0, 0
1, 1
0, 0
0, 0
0, 0
0, 0
0, 0
0, 0
0, 0
0, 0
0, 0
0, 1
1, 0
0, 0
0, 0
0, 0
0, 0
0, 0
0, 0
0, 0
0, 0
0, 0
0, 0
0, 0
0, 0
0, 0
0, 0
0, 1
0, 0
0, 0
0, 0
0, 0
0, 0
0, 0
1, 0
0, 1
0, 0
0, 0
0, 0
0, 0
0, 0
0, 0
0, 0
0, 0
0, 0
0, 0
0, 0
0, 0
0, 0
0, 0
0, 0
0, 0
0, 0
0, 0
0, 0
0, 0
0, 0
0, 0
0, 0
0, 0
0, 0
0, 0
0, 0
0, 0
0, 0
0, 0
0, 0
0, 0
0, 0
0, 0
0, 0
0, 0
0, 0
0, 0
0, 0
0, 0
0, 0
0, 0
0, 0
0, 0
0, 0
0, 0
0, 0
0, 0
0, 0
0, 0
0, 0
0, 0
0, 0
0, 0
0, 0
0, 0
0, 0
0, 0
0, 0
0, 0
0, 0
0, 0
0, 0
0, 0
0, 0
0, 0
0, 0
0, 0
0, 0
0, 0
0, 0
0, 0
0, 0
0, 0
0, 0
0, 0
0, 0
0, 0
0, 0
0, 0
0, 0
0, 0
0, 0
0, 0
0, 0
0, 0
0, 0
#ENDOFDATA     end of spectrum data

File: ps__0852shot_2576.msa
#FORMAT      : EMSA/MAS spectral data file
#VERSION     : TC202v2.0 PIXL
#TITLE       : N/A
#DATE        :       Date in the format DD-MMM-YYYY, for example 07-JUL-2010
#TIME        :             The time of day at which the spectrum was recorded, in 24-hour format
#OWNER       : PIXL Flight Model       (PIXL will use this to indicate which instrument took the data.)
#NPOINTS     : 4096     Number of data points in the spectrum (This can be zero for configuration only files)
#NCOLUMNS    : 2     Number of data columns in the spectrum (This can be zero for configuration only files)
#XUNITS      : eV
#YUNITS      : COUNTS
#DATATYPE    : YY
#XPERCHAN    : 7.862, 7.881   eV per channel (separate by commas if more than one detector)
#OFFSET      : 18.5, -22.4         eV of first channel  (separate by commas if more than one detector
#SIGNALTYPE  : XRF
#YP_TEMP     : 2.171
#LIVETIME    : 8.54329, 8.60427   seconds (separate by commas if more than one detector)
#REALTIME    : 10, 10.0   seconds (separate by commas if more than one detector)
#SPECTRUM    : start of spectrum data
0, 0
0, 0
0, 0
0, 0
0, 0
0, 0
0, 0
0, 1
0, 11
0, 23
1, 7
42, 55
68, 55
5, 7
4, 9
96, 106
476, 416
104, 86
3, 3
1, 3
2, 5
5, 8
4, 6
7, 79
42, 1115
23, 1575
18, 171
13, 11
6, 2
0, 4
3, 1
3, 1
3, 3
10, 10
13, 13
9, 3
31, 2
32, 4
8, 54
6, 81
1, 16
9, 10
17, 10
16, 9
35, 6
16, 5
4, 10
7, 5
8, 18
11, 55
20, 21
43, 5
42, 10
50, 44
51, 53
29, 24
36, 29
465, 593
2195, 2372
1669, 1271
189, 126
9, 15
32, 30
83, 121
331, 348
222, 210
31, 21
13, 14
10, 21
9, 7
2, 0
3, 1
3, 16
7, 32
6, 23
6, 8
3, 5
3, 6
5, 4
7, 7
3, 3
5, 4
4, 7
5, 8
5, 4
7, 3
3, 7
3, 3
3, 2
4, 8
3, 3
2, 2
1, 4
1, 3
9, 3
18, 4
10, 2
3, 1
3, 2
3, 4
4, 1
1, 2
1, 0
2, 2
3, 1
2, 3
2, 4
4, 1
4, 7
2, 3
6, 4
0, 2
2, 5
2, 2
4, 2
3, 3
4, 6
5, 5
1, 0
3, 4
0, 3
2, 1
2, 1
2, 1
1, 2
0, 1
1, 1
3, 2
1, 1
2, 1
2, 0
3, 3
2, 0
2, 2
0, 1
1, 1
0, 0
1, 0
1, 1
2, 0
0, 0
0, 0
1, 0
1, 0
2, 0
1, 0
0, 0
2, 0
0, 0
0, 0
0, 0
0, 0
0, 0
0, 1
1, 0
0, 0
0, 1
0, 0
0, 0
1, 1
0, 0
0, 0
0, 0
0, 0
0, 0
0, 0
0, 0
0, 0
0, 0
0, 1
0, 0
1, 0
0, 0
0, 0
0, 0
0, 0
0, 0
0, 0
0, 0
0, 0
0, 0
1, 0
0, 2
0, 0
0, 0
0, 0
0, 0
0, 0
0, 0
1, 0
0, 1
0, 0
0, 0
0, 1
0, 0
0, 0
0, 0
0, 0
0, 0
0, 1
0, 0
0, 0
0, 0
0, 0
1, 0
0, 0
0, 0
0, 0
0, 0
1, 0
0, 0
0, 0
0, 0
0, 0
0, 0
0, 0
0, 0
0, 0
0, 0
0, 0
0, 0
0, 0
0, 0
0, 0
0, 0
0, 0
0, 0
0, 0
0, 0
0, 0
0, 0
0, 0
0, 0
0, 0
0, 0
0, 0
0, 0
0, 0
0, 0
0, 0
0, 0
0, 0
0, 0
0, 0
0, 0
0, 0
0, 0
0, 0
0, 0
0, 0
0, 0
0, 0
0, 0
0, 0
0, 0
0, 0
0, 0
0, 0
0, 0
0, 0
0, 0
0, 0
0, 0
0, 0
0, 0
0, 0
0, 0
0, 0
0, 0
0, 0
0, 0
0, 0
0, 0
0, 0
0, 0
0, 0
0, 0
0, 0
0, 0
0, 0
0, 0
0, 0
0, 0
0, 0
0, 0
0, 0
0, 0
0, 0
0, 0
0, 0
0, 0
0, 0
0, 0
0, 0
#ENDOFDATA     end of spectrum data

File: ps__0852shot_2577.msa
#FORMAT      : EMSA/MAS spectral data file
#VERSION     : TC202v2.0 PIXL
#TITLE       : N/A
#DATE        :       Date in the format DD-MMM-YYYY, for example 07-JUL-2010
#TIME        :             The time of day at which the spectrum was recorded, in 24-hour format
#OWNER       : PIXL Flight Model       (PIXL will use this to indicate which instrument took the data.)
#NPOINTS     : 4096     Number of data points in the spectrum (This can be zero for configuration only files)
#NCOLUMNS    : 2     Number of data columns in the spectrum (This can be zero for configuration only files)
#XUNITS      : eV
#YUNITS      : COUNTS
#DATATYPE    : YY
#XPERCHAN    : 7.862, 7.881   eV per channel (separate by commas if more than one detector)
#OFFSET      : 18.5, -22.4         eV of first channel  (separate by commas if more than one detector
#SIGNALTYPE  : XRF
#YP_TEMP     : 2.332
#LIVETIME    : 8.55995, 8.55527   seconds (separate by commas if more than one detector)
#REALTIME    : 10, 10.0   seconds (separate by commas if more than one detector)
#SPECTRUM    : start of spectrum data
0, 0
0, 0
0, 0
0, 0
0, 0
0, 0
0, 0
0, 0
1, 6
0, 43
2, 1
55, 51
74, 48
5, 5
3, 10
112, 93
490, 413
101, 79
5, 3
1, 0
0, 2
3, 4
3, 8
3, 76
26, 1193
21, 1885
14, 182
9, 9
3, 6
2, 1
2, 2
4, 0
6, 2
10, 5
19, 18
15, 3
113, 2
101, 13
22, 181
2, 318
3, 66
7, 8
12, 11
21, 4
18, 6
12, 8
3, 11
5, 7
10, 17
11, 32
24, 18
37, 9
31, 17
45, 75
75, 69
19, 19
33, 26
517, 591
2429, 2254
1747, 1345
208, 136
22, 16
19, 26
97, 114
356, 332
244, 182
29, 27
8, 27
18, 25
8, 11
5, 0
4, 1
16, 12
14, 29
10, 19
3, 7
2, 6
5, 15
1, 18
5, 4
3, 7
4, 10
3, 14
5, 3
5, 6
4, 5
7, 8
2, 6
4, 3
4, 5
2, 2
1, 5
5, 8
0, 9
9, 3
18, 4
8, 4
5, 3
3, 1
2, 3
5, 6
3, 1
0, 1
5, 2
4, 1
0, 3
1, 5
5, 7
6, 3
8, 1
3, 4
1, 2
0, 3
1, 0
4, 0
3, 2
4, 3
5, 0
3, 3
3, 3
0, 1
0, 1
0, 1
4, 4
2, 1
0, 3
1, 3
1, 3
1, 1
2, 0
0, 1
1, 1
1, 1
1, 1
2, 1
0, 0
2, 0
2, 1
0, 1
1, 0
0, 1
0, 1
0, 1
1, 0
0, 0
0, 0
0, 0
0, 0
0, 0
1, 0
0, 1
0, 1
1, 0
1, 0
0, 1
0, 0
0, 0
0, 0
1, 1
1, 0
0, 0
0, 1
0, 1
1, 0
0, 1
0, 0
0, 0
1, 1
0, 0
0, 0
2, 1
0, 0
0, 0
1, 0
0, 0
0, 0
2, 0
0, 0
0, 0
0, 0
0, 0
0, 0
0, 1
0, 0
0, 0
0, 0
0, 0
0, 0
0, 0
0, 0
0, 0
0, 0
0, 0
1, 0
0, 0
0, 0
0, 0
0, 0
0, 0
0, 0
0, 0
0, 0
0, 0
0, 0
0, 0
0, 1
0, 0
0, 0
0, 0
0, 0
0, 0
0, 0
0, 0
0, 0
0, 0
0, 0
0, 0
0, 0
0, 0
0, 0
0, 0
0, 0
0, 0
0, 0
0, 0
0, 0
0, 0
0, 0
0, 0
0, 0
0, 0
0, 0
0, 0
0, 0
0, 0
0, 0
0, 0
0, 0
0, 0
0, 0
0, 0
0, 0
0, 0
0, 0
0, 0
0, 0
0, 0
0, 0
0, 0
0, 0
0, 0
0, 0
0, 0
0, 0
0, 0
0, 0
0, 0
0, 0
0, 0
0, 0
0, 0
0, 0
0, 0
0, 0
0, 0
0, 0
0, 0
0, 0
0, 0
0, 0
0, 0
0, 0
0, 0
0, 0
0, 0
0, 0
0, 0
0, 0
0, 0
0, 0
0, 0
0, 0
0, 0
0, 0
0, 0
0, 0
0, 0
0, 0
0, 0
0, 0
0, 0
0, 0
0, 0
0, 0
#ENDOFDATA     end of spectrum data

File: ps__0852shot_2578.msa
#FORMAT      : EMSA/MAS spectral data file
#VERSION     : TC202v2.0 PIXL
#TITLE       : N/A
#DATE        :       Date in the format DD-MMM-YYYY, for example 07-JUL-2010
#TIME        :             The time of day at which the spectrum was recorded, in 24-hour format
#OWNER       : PIXL Flight Model       (PIXL will use this to indicate which instrument took the data.)
#NPOINTS     : 4096     Number of data points in the spectrum (This can be zero for configuration only files)
#NCOLUMNS    : 2     Number of data columns in the spectrum (This can be zero for configuration only files)
#XUNITS      : eV
#YUNITS      : COUNTS
#DATATYPE    : YY
#XPERCHAN    : 7.862, 7.881   eV per channel (separate by commas if more than one detector)
#OFFSET      : 18.5, -22.4         eV of first channel  (separate by commas if more than one detector
#SIGNALTYPE  : XRF
#YP_TEMP     : 2.332
#LIVETIME    : 8.56346, 8.56462   seconds (separate by commas if more than one detector)
#REALTIME    : 10, 10.0   seconds (separate by commas if more than one detector)
#SPECTRUM    : start of spectrum data
0, 0
0, 0
0, 0
0, 0
0, 0
0, 0
0, 0
0, 0
0, 1
0, 5
2, 3
53, 41
69, 61
6, 5
4, 2
99, 98
444, 389
114, 85
6, 3
2, 0
2, 3
3, 7
1, 5
4, 15
27, 214
31, 301
25, 43
14, 8
6, 3
2, 0
0, 3
4, 2
8, 0
19, 3
17, 15
12, 6
40, 1
43, 2
14, 45
11, 84
2, 26
11, 2
23, 12
14, 13
5, 6
7, 13
5, 20
7, 15
14, 7
12, 14
32, 13
70, 13
68, 29
40, 68
73, 72
25, 16
36, 45
517, 591
2408, 2400
1611, 1358
179, 154
15, 26
21, 30
101, 132
360, 365
229, 179
35, 28
10, 32
18, 31
14, 10
3, 4
5, 4
7, 4
7, 7
9, 13
10, 23
5, 11
9, 12
7, 12
4, 5
3, 6
4, 6
3, 13
3, 6
5, 3
5, 3
11, 2
10, 4
9, 1
4, 3
3, 2
3, 6
5, 15
3, 8
2, 5
8, 1
4, 4
6, 2
3, 3
4, 1
2, 3
2, 0
1, 4
2, 1
2, 2
2, 1
2, 7
5, 3
5, 1
4, 2
1, 0
2, 1
3, 0
2, 3
2, 3
2, 2
4, 2
4, 4
4, 0
1, 2
0, 0
0, 3
2, 2
0, 3
0, 2
0, 3
1, 1
0, 0
0, 2
0, 2
1, 2
0, 2
2, 1
0, 0
1, 2
3, 0
0, 0
1, 1
1, 0
0, 2
3, 0
0, 1
0, 0
0, 1
0, 1
1, 0
0, 0
3, 1
0, 0
0, 0
1, 0
2, 0
1, 0
1, 0
0, 0
1, 0
0, 0
1, 0
0, 1
1, 0
0, 0
1, 0
1, 0
0, 0
0, 1
0, 0
0, 1
1, 0
0, 0
0, 0
1, 0
0, 0
0, 0
1, 0
1, 0
1, 0
0, 0
0, 0
0, 0
0, 0
0, 0
0, 1
0, 0
0, 0
0, 0
0, 0
0, 0
0, 0
0, 0
0, 0
1, 0
1, 0
0, 0
0, 0
0, 0
0, 0
0, 0
0, 0
1, 0
0, 0
0, 0
0, 0
0, 0
0, 0
0, 0
0, 0
0, 0
0, 0
0, 0
0, 0
0, 0
0, 0
0, 0
0, 0
0, 0
0, 0
0, 0
0, 0
0, 0
0, 0
0, 0
0, 0
0, 0
0, 0
0, 0
0, 0
0, 0
0, 0
0, 0
0, 0
0, 0
0, 0
0, 0
0, 0
0, 0
0, 0
0, 0
0, 0
0, 0
0, 0
0, 0
0, 0
0, 0
0, 0
0, 0
0, 0
0, 0
0, 0
0, 0
0, 0
0, 0
0, 0
0, 0
0, 0
0, 0
0, 0
0, 0
0, 0
0, 0
0, 0
0, 0
0, 0
0, 0
0, 0
0, 0
0, 0
0, 0
0, 0
0, 0
0, 0
0, 0
0, 0
0, 0
0, 0
0, 0
0, 0
0, 0
0, 0
0, 0
0, 0
0, 0
0, 0
0, 0
0, 0
0, 0
0, 0
0, 0
0, 0
0, 0
0, 0
0, 0
0, 0
0, 0
0, 0
#ENDOFDATA     end of spectrum data

File: ps__0852shot_2580.msa
#FORMAT      : EMSA/MAS spectral data file
#VERSION     : TC202v2.0 PIXL
#TITLE       : N/A
#DATE        :       Date in the format DD-MMM-YYYY, for example 07-JUL-2010
#TIME        :             The time of day at which the spectrum was recorded, in 24-hour format
#OWNER       : PIXL Flight Model       (PIXL will use this to indicate which instrument took the data.)
#NPOINTS     : 4096     Number of data points in the spectrum (This can be zero for configuration only files)
#NCOLUMNS    : 2     Number of data columns in the spectrum (This can be zero for configuration only files)
#XUNITS      : eV
#YUNITS      : COUNTS
#DATATYPE    : YY
#XPERCHAN    : 7.862, 7.881   eV per channel (separate by commas if more than one detector)
#OFFSET      : 18.5, -22.4         eV of first channel  (separate by commas if more than one detector
#SIGNALTYPE  : XRF
#YP_TEMP     : 2.492
#LIVETIME    : 8.56822, 8.5542   seconds (separate by commas if more than one detector)
#REALTIME    : 10, 10.0   seconds (separate by commas if more than one detector)
#SPECTRUM    : start of spectrum data
0, 0
0, 0
0, 0
0, 0
0, 0
0, 0
0, 0
0, 0
0, 1
0, 0
6, 5
47, 53
66, 59
3, 6
1, 7
102, 81
447, 464
100, 96
7, 5
3, 1
2, 0
7, 10
9, 13
15, 13
33, 46
68, 63
25, 17
15, 14
6, 7
6, 4
1, 4
1, 1
3, 3
18, 17
23, 21
17, 14
8, 11
9, 15
8, 6
8, 13
7, 5
9, 11
13, 23
14, 14
10, 24
8, 18
6, 7
8, 7
14, 9
29, 12
18, 18
13, 12
17, 23
44, 45
72, 56
22, 23
34, 38
508, 628
2277, 2463
1666, 1398
175, 129
20, 15
27, 21
105, 121
350, 344
218, 206
32, 64
6, 43
16, 23
13, 6
4, 6
3, 4
3, 5
6, 6
8, 13
7, 6
3, 2
9, 5
7, 3
3, 5
7, 5
7, 6
6, 7
6, 2
6, 4
2, 5
8, 9
8, 5
6, 8
8, 2
3, 5
3, 1
3, 1
0, 2
4, 1
8, 5
3, 5
1, 1
4, 1
6, 4
2, 1
1, 2
2, 5
1, 1
3, 7
5, 5
5, 1
2, 4
3, 2
2, 0
4, 1
0, 1
1, 3
2, 0
1, 1
5, 2
4, 7
5, 1
2, 2
5, 1
1, 0
1, 5
2, 0
2, 2
1, 2
1, 3
1, 0
1, 5
1, 2
0, 2
0, 3
2, 1
1, 3
1, 0
3, 0
2, 1
0, 0
0, 1
1, 2
1, 0
0, 2
0, 2
0, 1
0, 1
2, 0
0, 0
1, 1
1, 0
0, 0
0, 1
0, 0
0, 0
0, 0
0, 1
1, 1
0, 1
0, 0
0, 0
1, 3
1, 0
1, 1
1, 1
1, 0
0, 0
0, 0
0, 0
0, 1
1, 0
1, 0
0, 0
2, 0
1, 0
0, 0
0, 0
0, 0
0, 0
0, 1
0, 0
2, 0
0, 0
0, 0
0, 0
0, 0
0, 1
1, 0
0, 0
0, 0
0, 0
0, 0
0, 0
0, 0
0, 0
0, 0
0, 0
1, 0
0, 0
1, 0
0, 1
0, 0
0, 0
0, 0
1, 0
1, 0
0, 0
0, 0
0, 1
0, 0
0, 0
0, 0
0, 0
0, 0
0, 0
0, 0
0, 0
0, 0
0, 0
0, 0
0, 0
0, 0
0, 0
0, 0
0, 0
0, 0
0, 0
0, 0
0, 0
0, 0
0, 0
0, 0
0, 0
0, 0
0, 0
0, 0
0, 0
0, 0
0, 0
0, 0
0, 0
0, 0
0, 0
0, 0
0, 0
0, 0
0, 0
0, 0
0, 0
0, 0
0, 0
0, 0
0, 0
0, 0
0, 0
0, 0
0, 0
0, 0
0, 0
0, 0
0, 0
0, 0
0, 0
0, 0
0, 0
0, 0
0, 0
0, 0
0, 0
0, 0
0, 0
0, 0
0, 0
0, 0
0, 0
0, 0
0, 0
0, 0
0, 0
0, 0
0, 0
0, 0
0, 0
0, 0
0, 0
0, 0
0, 0
0, 0
0, 0
0, 0
0, 0
0, 0
0, 0
0, 0
0, 0
0, 0
0, 0
#ENDOFDATA     end of spectrum data