Folder: data-repository/host_upload/06-09-2024/ps_0852/dump3 (part 61)

File: ps__0852shot_2546.msa
#FORMAT      : EMSA/MAS spectral data file
#VERSION     : TC202v2.0 PIXL
#TITLE       : N/A
#DATE        :       Date in the format DD-MMM-YYYY, for example 07-JUL-2010
#TIME        :             The time of day at which the spectrum was recorded, in 24-hour format
#OWNER       : PIXL Flight Model       (PIXL will use this to indicate which instrument took the data.)
#NPOINTS     : 4096     Number of data points in the spectrum (This can be zero for configuration only files)
#NCOLUMNS    : 2     Number of data columns in the spectrum (This can be zero for configuration only files)
#XUNITS      : eV
#YUNITS      : COUNTS
#DATATYPE    : YY
#XPERCHAN    : 7.862, 7.881   eV per channel (separate by commas if more than one detector)
#OFFSET      : 18.5, -22.4         eV of first channel  (separate by commas if more than one detector
#SIGNALTYPE  : XRF
#YP_TEMP     : 2.139
#LIVETIME    : 8.56647, 8.56197   seconds (separate by commas if more than one detector)
#REALTIME    : 10, 10.0   seconds (separate by commas if more than one detector)
#SPECTRUM    : start of spectrum data
0, 0
0, 0
0, 0
0, 0
0, 0
0, 0
0, 0
0, 0
1, 0
0, 1
5, 1
51, 49
72, 69
7, 7
4, 6
105, 100
495, 442
102, 81
8, 6
1, 1
2, 5
5, 3
3, 4
7, 6
37, 32
55, 52
25, 25
18, 15
7, 6
5, 6
2, 0
1, 2
4, 7
47, 46
53, 45
6, 10
14, 5
25, 5
34, 7
5, 2
6, 9
14, 9
16, 21
12, 42
7, 53
10, 10
13, 6
6, 5
7, 11
17, 20
33, 11
48, 6
14, 12
28, 38
86, 53
101, 32
72, 39
489, 571
2245, 2199
1623, 1367
202, 133
31, 21
38, 22
141, 127
367, 350
234, 205
28, 18
7, 9
12, 9
14, 11
8, 4
3, 7
6, 5
7, 6
10, 8
43, 2
39, 4
12, 3
12, 4
2, 3
2, 4
2, 4
6, 1
4, 3
4, 3
2, 3
2, 2
1, 7
3, 5
5, 8
5, 2
3, 5
3, 3
5, 6
1, 4
3, 5
4, 2
2, 2
6, 2
4, 4
5, 0
4, 4
5, 3
5, 0
4, 2
1, 2
3, 5
3, 1
3, 2
1, 3
4, 1
4, 0
1, 2
5, 1
1, 2
3, 3
5, 1
2, 4
2, 1
0, 3
1, 3
1, 0
4, 3
3, 0
2, 0
0, 1
0, 1
1, 1
2, 0
1, 0
1, 2
0, 0
1, 0
1, 0
0, 2
0, 0
1, 1
2, 3
1, 0
2, 1
0, 0
0, 1
1, 1
0, 0
0, 0
1, 0
0, 0
1, 0
0, 0
0, 1
0, 1
1, 0
0, 0
0, 0
1, 0
0, 0
0, 0
0, 0
1, 2
0, 1
0, 0
2, 0
0, 0
0, 0
0, 0
0, 0
0, 0
1, 0
1, 0
0, 0
0, 0
0, 0
1, 0
0, 0
0, 0
0, 0
0, 0
0, 0
0, 0
0, 0
0, 1
0, 0
0, 0
1, 0
0, 1
0, 0
0, 0
0, 0
0, 0
0, 0
0, 0
0, 0
0, 0
0, 0
0, 0
0, 0
0, 0
0, 0
0, 0
0, 0
0, 0
0, 0
0, 0
0, 0
0, 0
0, 0
0, 0
0, 0
0, 0
0, 0
0, 0
0, 0
0, 0
0, 0
0, 0
0, 0
0, 0
0, 0
0, 0
0, 0
0, 0
0, 0
0, 0
0, 0
0, 0
0, 0
0, 0
0, 0
0, 0
0, 0
0, 0
0, 0
0, 0
0, 0
0, 0
0, 0
0, 0
0, 0
0, 0
0, 0
0, 0
0, 0
0, 0
0, 0
0, 0
0, 0
0, 0
0, 0
0, 0
0, 0
0, 0
0, 0
0, 0
0, 0
0, 0
0, 0
0, 0
0, 0
0, 0
0, 0
0, 0
0, 0
0, 0
0, 0
0, 0
0, 0
0, 0
0, 0
0, 0
0, 0
0, 0
0, 0
0, 0
0, 0
0, 0
0, 0
0, 0
0, 0
0, 0
0, 0
0, 0
0, 0
0, 0
0, 0
0, 0
0, 0
0, 0
0, 0
0, 0
0, 0
0, 0
0, 0
0, 0
0, 0
#ENDOFDATA     end of spectrum data

File: ps__0852shot_2547.msa
#FORMAT      : EMSA/MAS spectral data file
#VERSION     : TC202v2.0 PIXL
#TITLE       : N/A
#DATE        :       Date in the format DD-MMM-YYYY, for example 07-JUL-2010
#TIME        :             The time of day at which the spectrum was recorded, in 24-hour format
#OWNER       : PIXL Flight Model       (PIXL will use this to indicate which instrument took the data.)
#NPOINTS     : 4096     Number of data points in the spectrum (This can be zero for configuration only files)
#NCOLUMNS    : 2     Number of data columns in the spectrum (This can be zero for configuration only files)
#XUNITS      : eV
#YUNITS      : COUNTS
#DATATYPE    : YY
#XPERCHAN    : 7.862, 7.881   eV per channel (separate by commas if more than one detector)
#OFFSET      : 18.5, -22.4         eV of first channel  (separate by commas if more than one detector
#SIGNALTYPE  : XRF
#YP_TEMP     : 2.428
#LIVETIME    : 8.6037, 8.59768   seconds (separate by commas if more than one detector)
#REALTIME    : 10, 10.0   seconds (separate by commas if more than one detector)
#SPECTRUM    : start of spectrum data
0, 0
0, 0
0, 0
0, 0
0, 0
0, 0
0, 0
0, 1
0, 0
1, 3
0, 2
27, 39
47, 42
6, 3
4, 5
91, 107
513, 468
128, 94
9, 8
1, 1
5, 2
15, 12
8, 25
18, 19
45, 40
45, 39
26, 19
9, 13
2, 7
2, 5
0, 1
3, 4
14, 14
149, 186
261, 225
52, 34
33, 28
49, 26
11, 6
6, 3
5, 12
10, 12
18, 18
20, 37
7, 37
7, 15
13, 9
12, 4
14, 12
28, 27
31, 21
9, 6
15, 13
31, 60
63, 70
42, 21
45, 45
362, 487
1770, 1924
1263, 1094
141, 114
25, 28
35, 17
122, 99
299, 299
187, 135
27, 19
14, 11
11, 12
8, 9
4, 7
2, 0
5, 1
6, 9
6, 5
16, 4
22, 3
6, 3
8, 5
7, 7
8, 4
6, 4
4, 3
2, 3
6, 5
1, 7
3, 6
1, 3
3, 4
2, 1
2, 4
2, 3
3, 3
6, 2
3, 10
3, 5
1, 3
4, 1
3, 3
4, 0
3, 4
4, 4
3, 1
3, 1
1, 1
5, 1
2, 5
1, 2
2, 2
2, 0
1, 1
0, 1
2, 4
0, 0
0, 1
0, 4
4, 2
1, 3
1, 1
1, 0
0, 3
1, 2
3, 1
1, 4
0, 0
2, 0
3, 1
0, 0
4, 1
1, 0
1, 1
1, 0
1, 1
1, 2
2, 2
0, 2
0, 2
2, 1
0, 1
0, 3
0, 1
0, 1
0, 1
0, 0
0, 1
0, 0
2, 1
0, 0
0, 0
0, 0
0, 1
0, 2
2, 1
2, 0
1, 0
0, 1
1, 0
0, 0
0, 0
0, 0
1, 0
0, 0
0, 0
1, 0
0, 0
0, 1
1, 0
0, 1
0, 0
1, 0
0, 1
0, 0
1, 0
0, 0
0, 1
0, 1
0, 0
0, 0
1, 0
0, 1
0, 0
0, 0
0, 0
0, 1
0, 0
1, 0
0, 0
0, 0
0, 1
0, 1
0, 1
2, 0
0, 0
0, 0
0, 0
0, 0
0, 0
0, 0
0, 0
0, 0
0, 0
0, 0
0, 0
0, 0
0, 0
0, 0
0, 1
0, 0
0, 0
0, 0
0, 0
0, 0
0, 0
0, 0
0, 0
0, 0
0, 0
0, 0
0, 0
0, 0
0, 0
0, 0
0, 0
0, 0
0, 0
0, 0
0, 0
0, 0
0, 0
0, 0
0, 0
0, 0
0, 0
0, 0
0, 0
0, 0
0, 0
0, 0
0, 0
0, 0
0, 0
0, 0
0, 0
0, 0
0, 0
0, 0
0, 0
0, 0
0, 0
0, 0
0, 0
0, 0
0, 0
0, 0
0, 0
0, 0
0, 0
0, 0
0, 0
0, 0
0, 0
0, 0
0, 0
0, 0
0, 0
0, 0
0, 0
0, 0
0, 0
0, 0
0, 0
0, 0
0, 0
0, 0
0, 0
0, 0
0, 0
0, 0
0, 0
0, 0
0, 0
0, 0
0, 0
0, 0
0, 0
0, 0
0, 0
0, 0
0, 0
0, 0
0, 0
0, 0
0, 0
0, 0
#ENDOFDATA     end of spectrum data

File: ps__0852shot_2548.msa
#FORMAT      : EMSA/MAS spectral data file
#VERSION     : TC202v2.0 PIXL
#TITLE       : N/A
#DATE        :       Date in the format DD-MMM-YYYY, for example 07-JUL-2010
#TIME        :             The time of day at which the spectrum was recorded, in 24-hour format
#OWNER       : PIXL Flight Model       (PIXL will use this to indicate which instrument took the data.)
#NPOINTS     : 4096     Number of data points in the spectrum (This can be zero for configuration only files)
#NCOLUMNS    : 2     Number of data columns in the spectrum (This can be zero for configuration only files)
#XUNITS      : eV
#YUNITS      : COUNTS
#DATATYPE    : YY
#XPERCHAN    : 7.862, 7.881   eV per channel (separate by commas if more than one detector)
#OFFSET      : 18.5, -22.4         eV of first channel  (separate by commas if more than one detector
#SIGNALTYPE  : XRF
#YP_TEMP     : 2.235
#LIVETIME    : 8.55871, 8.54694   seconds (separate by commas if more than one detector)
#REALTIME    : 10, 10.0   seconds (separate by commas if more than one detector)
#SPECTRUM    : start of spectrum data
0, 0
0, 0
0, 0
0, 0
0, 0
0, 0
0, 0
0, 1
0, 0
1, 1
3, 3
48, 49
77, 62
8, 7
6, 1
92, 81
485, 467
84, 100
10, 6
3, 0
3, 4
13, 17
9, 9
5, 10
23, 25
29, 26
14, 18
7, 17
2, 1
0, 1
2, 1
1, 4
2, 1
51, 51
61, 75
9, 7
6, 9
11, 15
9, 9
1, 3
5, 1
8, 14
21, 42
50, 36
58, 9
20, 7
11, 6
5, 2
15, 15
18, 20
13, 9
4, 7
15, 18
29, 65
61, 69
19, 16
22, 29
444, 569
2139, 2420
1538, 1387
218, 135
83, 9
109, 24
116, 124
349, 342
226, 206
29, 24
8, 5
16, 14
3, 9
2, 2
4, 6
4, 3
4, 2
4, 8
4, 3
8, 9
12, 2
8, 3
3, 3
6, 2
2, 3
7, 4
3, 9
1, 18
3, 26
4, 13
3, 3
7, 4
11, 6
9, 0
7, 4
4, 1
3, 6
4, 7
3, 9
3, 4
2, 8
2, 3
3, 2
1, 2
1, 4
3, 5
2, 4
5, 7
3, 5
2, 7
1, 3
3, 3
2, 2
3, 0
2, 3
0, 4
1, 3
1, 1
1, 2
6, 5
8, 3
0, 0
3, 3
4, 4
5, 3
2, 8
2, 4
4, 1
0, 1
1, 2
2, 1
3, 3
2, 1
2, 0
1, 2
2, 0
2, 1
2, 1
0, 1
1, 0
0, 2
1, 1
0, 1
0, 1
1, 0
0, 0
0, 0
1, 0
0, 1
0, 0
0, 0
0, 0
0, 0
1, 0
1, 0
1, 0
0, 0
0, 0
0, 0
0, 1
1, 0
0, 0
0, 0
0, 1
0, 0
0, 1
1, 0
1, 0
0, 1
0, 0
0, 1
0, 0
1, 2
1, 0
1, 0
0, 0
0, 3
0, 0
0, 0
1, 0
0, 0
0, 0
0, 1
0, 0
0, 1
0, 0
0, 0
0, 0
0, 1
0, 0
0, 0
0, 0
1, 0
0, 0
0, 0
0, 0
0, 0
0, 0
0, 0
0, 0
0, 0
0, 0
0, 0
0, 0
0, 0
0, 0
0, 0
0, 0
0, 0
0, 0
0, 0
0, 0
0, 0
0, 0
0, 0
0, 0
0, 0
0, 0
0, 0
0, 0
0, 0
0, 0
0, 0
0, 0
0, 0
0, 0
0, 0
0, 0
0, 0
0, 0
0, 0
0, 0
0, 0
0, 0
0, 0
0, 0
0, 0
0, 0
0, 0
0, 0
0, 0
0, 0
0, 0
0, 0
0, 0
0, 0
0, 0
0, 0
0, 0
0, 0
0, 0
0, 0
0, 0
0, 0
0, 0
0, 0
0, 0
0, 0
0, 0
0, 0
0, 0
0, 0
0, 0
0, 0
0, 0
0, 0
0, 0
0, 0
0, 0
0, 0
0, 0
0, 0
0, 0
0, 0
0, 0
0, 0
0, 0
0, 0
0, 0
0, 0
0, 0
0, 0
0, 0
0, 0
0, 0
0, 0
0, 0
0, 0
0, 0
0, 0
0, 0
0, 0
0, 0
0, 0
0, 0
0, 0
0, 0
#ENDOFDATA     end of spectrum data

File: ps__0852shot_2549.msa
#FORMAT      : EMSA/MAS spectral data file
#VERSION     : TC202v2.0 PIXL
#TITLE       : N/A
#DATE        :       Date in the format DD-MMM-YYYY, for example 07-JUL-2010
#TIME        :             The time of day at which the spectrum was recorded, in 24-hour format
#OWNER       : PIXL Flight Model       (PIXL will use this to indicate which instrument took the data.)
#NPOINTS     : 4096     Number of data points in the spectrum (This can be zero for configuration only files)
#NCOLUMNS    : 2     Number of data columns in the spectrum (This can be zero for configuration only files)
#XUNITS      : eV
#YUNITS      : COUNTS
#DATATYPE    : YY
#XPERCHAN    : 7.862, 7.881   eV per channel (separate by commas if more than one detector)
#OFFSET      : 18.5, -22.4         eV of first channel  (separate by commas if more than one detector
#SIGNALTYPE  : XRF
#YP_TEMP     : 2.235
#LIVETIME    : 8.56307, 8.5429   seconds (separate by commas if more than one detector)
#REALTIME    : 10, 10.0   seconds (separate by commas if more than one detector)
#SPECTRUM    : start of spectrum data
0, 0
0, 0
0, 0
0, 0
0, 0
0, 0
0, 0
0, 0
0, 0
0, 3
2, 1
61, 44
80, 51
5, 8
2, 4
98, 107
463, 422
92, 90
3, 1
1, 1
2, 2
2, 5
3, 4
8, 2
9, 15
18, 30
11, 15
10, 8
4, 6
2, 1
2, 0
0, 1
4, 1
18, 19
25, 22
5, 6
1, 3
4, 7
5, 10
6, 7
2, 3
12, 15
15, 64
68, 48
71, 4
14, 6
7, 3
2, 7
11, 6
8, 13
14, 13
8, 5
9, 9
34, 58
66, 45
15, 16
33, 32
451, 526
2290, 2301
1620, 1314
254, 130
135, 12
117, 18
141, 123
345, 348
242, 203
34, 29
6, 10
10, 16
15, 10
9, 11
6, 5
4, 1
7, 4
10, 6
5, 6
10, 4
8, 4
4, 2
7, 11
4, 3
5, 7
3, 6
3, 7
4, 12
1, 22
2, 5
2, 3
8, 2
20, 3
19, 3
5, 4
2, 2
4, 5
1, 6
3, 5
2, 4
2, 4
5, 3
3, 2
3, 3
2, 4
5, 0
6, 2
3, 4
3, 8
3, 2
1, 1
5, 5
5, 3
2, 3
3, 3
1, 1
1, 1
4, 2
2, 1
5, 2
5, 4
1, 0
1, 0
2, 1
1, 0
1, 6
1, 3
1, 1
1, 0
0, 0
1, 4
2, 3
1, 3
2, 1
0, 0
0, 0
0, 1
0, 2
0, 0
2, 1
0, 1
2, 1
0, 1
0, 0
1, 1
0, 1
0, 1
0, 0
0, 0
0, 1
0, 0
0, 0
2, 0
0, 1
0, 1
0, 0
0, 0
0, 0
0, 0
1, 0
0, 0
0, 0
0, 1
0, 0
1, 0
0, 0
0, 1
0, 0
0, 0
0, 0
1, 0
1, 0
0, 1
1, 0
0, 0
1, 0
0, 1
0, 0
1, 0
0, 1
0, 1
0, 0
0, 0
0, 0
1, 0
1, 1
0, 0
0, 0
0, 0
0, 0
0, 1
0, 0
1, 0
0, 0
0, 0
0, 0
0, 0
1, 0
0, 0
0, 0
0, 0
0, 0
0, 0
0, 0
0, 0
0, 0
0, 0
0, 0
0, 0
0, 0
0, 0
0, 0
0, 0
0, 0
0, 0
0, 0
0, 0
0, 0
0, 0
0, 0
0, 0
0, 0
0, 0
0, 0
0, 0
0, 0
0, 0
0, 0
0, 0
0, 0
0, 0
0, 0
0, 0
0, 0
0, 0
0, 0
0, 0
0, 0
0, 0
0, 0
0, 0
0, 0
0, 0
0, 0
0, 0
0, 0
0, 0
0, 0
0, 0
0, 0
0, 0
0, 0
0, 0
0, 0
0, 0
0, 0
0, 0
0, 0
0, 0
0, 0
0, 0
0, 0
0, 0
0, 0
0, 0
0, 0
0, 0
0, 0
0, 0
0, 0
0, 0
0, 0
0, 0
0, 0
0, 0
0, 0
0, 0
0, 0
0, 0
0, 0
0, 0
0, 0
0, 0
0, 0
0, 0
0, 0
0, 0
0, 0
0, 0
0, 0
0, 0
0, 0
0, 0
0, 0
0, 0
0, 0
0, 0
#ENDOFDATA     end of spectrum data

File: ps__0852shot_2550.msa
#FORMAT      : EMSA/MAS spectral data file
#VERSION     : TC202v2.0 PIXL
#TITLE       : N/A
#DATE        :       Date in the format DD-MMM-YYYY, for example 07-JUL-2010
#TIME        :             The time of day at which the spectrum was recorded, in 24-hour format
#OWNER       : PIXL Flight Model       (PIXL will use this to indicate which instrument took the data.)
#NPOINTS     : 4096     Number of data points in the spectrum (This can be zero for configuration only files)
#NCOLUMNS    : 2     Number of data columns in the spectrum (This can be zero for configuration only files)
#XUNITS      : eV
#YUNITS      : COUNTS
#DATATYPE    : YY
#XPERCHAN    : 7.862, 7.881   eV per channel (separate by commas if more than one detector)
#OFFSET      : 18.5, -22.4         eV of first channel  (separate by commas if more than one detector
#SIGNALTYPE  : XRF
#YP_TEMP     : 2.235
#LIVETIME    : 8.54855, 8.35123   seconds (separate by commas if more than one detector)
#REALTIME    : 10, 10.0   seconds (separate by commas if more than one detector)
#SPECTRUM    : start of spectrum data
0, 0
0, 0
0, 0
0, 0
0, 0
0, 0
0, 0
0, 0
1, 1
1, 0
2, 2
51, 44
71, 48
5, 6
1, 2
103, 80
521, 404
120, 83
10, 5
2, 0
3, 7
8, 13
9, 7
3, 8
26, 24
31, 34
26, 21
8, 12
5, 6
1, 2
2, 5
0, 1
5, 1
22, 19
25, 23
9, 4
7, 5
4, 17
3, 40
5, 26
2, 1
7, 9
23, 35
51, 28
61, 8
21, 3
9, 9
12, 4
5, 8
7, 12
10, 11
3, 5
11, 10
32, 50
68, 61
33, 21
23, 28
480, 487
2349, 2206
1675, 1231
218, 144
116, 14
87, 22
139, 110
344, 341
245, 216
44, 34
6, 13
10, 7
9, 8
1, 4
4, 2
5, 1
5, 2
5, 7
6, 6
2, 8
8, 5
8, 5
4, 7
6, 5
2, 5
1, 2
5, 8
4, 18
4, 14
3, 15
4, 2
12, 3
22, 5
29, 3
12, 0
6, 2
2, 0
2, 2
0, 4
5, 5
2, 2
2, 2
5, 1
4, 4
2, 5
6, 1
3, 4
0, 1
1, 3
6, 4
1, 0
6, 0
3, 1
2, 4
3, 1
0, 0
0, 1
1, 2
3, 3
4, 4
1, 3
3, 1
0, 1
1, 0
3, 2
0, 1
0, 2
2, 4
3, 1
2, 3
1, 1
0, 1
0, 1
2, 3
2, 5
2, 1
4, 0
0, 0
2, 1
1, 1
1, 2
0, 2
1, 1
0, 3
1, 3
0, 0
0, 1
0, 0
0, 0
0, 0
0, 2
0, 1
0, 0
0, 0
0, 0
0, 0
0, 0
0, 0
0, 1
0, 0
0, 1
0, 1
1, 0
1, 0
0, 0
1, 0
0, 0
0, 0
0, 0
2, 0
1, 0
1, 1
1, 0
0, 0
0, 1
0, 1
0, 0
0, 2
0, 0
0, 0
0, 0
0, 0
0, 0
0, 0
0, 1
0, 0
0, 0
0, 0
0, 0
0, 0
0, 0
0, 0
0, 0
1, 0
0, 0
0, 0
0, 0
0, 0
0, 0
0, 0
0, 0
0, 0
0, 0
0, 0
0, 0
0, 0
0, 0
0, 0
0, 0
0, 0
0, 0
0, 0
0, 0
0, 0
0, 0
0, 0
0, 0
0, 0
0, 0
0, 0
0, 0
0, 0
0, 0
0, 0
0, 0
0, 0
0, 0
0, 0
0, 0
0, 0
0, 0
0, 0
0, 0
0, 0
0, 0
0, 0
0, 0
0, 0
0, 0
0, 0
0, 0
0, 0
0, 0
0, 0
0, 0
0, 0
0, 0
0, 0
0, 0
0, 0
0, 0
0, 0
0, 0
0, 0
0, 0
0, 0
0, 0
0, 0
0, 0
0, 0
0, 0
0, 0
0, 0
0, 0
0, 0
0, 0
0, 0
0, 0
0, 0
0, 0
0, 0
0, 0
0, 0
0, 0
0, 0
0, 0
0, 0
0, 0
0, 0
0, 0
0, 0
0, 0
0, 0
0, 0
0, 0
0, 0
0, 0
0, 0
0, 0
0, 0
0, 0
0, 0
0, 0
0, 0
0, 0
0, 0
0, 0
#ENDOFDATA     end of spectrum data

File: ps__0852shot_2551.msa
#FORMAT      : EMSA/MAS spectral data file
#VERSION     : TC202v2.0 PIXL
#TITLE       : N/A
#DATE        :       Date in the format DD-MMM-YYYY, for example 07-JUL-2010
#TIME        :             The time of day at which the spectrum was recorded, in 24-hour format
#OWNER       : PIXL Flight Model       (PIXL will use this to indicate which instrument took the data.)
#NPOINTS     : 4096     Number of data points in the spectrum (This can be zero for configuration only files)
#NCOLUMNS    : 2     Number of data columns in the spectrum (This can be zero for configuration only files)
#XUNITS      : eV
#YUNITS      : COUNTS
#DATATYPE    : YY
#XPERCHAN    : 7.862, 7.881   eV per channel (separate by commas if more than one detector)
#OFFSET      : 18.5, -22.4         eV of first channel  (separate by commas if more than one detector
#SIGNALTYPE  : XRF
#YP_TEMP     : 2.203
#LIVETIME    : 8.56386, 8.55255   seconds (separate by commas if more than one detector)
#REALTIME    : 10, 10.0   seconds (separate by commas if more than one detector)
#SPECTRUM    : start of spectrum data
0, 0
0, 0
0, 0
0, 0
0, 0
0, 0
0, 0
0, 0
1, 0
2, 0
3, 1
40, 25
62, 35
8, 3
16, 2
110, 92
545, 357
120, 86
5, 6
4, 4
7, 3
25, 12
11, 5
12, 11
75, 50
49, 50
21, 24
14, 13
6, 3
1, 4
3, 5
3, 3
11, 7
70, 54
121, 70
24, 8
13, 12
20, 15
3, 22
2, 19
5, 7
13, 30
25, 26
30, 16
14, 5
7, 6
12, 4
8, 10
13, 7
34, 22
30, 16
30, 6
19, 13
37, 31
64, 48
29, 22
36, 24
483, 464
2338, 1925
1732, 1059
199, 116
66, 11
54, 16
141, 120
365, 284
277, 194
43, 19
10, 5
16, 15
20, 15
5, 7
5, 6
6, 1
5, 2
9, 4
7, 6
6, 7
5, 9
7, 2
4, 2
6, 7
9, 3
7, 5
6, 7
3, 4
5, 6
6, 5
6, 1
7, 4
13, 4
14, 2
10, 2
2, 2
2, 1
6, 2
3, 1
2, 4
3, 4
3, 2
8, 2
3, 1
2, 3
4, 1
1, 2
1, 1
5, 4
1, 2
0, 3
1, 2
3, 0
1, 3
1, 1
3, 1
1, 1
1, 0
9, 2
3, 2
6, 0
1, 0
0, 2
4, 1
2, 1
4, 0
0, 2
1, 4
0, 0
1, 3
2, 1
0, 2
1, 1
0, 0
2, 1
1, 0
0, 0
1, 1
1, 0
0, 0
1, 1
0, 1
1, 1
0, 1
0, 0
1, 0
1, 0
0, 1
1, 2
2, 1
0, 0
0, 0
0, 0
0, 0
1, 1
0, 0
1, 0
0, 0
0, 0
0, 0
0, 1
0, 0
1, 2
0, 0
0, 0
1, 0
0, 0
0, 0
2, 0
1, 0
1, 0
0, 0
0, 0
2, 1
0, 0
0, 0
1, 0
0, 0
1, 0
1, 1
0, 0
1, 0
0, 1
0, 0
0, 0
0, 0
0, 0
0, 0
0, 1
0, 0
0, 0
0, 0
0, 0
1, 0
0, 0
0, 0
0, 0
0, 0
0, 0
0, 0
0, 0
0, 0
0, 0
0, 0
0, 0
0, 0
0, 0
1, 1
0, 0
0, 0
0, 0
0, 0
0, 0
0, 0
0, 0
0, 0
0, 0
0, 0
0, 0
0, 0
0, 0
0, 0
0, 0
0, 0
0, 0
0, 0
0, 0
0, 0
0, 0
0, 0
0, 0
0, 0
0, 0
0, 0
0, 0
0, 0
0, 0
0, 0
0, 0
0, 0
0, 0
0, 0
0, 0
0, 0
0, 0
0, 0
0, 0
0, 0
0, 0
0, 0
0, 0
0, 0
0, 0
0, 0
0, 0
0, 0
0, 0
0, 0
0, 0
0, 0
0, 0
0, 0
0, 0
0, 0
0, 0
0, 0
0, 0
0, 0
0, 0
0, 0
0, 0
0, 0
0, 0
0, 0
0, 0
0, 0
0, 0
0, 0
0, 0
0, 0
0, 0
0, 0
0, 0
0, 0
0, 0
0, 0
0, 0
0, 0
0, 0
0, 0
0, 0
0, 0
0, 0
0, 0
0, 0
0, 0
0, 0
#ENDOFDATA     end of spectrum data

File: ps__0852shot_2552.msa
#FORMAT      : EMSA/MAS spectral data file
#VERSION     : TC202v2.0 PIXL
#TITLE       : N/A
#DATE        :       Date in the format DD-MMM-YYYY, for example 07-JUL-2010
#TIME        :             The time of day at which the spectrum was recorded, in 24-hour format
#OWNER       : PIXL Flight Model       (PIXL will use this to indicate which instrument took the data.)
#NPOINTS     : 4096     Number of data points in the spectrum (This can be zero for configuration only files)
#NCOLUMNS    : 2     Number of data columns in the spectrum (This can be zero for configuration only files)
#XUNITS      : eV
#YUNITS      : COUNTS
#DATATYPE    : YY
#XPERCHAN    : 7.862, 7.881   eV per channel (separate by commas if more than one detector)
#OFFSET      : 18.5, -22.4         eV of first channel  (separate by commas if more than one detector
#SIGNALTYPE  : XRF
#YP_TEMP     : 2.332
#LIVETIME    : 8.55198, 8.55444   seconds (separate by commas if more than one detector)
#REALTIME    : 10, 10.0   seconds (separate by commas if more than one detector)
#SPECTRUM    : start of spectrum data
0, 0
0, 0
0, 0
0, 0
0, 0
0, 0
0, 0
0, 1
0, 2
0, 0
2, 2
33, 32
37, 34
11, 3
9, 6
128, 113
557, 455
132, 96
3, 9
3, 1
3, 1
10, 8
12, 2
20, 27
73, 71
48, 54
31, 29
23, 21
1, 6
4, 5
2, 5
9, 0
22, 7
118, 127
177, 172
39, 16
24, 11
27, 26
6, 6
8, 1
7, 13
16, 52
15, 25
11, 11
6, 8
8, 2
10, 3
7, 6
9, 16
35, 48
35, 32
13, 10
12, 14
31, 41
65, 54
27, 21
27, 26
482, 526
2173, 2046
1552, 1308
208, 141
23, 18
32, 18
137, 100
346, 315
233, 176
31, 14
9, 7
17, 23
9, 22
3, 16
2, 3
7, 3
5, 4
7, 5
8, 4
2, 5
8, 2
4, 6
10, 9
3, 6
3, 2
5, 3
4, 2
3, 7
6, 3
8, 4
12, 1
4, 3
1, 9
4, 8
3, 2
5, 6
5, 3
13, 3
7, 2
10, 2
15, 1
4, 7
1, 6
1, 4
2, 4
0, 2
5, 1
2, 2
1, 2
1, 4
3, 1
3, 1
3, 0
5, 5
3, 4
4, 3
2, 0
2, 2
4, 2
2, 2
7, 5
0, 1
1, 1
0, 3
2, 0
4, 2
3, 3
2, 1
0, 0
1, 1
2, 1
0, 1
1, 0
1, 2
3, 4
0, 0
2, 2
1, 1
1, 1
0, 1
3, 1
0, 0
1, 0
0, 1
0, 0
0, 1
0, 1
1, 2
1, 0
1, 0
0, 0
0, 0
1, 0
0, 0
0, 0
1, 0
0, 0
0, 0
0, 0
0, 2
0, 0
0, 0
0, 1
0, 0
0, 0
0, 0
0, 0
0, 0
1, 0
1, 1
0, 0
0, 0
0, 0
2, 0
1, 0
1, 0
1, 0
1, 0
0, 0
0, 0
0, 0
0, 0
0, 0
0, 0
0, 0
0, 0
0, 0
1, 0
1, 0
0, 0
0, 0
0, 0
0, 0
0, 0
0, 0
0, 0
0, 0
0, 0
0, 0
0, 0
0, 0
0, 0
0, 0
0, 0
0, 0
0, 0
0, 0
0, 0
0, 0
0, 0
0, 0
0, 0
0, 0
0, 0
0, 0
0, 0
0, 0
0, 0
0, 0
0, 0
0, 0
0, 0
0, 0
0, 0
0, 0
0, 0
0, 0
0, 0
0, 0
0, 0
0, 0
0, 0
0, 0
0, 0
0, 0
0, 0
0, 0
0, 0
0, 0
0, 0
0, 0
0, 0
0, 0
0, 0
0, 0
0, 0
0, 0
0, 0
0, 0
0, 0
0, 0
0, 0
0, 0
0, 0
0, 0
0, 0
0, 0
0, 0
0, 0
0, 0
0, 0
0, 0
0, 0
0, 0
0, 0
0, 0
0, 0
0, 0
0, 0
0, 0
0, 0
0, 0
0, 0
0, 0
0, 0
0, 0
0, 0
0, 0
0, 0
0, 0
0, 0
0, 0
0, 0
0, 0
0, 0
0, 0
0, 0
0, 0
0, 0
0, 0
0, 0
0, 0
0, 0
0, 0
0, 0
0, 0
0, 0
#ENDOFDATA     end of spectrum data

File: ps__0852shot_2553.msa
#FORMAT      : EMSA/MAS spectral data file
#VERSION     : TC202v2.0 PIXL
#TITLE       : N/A
#DATE        :       Date in the format DD-MMM-YYYY, for example 07-JUL-2010
#TIME        :             The time of day at which the spectrum was recorded, in 24-hour format
#OWNER       : PIXL Flight Model       (PIXL will use this to indicate which instrument took the data.)
#NPOINTS     : 4096     Number of data points in the spectrum (This can be zero for configuration only files)
#NCOLUMNS    : 2     Number of data columns in the spectrum (This can be zero for configuration only files)
#XUNITS      : eV
#YUNITS      : COUNTS
#DATATYPE    : YY
#XPERCHAN    : 7.862, 7.881   eV per channel (separate by commas if more than one detector)
#OFFSET      : 18.5, -22.4         eV of first channel  (separate by commas if more than one detector
#SIGNALTYPE  : XRF
#YP_TEMP     : 2.46
#LIVETIME    : 8.54855, 8.54767   seconds (separate by commas if more than one detector)
#REALTIME    : 10, 10.0   seconds (separate by commas if more than one detector)
#SPECTRUM    : start of spectrum data
0, 0
0, 0
0, 0
0, 0
0, 0
0, 0
0, 0
1, 0
0, 3
1, 0
1, 1
45, 38
54, 44
5, 9
5, 1
98, 89
424, 426
97, 93
9, 9
5, 0
1, 1
10, 7
12, 3
14, 9
45, 59
50, 43
31, 19
17, 15
9, 7
2, 3
4, 5
5, 2
6, 2
31, 30
42, 48
11, 8
8, 3
7, 8
6, 2
5, 4
6, 5
9, 13
10, 18
12, 12
3, 2
10, 0
4, 2
5, 1
8, 11
30, 41
27, 28
9, 9
10, 13
36, 42
60, 66
36, 14
34, 46
518, 601
2286, 2411
1626, 1414
208, 162
13, 10
19, 21
86, 116
346, 342
241, 166
33, 16
9, 8
14, 18
5, 7
7, 5
5, 4
3, 4
3, 9
5, 8
7, 9
5, 5
2, 6
5, 3
7, 1
2, 3
6, 1
10, 3
1, 1
9, 4
4, 4
11, 3
14, 2
4, 3
4, 4
3, 6
5, 2
6, 3
4, 2
6, 3
3, 1
15, 2
7, 4
1, 4
3, 3
3, 6
1, 1
1, 3
0, 7
3, 3
4, 2
4, 1
2, 2
3, 1
2, 2
1, 1
0, 1
3, 1
0, 0
1, 5
2, 3
6, 5
4, 5
2, 2
2, 1
0, 3
2, 1
0, 2
2, 2
4, 2
1, 0
2, 1
1, 1
0, 3
0, 0
0, 1
2, 0
1, 0
2, 3
1, 2
0, 0
0, 1
0, 3
2, 0
0, 1
3, 0
1, 0
2, 0
1, 0
0, 0
0, 0
0, 0
0, 0
1, 1
0, 0
0, 1
1, 0
0, 0
0, 0
0, 0
0, 0
0, 0
0, 0
0, 0
0, 1
0, 0
0, 0
0, 0
0, 0
0, 0
0, 0
0, 1
0, 0
0, 0
1, 0
0, 0
0, 0
0, 0
0, 1
0, 0
0, 0
1, 0
0, 0
0, 0
0, 1
0, 0
0, 0
0, 0
0, 0
0, 0
0, 1
0, 0
0, 0
0, 0
0, 0
0, 0
0, 0
0, 0
0, 0
0, 0
0, 0
0, 0
0, 0
2, 0
0, 0
0, 0
0, 0
0, 0
0, 0
0, 0
0, 0
0, 0
0, 0
0, 0
0, 0
0, 0
0, 0
0, 0
0, 0
0, 0
0, 0
0, 0
0, 0
0, 0
0, 0
0, 0
0, 0
0, 0
0, 0
0, 0
0, 0
0, 0
0, 0
0, 0
0, 0
0, 0
0, 0
0, 0
0, 0
0, 0
0, 0
0, 0
0, 0
0, 0
0, 0
0, 0
0, 0
0, 0
0, 0
0, 0
0, 0
0, 0
0, 0
0, 0
0, 0
0, 0
0, 0
0, 0
0, 0
0, 0
0, 0
0, 0
0, 0
0, 0
0, 0
0, 0
0, 0
0, 0
0, 0
0, 0
0, 0
0, 0
0, 0
0, 0
0, 0
0, 0
0, 0
0, 0
0, 0
0, 0
0, 0
0, 0
0, 0
0, 0
0, 0
0, 0
0, 0
0, 0
0, 0
0, 0
0, 0
0, 0
0, 0
0, 0
0, 0
0, 0
0, 0
0, 0
0, 0
#ENDOFDATA     end of spectrum data

File: ps__0852shot_2554.msa
#FORMAT      : EMSA/MAS spectral data file
#VERSION     : TC202v2.0 PIXL
#TITLE       : N/A
#DATE        :       Date in the format DD-MMM-YYYY, for example 07-JUL-2010
#TIME        :             The time of day at which the spectrum was recorded, in 24-hour format
#OWNER       : PIXL Flight Model       (PIXL will use this to indicate which instrument took the data.)
#NPOINTS     : 4096     Number of data points in the spectrum (This can be zero for configuration only files)
#NCOLUMNS    : 2     Number of data columns in the spectrum (This can be zero for configuration only files)
#XUNITS      : eV
#YUNITS      : COUNTS
#DATATYPE    : YY
#XPERCHAN    : 7.862, 7.881   eV per channel (separate by commas if more than one detector)
#OFFSET      : 18.5, -22.4         eV of first channel  (separate by commas if more than one detector
#SIGNALTYPE  : XRF
#YP_TEMP     : 2.46
#LIVETIME    : 8.54601, 8.54698   seconds (separate by commas if more than one detector)
#REALTIME    : 10, 10.0   seconds (separate by commas if more than one detector)
#SPECTRUM    : start of spectrum data
0, 0
0, 0
0, 0
0, 0
0, 0
0, 0
0, 0
0, 0
0, 0
1, 0
2, 5
55, 54
61, 40
14, 3
6, 4
102, 95
476, 446
120, 107
6, 6
1, 0
0, 2
2, 1
2, 3
9, 2
18, 23
28, 15
12, 15
13, 7
2, 7
1, 2
0, 2
0, 2
4, 3
22, 15
19, 15
2, 1
5, 1
3, 2
3, 4
3, 4
3, 6
9, 13
13, 11
10, 9
1, 5
7, 5
5, 4
3, 6
3, 4
18, 12
18, 9
7, 9
7, 18
43, 66
87, 75
47, 28
32, 30
449, 607
2296, 2291
1652, 1428
189, 154
20, 12
19, 24
113, 130
331, 322
212, 192
33, 23
22, 8
24, 15
9, 8
3, 6
4, 3
3, 4
5, 5
3, 17
2, 11
5, 4
4, 3
6, 3
5, 5
6, 3
17, 3
21, 2
3, 4
5, 1
4, 1
6, 2
6, 1
5, 2
3, 4
3, 2
3, 2
4, 2
2, 3
4, 2
2, 3
4, 0
4, 1
3, 3
5, 5
2, 2
1, 3
2, 1
2, 1
3, 3
1, 0
4, 1
1, 1
1, 3
1, 1
0, 1
4, 1
4, 1
1, 2
3, 5
5, 5
7, 3
6, 6
0, 3
1, 0
1, 0
1, 2
1, 3
1, 0
0, 1
1, 0
2, 0
1, 2
1, 1
2, 0
2, 1
2, 1
0, 1
1, 0
0, 2
1, 1
0, 1
1, 1
0, 0
0, 0
2, 0
1, 1
1, 0
0, 2
0, 0
0, 1
0, 1
1, 0
1, 0
1, 0
1, 0
1, 0
0, 0
1, 0
0, 0
0, 0
1, 0
1, 1
1, 0
0, 0
1, 0
0, 0
0, 0
0, 0
0, 0
1, 0
1, 0
0, 0
0, 0
0, 0
0, 0
1, 0
0, 0
0, 0
1, 1
0, 1
0, 0
0, 1
0, 0
1, 0
0, 0
0, 0
0, 0
0, 0
0, 0
1, 0
0, 1
0, 1
0, 0
0, 0
0, 0
0, 0
0, 0
0, 0
0, 0
0, 0
0, 0
0, 0
0, 0
0, 0
0, 0
0, 0
0, 0
0, 0
0, 0
0, 0
0, 0
0, 0
0, 0
0, 0
0, 0
0, 0
0, 1
0, 0
0, 0
0, 0
0, 0
0, 0
0, 0
0, 0
0, 0
0, 0
0, 0
0, 0
0, 0
0, 0
0, 0
0, 0
0, 0
0, 0
0, 0
0, 0
0, 0
0, 0
0, 0
0, 0
0, 0
0, 0
0, 0
0, 0
0, 0
0, 0
0, 0
0, 0
0, 0
0, 0
0, 0
0, 0
0, 0
0, 0
0, 0
0, 0
0, 0
0, 0
0, 0
0, 0
0, 0
0, 0
0, 0
0, 0
0, 0
0, 0
0, 0
0, 0
0, 0
0, 0
0, 0
0, 0
0, 0
0, 0
0, 0
0, 0
0, 0
0, 0
0, 0
0, 0
0, 0
0, 0
0, 0
0, 0
0, 0
0, 0
0, 0
0, 0
0, 0
0, 0
0, 0
0, 0
0, 0
0, 0
0, 0
0, 0
0, 0
0, 0
#ENDOFDATA     end of spectrum data