Folder: data-repository/host_upload/06-09-2024/ps_0852/dump3 (part 3)

File: ps__0852shot_2018.msa
#FORMAT      : EMSA/MAS spectral data file
#VERSION     : TC202v2.0 PIXL
#TITLE       : N/A
#DATE        :       Date in the format DD-MMM-YYYY, for example 07-JUL-2010
#TIME        :             The time of day at which the spectrum was recorded, in 24-hour format
#OWNER       : PIXL Flight Model       (PIXL will use this to indicate which instrument took the data.)
#NPOINTS     : 4096     Number of data points in the spectrum (This can be zero for configuration only files)
#NCOLUMNS    : 2     Number of data columns in the spectrum (This can be zero for configuration only files)
#XUNITS      : eV
#YUNITS      : COUNTS
#DATATYPE    : YY
#XPERCHAN    : 7.862, 7.881   eV per channel (separate by commas if more than one detector)
#OFFSET      : 18.5, -22.4         eV of first channel  (separate by commas if more than one detector
#SIGNALTYPE  : XRF
#YP_TEMP     : 2.46
#LIVETIME    : 8.56991, 8.56092   seconds (separate by commas if more than one detector)
#REALTIME    : 10, 10.0   seconds (separate by commas if more than one detector)
#SPECTRUM    : start of spectrum data
0, 0
0, 0
0, 0
0, 0
0, 0
0, 0
0, 0
0, 0
0, 2
0, 0
4, 1
47, 43
60, 67
3, 5
8, 6
102, 106
408, 431
100, 110
9, 3
2, 1
1, 3
3, 5
2, 3
7, 10
41, 28
46, 32
28, 31
10, 23
5, 7
2, 1
2, 3
4, 0
0, 5
23, 26
21, 22
8, 9
6, 8
4, 8
5, 18
8, 4
14, 5
5, 11
12, 16
12, 7
11, 10
3, 4
8, 9
7, 5
15, 8
17, 19
14, 13
10, 38
17, 54
35, 66
68, 54
35, 16
56, 27
498, 569
2088, 2277
1605, 1438
232, 139
15, 15
33, 24
139, 129
351, 366
224, 186
33, 21
5, 8
17, 16
9, 12
3, 6
4, 6
5, 6
6, 7
18, 11
6, 9
4, 16
1, 9
5, 7
3, 7
12, 3
4, 5
3, 1
2, 1
3, 6
4, 3
2, 5
3, 1
10, 1
2, 5
7, 3
5, 3
1, 3
6, 2
4, 1
5, 4
2, 1
6, 6
3, 5
1, 0
2, 4
6, 2
1, 5
2, 1
3, 7
6, 0
2, 2
4, 1
1, 4
6, 3
3, 1
2, 1
2, 1
4, 3
4, 3
4, 4
1, 8
1, 3
2, 1
0, 3
1, 3
0, 2
2, 5
0, 1
3, 1
3, 2
0, 2
1, 0
0, 1
1, 0
2, 1
1, 0
1, 0
0, 0
1, 1
0, 0
1, 2
0, 1
0, 0
0, 0
1, 0
1, 0
0, 1
0, 1
0, 0
1, 0
2, 0
0, 2
0, 0
0, 1
0, 1
0, 0
0, 1
0, 0
0, 0
0, 0
1, 0
0, 1
3, 0
0, 1
0, 0
0, 0
0, 0
0, 0
1, 0
0, 0
0, 0
1, 0
0, 0
0, 1
0, 0
1, 0
0, 0
0, 0
0, 0
0, 0
0, 0
0, 0
0, 0
0, 0
0, 0
1, 1
0, 0
0, 0
0, 0
0, 0
0, 1
0, 0
0, 0
0, 0
0, 0
0, 0
0, 0
0, 0
0, 0
0, 0
0, 0
0, 0
0, 0
0, 0
0, 0
0, 0
0, 0
0, 0
0, 0
0, 0
0, 0
0, 0
0, 0
0, 0
0, 0
0, 0
0, 0
0, 0
0, 0
0, 0
0, 0
0, 0
0, 0
0, 0
0, 0
0, 0
0, 0
0, 0
0, 0
0, 0
0, 0
0, 0
0, 0
0, 0
0, 0
0, 0
0, 0
0, 0
0, 0
0, 0
0, 0
0, 0
0, 0
0, 0
0, 0
0, 0
0, 0
0, 0
0, 0
0, 0
0, 0
0, 0
0, 0
0, 0
0, 0
0, 0
0, 0
0, 0
0, 0
0, 0
0, 0
0, 0
0, 0
0, 0
0, 0
0, 0
0, 0
0, 0
0, 0
0, 0
0, 0
0, 0
0, 0
0, 0
0, 0
0, 0
0, 0
0, 0
0, 0
0, 0
0, 0
0, 0
0, 0
0, 0
0, 0
0, 0
0, 0
0, 0
0, 0
0, 0
0, 0
0, 0
0, 0
0, 0
0, 0
0, 0
0, 0
0, 0
#ENDOFDATA     end of spectrum data

File: ps__0852shot_2019.msa
#FORMAT      : EMSA/MAS spectral data file
#VERSION     : TC202v2.0 PIXL
#TITLE       : N/A
#DATE        :       Date in the format DD-MMM-YYYY, for example 07-JUL-2010
#TIME        :             The time of day at which the spectrum was recorded, in 24-hour format
#OWNER       : PIXL Flight Model       (PIXL will use this to indicate which instrument took the data.)
#NPOINTS     : 4096     Number of data points in the spectrum (This can be zero for configuration only files)
#NCOLUMNS    : 2     Number of data columns in the spectrum (This can be zero for configuration only files)
#XUNITS      : eV
#YUNITS      : COUNTS
#DATATYPE    : YY
#XPERCHAN    : 7.862, 7.881   eV per channel (separate by commas if more than one detector)
#OFFSET      : 18.5, -22.4         eV of first channel  (separate by commas if more than one detector
#SIGNALTYPE  : XRF
#YP_TEMP     : 2.235
#LIVETIME    : 8.56699, 8.55934   seconds (separate by commas if more than one detector)
#REALTIME    : 10, 10.0   seconds (separate by commas if more than one detector)
#SPECTRUM    : start of spectrum data
0, 0
0, 0
0, 0
0, 0
0, 0
0, 0
0, 0
0, 0
1, 2
4, 1
2, 1
39, 44
69, 59
6, 4
6, 2
99, 111
418, 414
100, 97
3, 9
0, 2
7, 5
23, 25
8, 11
12, 6
43, 35
62, 38
17, 36
16, 15
0, 5
1, 2
1, 4
4, 3
9, 23
11, 79
20, 32
6, 8
0, 8
9, 5
16, 13
13, 6
17, 3
8, 13
18, 15
16, 14
6, 7
3, 13
5, 19
4, 7
15, 6
11, 19
11, 19
26, 24
33, 30
43, 49
61, 57
19, 19
34, 40
459, 562
2054, 2233
1545, 1331
194, 165
12, 24
35, 48
137, 130
352, 338
218, 210
36, 21
12, 9
22, 14
12, 5
7, 8
1, 5
1, 5
8, 5
4, 6
13, 2
11, 5
5, 10
10, 9
10, 8
5, 9
3, 1
5, 3
3, 5
6, 1
5, 4
3, 8
5, 2
2, 3
5, 3
4, 6
3, 3
3, 3
4, 4
4, 4
2, 4
3, 2
3, 3
3, 2
3, 1
2, 1
3, 4
6, 2
7, 3
3, 1
3, 2
0, 3
0, 0
1, 1
3, 2
1, 3
1, 5
2, 0
2, 1
0, 1
1, 4
7, 6
3, 5
3, 2
2, 1
0, 0
1, 2
1, 3
3, 0
0, 2
1, 0
2, 1
0, 1
0, 2
1, 2
0, 1
0, 2
1, 0
0, 1
3, 2
1, 1
0, 0
1, 0
0, 2
1, 0
0, 0
1, 0
1, 1
1, 1
0, 0
0, 1
0, 0
0, 0
1, 1
1, 0
0, 0
0, 0
0, 1
1, 0
2, 0
0, 0
0, 1
0, 0
0, 0
0, 1
1, 1
2, 1
0, 0
0, 0
0, 0
0, 0
0, 0
0, 0
0, 0
0, 0
1, 1
0, 0
0, 0
0, 0
1, 0
0, 0
0, 0
0, 0
0, 0
0, 1
0, 0
0, 0
0, 0
0, 1
0, 0
0, 0
0, 0
0, 0
0, 0
0, 0
0, 0
0, 0
0, 0
0, 0
0, 0
0, 0
0, 0
0, 0
0, 0
0, 0
0, 0
0, 0
0, 0
0, 0
0, 0
0, 0
0, 0
0, 0
0, 0
0, 0
0, 0
0, 0
0, 0
0, 0
0, 0
0, 0
0, 0
0, 0
0, 0
0, 0
0, 0
0, 0
0, 0
0, 0
0, 0
0, 0
0, 0
0, 0
0, 0
0, 0
0, 0
0, 0
0, 0
0, 0
0, 0
0, 0
0, 0
0, 0
0, 0
0, 0
0, 0
0, 0
0, 0
0, 0
0, 0
0, 0
0, 0
0, 0
0, 0
0, 0
0, 0
0, 0
0, 0
0, 0
0, 0
0, 0
0, 0
0, 0
0, 0
0, 0
0, 0
0, 0
0, 0
0, 0
0, 0
0, 0
0, 0
0, 0
0, 0
0, 0
0, 0
0, 0
0, 0
0, 0
0, 0
0, 0
0, 0
0, 0
0, 0
0, 0
0, 0
0, 0
0, 0
0, 0
0, 0
0, 0
0, 0
0, 0
0, 0
0, 0
0, 0
0, 0
0, 0
0, 0
#ENDOFDATA     end of spectrum data

File: ps__0852shot_2020.msa
#FORMAT      : EMSA/MAS spectral data file
#VERSION     : TC202v2.0 PIXL
#TITLE       : N/A
#DATE        :       Date in the format DD-MMM-YYYY, for example 07-JUL-2010
#TIME        :             The time of day at which the spectrum was recorded, in 24-hour format
#OWNER       : PIXL Flight Model       (PIXL will use this to indicate which instrument took the data.)
#NPOINTS     : 4096     Number of data points in the spectrum (This can be zero for configuration only files)
#NCOLUMNS    : 2     Number of data columns in the spectrum (This can be zero for configuration only files)
#XUNITS      : eV
#YUNITS      : COUNTS
#DATATYPE    : YY
#XPERCHAN    : 7.862, 7.881   eV per channel (separate by commas if more than one detector)
#OFFSET      : 18.5, -22.4         eV of first channel  (separate by commas if more than one detector
#SIGNALTYPE  : XRF
#YP_TEMP     : 2.332
#LIVETIME    : 8.55544, 8.56183   seconds (separate by commas if more than one detector)
#REALTIME    : 10, 10.0   seconds (separate by commas if more than one detector)
#SPECTRUM    : start of spectrum data
0, 0
0, 0
0, 0
0, 0
0, 0
0, 0
0, 0
0, 0
4, 0
4, 1
3, 2
45, 41
55, 54
5, 3
5, 2
84, 80
423, 419
111, 104
5, 2
4, 1
13, 14
44, 46
20, 19
21, 18
203, 53
292, 45
70, 35
19, 21
8, 11
1, 5
1, 2
0, 3
4, 17
12, 46
21, 29
9, 15
7, 4
14, 5
25, 7
21, 5
15, 10
7, 9
14, 23
12, 11
6, 7
3, 15
2, 16
4, 6
6, 10
18, 18
21, 21
33, 6
32, 20
56, 51
75, 75
24, 23
30, 47
471, 590
2098, 2338
1576, 1398
179, 166
19, 32
39, 53
131, 158
320, 369
237, 211
22, 32
9, 6
11, 10
7, 6
6, 3
3, 6
1, 6
3, 10
6, 6
23, 12
29, 5
12, 13
6, 10
5, 11
6, 2
2, 3
5, 5
0, 7
10, 5
4, 8
5, 6
3, 4
5, 3
1, 6
5, 3
1, 3
6, 4
2, 2
1, 2
3, 2
2, 3
3, 6
4, 4
3, 1
3, 3
4, 2
3, 4
6, 4
5, 6
1, 6
1, 1
2, 1
0, 2
2, 4
2, 3
2, 6
3, 3
1, 0
1, 2
1, 0
2, 5
3, 2
3, 4
0, 1
0, 3
0, 0
1, 3
1, 2
1, 1
0, 1
2, 1
2, 2
1, 0
1, 2
0, 2
2, 0
0, 0
1, 0
0, 2
0, 1
0, 0
0, 0
2, 0
0, 1
1, 2
0, 0
0, 0
0, 0
0, 0
0, 1
0, 0
0, 0
0, 0
1, 1
1, 2
0, 0
0, 0
0, 0
0, 0
0, 1
0, 0
0, 0
0, 0
1, 0
0, 1
0, 0
0, 0
0, 0
0, 0
0, 0
0, 0
0, 0
0, 0
0, 1
0, 0
0, 0
0, 1
1, 0
0, 0
0, 0
0, 0
0, 0
0, 0
0, 1
0, 0
1, 1
0, 0
0, 1
0, 0
0, 1
0, 0
0, 0
0, 0
0, 0
1, 0
0, 0
0, 0
0, 0
0, 0
0, 0
0, 0
0, 0
0, 0
0, 1
0, 0
0, 0
0, 0
0, 0
0, 0
0, 0
0, 0
0, 0
0, 0
0, 0
0, 0
0, 0
0, 0
0, 0
0, 0
0, 0
0, 0
0, 0
0, 0
0, 0
0, 0
0, 0
0, 0
0, 0
0, 0
0, 0
0, 0
0, 0
0, 0
0, 0
0, 0
0, 0
0, 0
0, 0
0, 0
0, 0
0, 0
0, 0
0, 0
0, 0
0, 1
0, 0
0, 0
0, 0
0, 0
0, 0
0, 0
0, 0
0, 0
0, 0
0, 0
0, 0
0, 0
0, 0
0, 0
0, 0
0, 0
0, 0
0, 0
0, 0
0, 0
0, 0
0, 0
0, 0
0, 0
0, 0
0, 0
0, 0
0, 0
0, 0
0, 0
0, 0
0, 0
0, 0
0, 0
0, 0
0, 0
0, 0
0, 0
0, 0
0, 0
0, 0
0, 0
0, 0
0, 0
0, 0
0, 0
0, 0
0, 0
0, 0
0, 0
0, 0
0, 0
0, 0
#ENDOFDATA     end of spectrum data

File: ps__0852shot_2021.msa
#FORMAT      : EMSA/MAS spectral data file
#VERSION     : TC202v2.0 PIXL
#TITLE       : N/A
#DATE        :       Date in the format DD-MMM-YYYY, for example 07-JUL-2010
#TIME        :             The time of day at which the spectrum was recorded, in 24-hour format
#OWNER       : PIXL Flight Model       (PIXL will use this to indicate which instrument took the data.)
#NPOINTS     : 4096     Number of data points in the spectrum (This can be zero for configuration only files)
#NCOLUMNS    : 2     Number of data columns in the spectrum (This can be zero for configuration only files)
#XUNITS      : eV
#YUNITS      : COUNTS
#DATATYPE    : YY
#XPERCHAN    : 7.862, 7.881   eV per channel (separate by commas if more than one detector)
#OFFSET      : 18.5, -22.4         eV of first channel  (separate by commas if more than one detector
#SIGNALTYPE  : XRF
#YP_TEMP     : 2.428
#LIVETIME    : 8.56274, 8.5591   seconds (separate by commas if more than one detector)
#REALTIME    : 10, 10.0   seconds (separate by commas if more than one detector)
#SPECTRUM    : start of spectrum data
0, 0
0, 0
0, 0
0, 0
0, 0
0, 0
0, 0
2, 0
0, 0
3, 1
3, 4
47, 51
54, 66
9, 11
4, 9
78, 103
402, 426
104, 92
4, 7
1, 1
4, 7
21, 18
19, 14
15, 11
109, 53
152, 52
42, 32
15, 10
4, 5
1, 3
4, 3
3, 1
2, 13
12, 50
24, 51
5, 8
7, 10
10, 13
19, 9
16, 15
15, 17
17, 10
14, 17
13, 17
9, 8
8, 12
4, 17
10, 7
12, 16
43, 39
32, 27
18, 7
35, 12
54, 41
53, 62
28, 39
38, 54
452, 593
2110, 2224
1574, 1411
186, 154
30, 33
26, 33
125, 114
337, 352
220, 198
48, 34
10, 14
14, 22
9, 9
11, 4
10, 6
5, 7
3, 6
11, 10
11, 4
10, 9
6, 11
5, 4
4, 6
8, 3
4, 5
3, 1
3, 3
6, 7
1, 6
2, 9
3, 8
3, 3
4, 3
0, 2
4, 5
5, 4
3, 1
3, 2
4, 5
2, 0
1, 2
1, 3
1, 4
5, 1
3, 4
2, 0
2, 2
2, 7
1, 1
2, 2
7, 1
3, 4
5, 1
0, 2
0, 1
1, 2
3, 0
1, 2
0, 5
5, 5
3, 1
1, 2
0, 2
1, 2
2, 3
2, 6
0, 4
0, 4
1, 3
3, 1
4, 3
2, 2
0, 0
2, 0
1, 0
0, 0
1, 0
0, 1
1, 0
0, 1
0, 0
0, 1
2, 1
0, 1
1, 1
0, 0
2, 0
0, 0
1, 1
0, 0
1, 0
1, 1
0, 0
0, 0
1, 0
0, 0
0, 0
1, 1
2, 0
0, 1
0, 1
0, 0
0, 0
0, 0
0, 1
1, 1
0, 0
1, 0
0, 1
0, 0
0, 0
0, 1
0, 2
0, 1
1, 0
1, 0
0, 0
0, 0
0, 0
0, 0
0, 1
0, 0
0, 1
0, 0
0, 0
0, 1
0, 0
0, 0
0, 0
0, 0
0, 0
0, 0
0, 0
0, 0
0, 0
0, 0
0, 0
0, 0
0, 0
0, 0
0, 0
0, 0
0, 0
0, 0
0, 0
0, 0
0, 0
0, 0
0, 1
0, 0
0, 0
0, 0
0, 0
0, 0
0, 0
0, 0
0, 0
0, 0
0, 0
0, 0
0, 0
0, 0
0, 0
0, 0
0, 0
0, 0
0, 0
0, 0
0, 0
0, 0
0, 0
0, 0
0, 0
0, 0
0, 0
0, 0
0, 0
0, 0
0, 0
0, 0
0, 0
0, 0
0, 0
0, 0
0, 0
0, 0
0, 0
0, 0
0, 0
0, 0
0, 0
0, 0
0, 0
0, 0
0, 0
0, 0
0, 0
0, 0
0, 0
0, 0
0, 0
0, 0
0, 0
0, 0
0, 0
0, 0
0, 0
0, 0
0, 0
0, 0
0, 0
0, 0
0, 0
0, 0
0, 0
0, 0
0, 0
0, 0
0, 0
0, 0
0, 0
0, 0
0, 0
0, 0
0, 0
0, 0
0, 0
0, 0
0, 0
0, 0
0, 0
0, 0
0, 0
0, 0
0, 0
0, 0
0, 0
#ENDOFDATA     end of spectrum data

File: ps__0852shot_2022.msa
#FORMAT      : EMSA/MAS spectral data file
#VERSION     : TC202v2.0 PIXL
#TITLE       : N/A
#DATE        :       Date in the format DD-MMM-YYYY, for example 07-JUL-2010
#TIME        :             The time of day at which the spectrum was recorded, in 24-hour format
#OWNER       : PIXL Flight Model       (PIXL will use this to indicate which instrument took the data.)
#NPOINTS     : 4096     Number of data points in the spectrum (This can be zero for configuration only files)
#NCOLUMNS    : 2     Number of data columns in the spectrum (This can be zero for configuration only files)
#XUNITS      : eV
#YUNITS      : COUNTS
#DATATYPE    : YY
#XPERCHAN    : 7.862, 7.881   eV per channel (separate by commas if more than one detector)
#OFFSET      : 18.5, -22.4         eV of first channel  (separate by commas if more than one detector
#SIGNALTYPE  : XRF
#YP_TEMP     : 2.171
#LIVETIME    : 8.56589, 8.55789   seconds (separate by commas if more than one detector)
#REALTIME    : 10, 10.0   seconds (separate by commas if more than one detector)
#SPECTRUM    : start of spectrum data
0, 0
0, 0
0, 0
0, 0
0, 0
0, 0
0, 0
0, 0
1, 0
0, 2
3, 3
37, 35
67, 62
6, 5
7, 6
88, 108
445, 434
100, 88
6, 4
1, 2
3, 3
3, 7
2, 5
16, 8
57, 52
75, 59
43, 32
12, 20
4, 4
0, 2
5, 3
3, 4
5, 4
10, 22
17, 34
8, 11
7, 4
13, 13
11, 17
8, 8
7, 10
9, 14
21, 22
19, 19
6, 10
15, 9
6, 8
8, 4
9, 9
20, 19
21, 15
12, 15
19, 8
46, 64
56, 61
26, 58
31, 61
502, 619
2053, 2226
1532, 1368
213, 161
24, 26
29, 34
111, 127
355, 371
254, 188
44, 27
6, 6
21, 20
11, 4
2, 10
5, 2
6, 9
4, 5
7, 13
6, 4
9, 6
4, 6
4, 6
7, 2
3, 6
5, 3
2, 5
0, 8
4, 10
1, 8
4, 5
4, 5
5, 7
1, 3
2, 6
4, 3
4, 7
2, 1
1, 1
1, 4
2, 5
3, 2
5, 0
2, 2
2, 3
5, 2
6, 1
4, 0
3, 2
1, 2
3, 4
5, 2
1, 3
3, 3
6, 1
3, 3
6, 4
1, 0
2, 1
1, 2
5, 5
2, 1
2, 1
3, 3
3, 1
2, 5
1, 2
1, 2
2, 2
1, 1
1, 3
0, 2
1, 0
1, 2
3, 1
0, 2
2, 0
1, 0
4, 0
1, 1
0, 2
1, 0
1, 3
1, 0
0, 1
0, 1
1, 0
0, 1
2, 0
0, 0
1, 0
1, 0
1, 0
0, 2
1, 0
0, 0
0, 0
0, 0
0, 0
0, 0
1, 0
1, 0
1, 0
1, 1
0, 1
0, 0
0, 0
0, 0
0, 0
0, 0
0, 2
1, 0
0, 0
2, 2
0, 0
0, 0
0, 0
0, 0
0, 0
0, 0
0, 2
1, 0
0, 1
0, 0
0, 1
0, 0
0, 0
0, 0
0, 0
0, 0
1, 0
0, 0
0, 0
0, 0
0, 0
0, 0
0, 0
0, 0
0, 0
0, 0
0, 0
0, 0
0, 0
0, 0
0, 0
0, 0
0, 0
0, 0
0, 0
0, 0
0, 0
0, 0
0, 0
0, 0
0, 0
0, 0
0, 0
0, 0
0, 0
0, 0
0, 0
0, 0
0, 0
0, 0
0, 0
0, 0
0, 0
0, 0
0, 0
0, 0
0, 0
0, 0
0, 0
0, 0
0, 0
0, 0
0, 0
0, 0
0, 0
0, 0
0, 0
0, 0
0, 0
0, 0
0, 0
0, 0
0, 0
0, 0
0, 0
0, 0
0, 0
0, 0
0, 0
0, 0
0, 0
0, 0
0, 0
0, 0
0, 0
0, 0
0, 0
0, 0
0, 0
0, 0
0, 0
0, 0
0, 0
0, 0
0, 0
0, 0
0, 0
0, 0
0, 0
0, 0
0, 0
0, 0
0, 0
0, 0
0, 0
0, 0
0, 0
0, 0
0, 0
0, 0
0, 0
0, 0
0, 0
0, 0
0, 0
0, 0
0, 0
0, 0
0, 0
0, 0
0, 0
0, 0
0, 0
0, 0
#ENDOFDATA     end of spectrum data

File: ps__0852shot_2023.msa
#FORMAT      : EMSA/MAS spectral data file
#VERSION     : TC202v2.0 PIXL
#TITLE       : N/A
#DATE        :       Date in the format DD-MMM-YYYY, for example 07-JUL-2010
#TIME        :             The time of day at which the spectrum was recorded, in 24-hour format
#OWNER       : PIXL Flight Model       (PIXL will use this to indicate which instrument took the data.)
#NPOINTS     : 4096     Number of data points in the spectrum (This can be zero for configuration only files)
#NCOLUMNS    : 2     Number of data columns in the spectrum (This can be zero for configuration only files)
#XUNITS      : eV
#YUNITS      : COUNTS
#DATATYPE    : YY
#XPERCHAN    : 7.862, 7.881   eV per channel (separate by commas if more than one detector)
#OFFSET      : 18.5, -22.4         eV of first channel  (separate by commas if more than one detector
#SIGNALTYPE  : XRF
#YP_TEMP     : 2.364
#LIVETIME    : 8.56576, 8.54819   seconds (separate by commas if more than one detector)
#REALTIME    : 10, 10.0   seconds (separate by commas if more than one detector)
#SPECTRUM    : start of spectrum data
0, 0
0, 0
0, 0
0, 0
0, 0
0, 0
0, 0
0, 0
1, 1
1, 2
3, 2
31, 37
48, 70
6, 6
6, 6
93, 120
369, 450
94, 117
4, 3
0, 2
2, 2
8, 5
2, 2
9, 6
49, 45
65, 64
32, 37
12, 17
7, 6
1, 2
4, 1
4, 2
2, 5
18, 23
20, 25
9, 9
9, 3
8, 7
8, 14
16, 11
13, 11
8, 21
12, 15
17, 16
9, 12
7, 10
6, 14
6, 7
13, 11
23, 24
19, 26
5, 20
14, 17
36, 63
60, 77
27, 49
31, 61
416, 663
1935, 2524
1416, 1591
210, 165
16, 14
13, 24
102, 152
295, 370
186, 217
30, 29
15, 10
17, 17
11, 7
2, 5
1, 6
5, 6
10, 9
5, 7
9, 11
7, 11
5, 6
5, 7
4, 6
5, 12
3, 6
0, 7
6, 8
6, 3
2, 1
5, 4
9, 12
6, 3
0, 5
3, 6
2, 3
1, 5
4, 5
3, 10
4, 3
1, 7
7, 2
5, 3
2, 3
4, 3
2, 5
0, 2
3, 4
1, 4
4, 3
2, 7
0, 1
6, 2
2, 5
3, 2
0, 1
1, 3
4, 3
1, 3
3, 2
4, 4
1, 2
2, 3
1, 1
0, 0
0, 2
2, 2
1, 2
3, 1
2, 1
0, 1
2, 3
0, 3
1, 0
0, 3
1, 0
0, 1
1, 1
1, 0
3, 0
2, 1
1, 1
1, 1
0, 0
0, 0
1, 0
1, 0
0, 0
0, 2
0, 2
0, 2
1, 0
0, 0
0, 0
0, 0
0, 0
1, 1
0, 0
0, 1
0, 0
1, 0
0, 1
0, 0
0, 0
1, 1
0, 0
0, 0
1, 0
0, 0
0, 0
0, 0
0, 0
1, 0
2, 0
0, 0
0, 0
0, 0
0, 0
0, 0
1, 0
1, 0
0, 0
0, 0
0, 0
0, 0
0, 0
1, 0
0, 0
0, 0
0, 0
0, 0
0, 0
0, 0
0, 0
0, 0
1, 0
0, 0
0, 0
0, 0
0, 0
0, 0
0, 0
0, 0
0, 0
0, 0
0, 0
0, 0
0, 0
0, 0
0, 0
0, 0
0, 0
0, 0
0, 0
1, 0
0, 0
0, 0
0, 0
0, 0
0, 0
0, 0
0, 0
0, 0
0, 0
0, 0
0, 0
0, 0
0, 0
0, 0
0, 0
0, 0
0, 0
0, 0
0, 0
0, 0
0, 0
0, 0
0, 0
0, 0
0, 0
0, 0
0, 0
0, 0
0, 0
0, 0
0, 0
0, 0
0, 0
0, 0
0, 0
0, 0
0, 0
0, 0
0, 0
0, 0
0, 0
0, 0
0, 0
0, 0
0, 0
0, 0
0, 0
0, 0
0, 0
0, 0
0, 0
0, 0
0, 0
0, 0
0, 0
0, 0
0, 0
0, 0
0, 0
0, 0
0, 0
0, 0
0, 0
0, 0
0, 0
0, 0
0, 0
0, 0
0, 0
0, 0
0, 0
0, 0
0, 0
0, 0
0, 0
0, 0
0, 0
0, 0
0, 0
0, 0
0, 0
0, 0
0, 0
#ENDOFDATA     end of spectrum data

File: ps__0852shot_2024.msa
#FORMAT      : EMSA/MAS spectral data file
#VERSION     : TC202v2.0 PIXL
#TITLE       : N/A
#DATE        :       Date in the format DD-MMM-YYYY, for example 07-JUL-2010
#TIME        :             The time of day at which the spectrum was recorded, in 24-hour format
#OWNER       : PIXL Flight Model       (PIXL will use this to indicate which instrument took the data.)
#NPOINTS     : 4096     Number of data points in the spectrum (This can be zero for configuration only files)
#NCOLUMNS    : 2     Number of data columns in the spectrum (This can be zero for configuration only files)
#XUNITS      : eV
#YUNITS      : COUNTS
#DATATYPE    : YY
#XPERCHAN    : 7.862, 7.881   eV per channel (separate by commas if more than one detector)
#OFFSET      : 18.5, -22.4         eV of first channel  (separate by commas if more than one detector
#SIGNALTYPE  : XRF
#YP_TEMP     : 2.396
#LIVETIME    : 8.54822, 8.5754   seconds (separate by commas if more than one detector)
#REALTIME    : 10, 10.0   seconds (separate by commas if more than one detector)
#SPECTRUM    : start of spectrum data
0, 0
0, 0
0, 0
0, 0
0, 0
0, 0
0, 0
0, 0
2, 2
0, 0
1, 2
32, 53
41, 77
4, 8
2, 4
71, 124
318, 464
86, 127
3, 10
1, 4
1, 1
1, 3
2, 1
3, 4
19, 37
20, 35
20, 26
13, 14
4, 4
1, 3
0, 0
3, 2
3, 5
6, 28
7, 25
5, 4
5, 6
7, 5
6, 3
3, 5
4, 3
3, 6
11, 15
12, 14
5, 4
4, 8
2, 10
6, 5
4, 10
6, 18
11, 20
6, 8
10, 18
37, 46
51, 76
24, 42
22, 61
378, 701
1567, 2582
1143, 1494
143, 203
9, 17
14, 24
78, 135
241, 435
157, 219
19, 20
3, 14
17, 19
4, 7
5, 5
3, 6
0, 4
8, 6
12, 11
12, 8
10, 8
7, 6
5, 19
7, 15
1, 17
5, 11
2, 7
2, 0
1, 2
5, 7
2, 2
1, 4
0, 3
3, 5
3, 3
4, 2
2, 3
2, 5
3, 6
4, 2
3, 4
3, 3
0, 3
3, 4
1, 3
4, 3
1, 7
0, 5
2, 5
1, 3
2, 1
4, 1
1, 1
1, 0
2, 0
3, 3
1, 1
3, 1
0, 1
2, 1
2, 3
4, 2
3, 3
1, 1
1, 1
1, 0
2, 0
1, 0
0, 1
1, 0
0, 0
0, 2
0, 0
1, 1
0, 0
0, 1
2, 0
1, 1
0, 1
1, 1
1, 0
1, 0
0, 0
1, 1
1, 0
1, 0
1, 2
0, 1
1, 1
0, 1
0, 0
0, 2
0, 0
0, 0
0, 0
0, 2
0, 0
0, 0
0, 0
0, 1
0, 0
0, 0
0, 0
0, 0
0, 0
0, 1
0, 1
1, 0
0, 0
0, 0
0, 0
0, 0
0, 0
0, 1
1, 0
0, 1
0, 0
0, 0
0, 0
0, 0
0, 1
0, 0
0, 0
0, 1
0, 0
0, 0
0, 0
0, 0
0, 0
0, 0
0, 0
1, 0
0, 0
0, 0
0, 0
0, 0
0, 0
0, 0
0, 0
0, 0
0, 0
0, 0
0, 0
0, 0
0, 0
0, 0
0, 0
0, 0
0, 0
0, 1
0, 0
0, 0
0, 0
0, 0
0, 0
0, 0
0, 0
0, 0
0, 0
0, 0
0, 0
0, 0
0, 0
0, 0
0, 0
0, 0
0, 0
0, 0
0, 0
0, 0
0, 0
0, 0
0, 0
0, 0
0, 0
0, 0
0, 0
0, 0
0, 0
0, 0
0, 0
0, 0
0, 0
0, 0
0, 0
0, 0
0, 0
0, 0
0, 0
0, 0
0, 0
0, 0
0, 0
0, 0
0, 0
0, 0
0, 0
0, 0
0, 0
0, 0
0, 0
0, 0
0, 0
0, 0
0, 0
0, 0
0, 0
0, 0
0, 0
0, 0
0, 0
0, 0
0, 0
0, 0
0, 0
0, 0
0, 0
0, 0
0, 0
0, 0
0, 0
0, 0
0, 0
0, 0
0, 0
0, 0
0, 0
0, 0
0, 0
0, 0
0, 0
0, 0
0, 0
0, 0
0, 0
0, 0
0, 0
0, 0
#ENDOFDATA     end of spectrum data

File: ps__0852shot_2025.msa
#FORMAT      : EMSA/MAS spectral data file
#VERSION     : TC202v2.0 PIXL
#TITLE       : N/A
#DATE        :       Date in the format DD-MMM-YYYY, for example 07-JUL-2010
#TIME        :             The time of day at which the spectrum was recorded, in 24-hour format
#OWNER       : PIXL Flight Model       (PIXL will use this to indicate which instrument took the data.)
#NPOINTS     : 4096     Number of data points in the spectrum (This can be zero for configuration only files)
#NCOLUMNS    : 2     Number of data columns in the spectrum (This can be zero for configuration only files)
#XUNITS      : eV
#YUNITS      : COUNTS
#DATATYPE    : YY
#XPERCHAN    : 7.862, 7.881   eV per channel (separate by commas if more than one detector)
#OFFSET      : 18.5, -22.4         eV of first channel  (separate by commas if more than one detector
#SIGNALTYPE  : XRF
#YP_TEMP     : 2.428
#LIVETIME    : 8.5581, 8.56648   seconds (separate by commas if more than one detector)
#REALTIME    : 10, 10.0   seconds (separate by commas if more than one detector)
#SPECTRUM    : start of spectrum data
0, 0
0, 0
0, 0
0, 0
0, 0
0, 0
0, 0
0, 0
1, 1
3, 0
1, 3
37, 65
49, 60
7, 3
5, 6
102, 99
434, 454
111, 110
3, 3
2, 2
0, 2
2, 4
2, 1
5, 6
39, 46
59, 52
31, 28
12, 13
6, 4
2, 4
5, 1
0, 3
1, 34
8, 96
17, 33
10, 6
9, 5
15, 4
3, 3
6, 4
19, 3
16, 8
19, 16
12, 11
4, 9
6, 13
5, 7
10, 4
8, 9
10, 24
6, 37
21, 30
40, 19
59, 35
77, 64
27, 18
43, 49
483, 584
2120, 2370
1589, 1345
218, 149
10, 24
13, 41
105, 122
321, 364
231, 175
44, 33
18, 10
18, 17
7, 11
4, 3
9, 3
3, 6
8, 10
7, 12
8, 8
6, 2
7, 9
8, 13
3, 14
6, 7
4, 3
3, 4
8, 2
7, 10
4, 18
3, 7
5, 2
5, 2
5, 6
4, 3
5, 3
4, 3
1, 2
3, 3
3, 2
1, 1
1, 0
4, 3
1, 2
1, 3
5, 8
1, 6
1, 4
6, 2
3, 2
1, 1
5, 3
2, 1
3, 2
1, 2
2, 4
3, 1
5, 4
4, 3
5, 3
3, 3
5, 5
1, 2
1, 1
1, 2
1, 3
3, 4
3, 0
1, 1
1, 1
2, 2
1, 2
3, 0
0, 2
1, 0
1, 1
2, 1
0, 0
0, 1
0, 1
0, 0
1, 1
0, 0
1, 1
2, 0
0, 0
2, 0
0, 0
1, 1
2, 0
1, 1
0, 0
1, 0
0, 0
0, 0
0, 0
1, 0
0, 0
0, 1
0, 2
0, 1
0, 1
0, 1
0, 1
1, 1
0, 0
0, 0
0, 1
0, 1
0, 1
0, 0
0, 0
0, 1
0, 0
0, 1
0, 0
1, 0
0, 0
0, 0
0, 0
0, 0
0, 0
0, 1
0, 0
0, 0
0, 0
0, 0
0, 0
0, 0
0, 0
0, 0
0, 0
0, 0
0, 0
0, 0
0, 0
0, 0
0, 0
0, 0
0, 1
0, 1
0, 0
0, 0
0, 0
0, 0
0, 0
0, 0
0, 0
0, 0
0, 0
0, 0
0, 0
0, 0
0, 0
0, 1
0, 0
0, 0
0, 0
0, 0
0, 0
0, 0
0, 0
0, 0
0, 0
0, 0
0, 0
0, 0
0, 0
0, 0
0, 0
0, 0
0, 0
0, 0
0, 0
0, 0
0, 0
0, 0
0, 0
0, 0
0, 0
0, 0
0, 0
0, 0
0, 0
0, 0
0, 0
0, 0
0, 0
0, 0
0, 0
0, 0
0, 0
0, 0
0, 0
0, 0
0, 0
0, 0
0, 0
0, 0
0, 0
0, 0
0, 0
0, 0
0, 0
0, 0
0, 0
0, 0
0, 0
0, 0
0, 0
0, 0
0, 0
0, 0
0, 0
0, 0
0, 0
0, 0
0, 0
0, 0
0, 0
0, 0
0, 0
0, 0
0, 0
0, 0
0, 0
0, 0
0, 0
0, 0
0, 0
0, 0
0, 0
0, 0
0, 0
0, 0
0, 0
0, 0
0, 0
#ENDOFDATA     end of spectrum data

File: ps__0852shot_2026.msa
#FORMAT      : EMSA/MAS spectral data file
#VERSION     : TC202v2.0 PIXL
#TITLE       : N/A
#DATE        :       Date in the format DD-MMM-YYYY, for example 07-JUL-2010
#TIME        :             The time of day at which the spectrum was recorded, in 24-hour format
#OWNER       : PIXL Flight Model       (PIXL will use this to indicate which instrument took the data.)
#NPOINTS     : 4096     Number of data points in the spectrum (This can be zero for configuration only files)
#NCOLUMNS    : 2     Number of data columns in the spectrum (This can be zero for configuration only files)
#XUNITS      : eV
#YUNITS      : COUNTS
#DATATYPE    : YY
#XPERCHAN    : 7.862, 7.881   eV per channel (separate by commas if more than one detector)
#OFFSET      : 18.5, -22.4         eV of first channel  (separate by commas if more than one detector
#SIGNALTYPE  : XRF
#YP_TEMP     : 2.364
#LIVETIME    : 8.55488, 8.35739   seconds (separate by commas if more than one detector)
#REALTIME    : 10, 10.0   seconds (separate by commas if more than one detector)
#SPECTRUM    : start of spectrum data
0, 0
0, 0
0, 0
0, 0
0, 0
0, 0
0, 0
0, 0
0, 1
1, 3
1, 4
41, 34
56, 46
13, 4
8, 6
94, 117
430, 429
116, 109
8, 3
4, 1
1, 3
5, 8
5, 5
7, 10
43, 96
41, 97
44, 35
28, 9
4, 4
0, 0
1, 2
2, 3
3, 5
11, 35
14, 16
8, 7
29, 5
15, 6
5, 2
6, 4
11, 4
10, 4
11, 8
13, 18
8, 6
7, 4
7, 9
6, 9
8, 3
10, 18
17, 17
30, 13
55, 12
59, 46
62, 46
28, 19
49, 37
479, 571
2180, 2261
1672, 1447
195, 169
23, 15
21, 17
122, 138
320, 359
268, 180
34, 23
7, 5
18, 14
8, 6
5, 1
4, 3
3, 5
5, 23
11, 30
5, 18
3, 3
4, 2
4, 3
8, 5
3, 4
3, 3
16, 3
29, 4
31, 3
7, 4
1, 2
10, 3
12, 3
9, 2
3, 2
3, 0
2, 3
3, 2
1, 1
2, 4
2, 4
2, 4
3, 1
0, 0
3, 1
1, 3
2, 2
5, 2
16, 1
2, 2
1, 2
2, 7
5, 6
3, 3
1, 3
6, 2
0, 0
0, 0
2, 0
4, 4
1, 3
5, 1
2, 0
1, 1
1, 1
2, 3
2, 0
3, 1
0, 2
0, 1
1, 1
1, 1
0, 1
0, 2
0, 2
1, 1
1, 1
0, 2
1, 0
0, 1
0, 0
2, 1
1, 1
1, 0
0, 0
0, 1
0, 1
0, 1
0, 0
0, 0
0, 1
0, 0
2, 0
1, 0
0, 1
0, 1
0, 1
0, 0
0, 2
0, 0
0, 0
0, 0
1, 0
0, 0
0, 0
0, 0
0, 0
1, 1
0, 1
1, 0
0, 0
0, 1
0, 1
1, 0
1, 0
0, 0
0, 0
0, 0
0, 0
0, 0
0, 0
0, 1
0, 0
0, 0
1, 1
0, 0
0, 0
0, 0
0, 0
0, 0
0, 0
1, 0
0, 0
1, 0
0, 0
0, 0
0, 0
0, 0
0, 0
0, 1
0, 0
0, 0
0, 0
0, 0
0, 0
0, 0
0, 0
0, 0
0, 0
0, 0
1, 0
0, 0
0, 0
0, 0
0, 0
0, 0
0, 0
0, 0
0, 0
0, 0
0, 0
0, 0
0, 0
0, 0
0, 0
0, 0
0, 0
0, 0
0, 0
0, 0
0, 0
0, 0
0, 0
0, 0
0, 0
0, 0
0, 0
0, 0
0, 0
0, 0
0, 0
0, 0
0, 0
0, 0
0, 0
0, 0
0, 0
0, 0
0, 0
0, 0
0, 0
0, 0
0, 0
0, 0
0, 0
0, 0
0, 0
0, 0
0, 0
0, 0
0, 0
0, 0
0, 0
0, 0
0, 0
0, 0
0, 0
0, 0
0, 0
0, 0
0, 0
0, 0
0, 0
0, 0
0, 0
0, 0
0, 0
0, 0
0, 0
0, 0
0, 0
0, 0
0, 0
0, 0
0, 0
0, 0
0, 0
0, 0
0, 0
0, 0
0, 0
0, 0
0, 0
0, 0
0, 0
0, 0
0, 0
0, 0
#ENDOFDATA     end of spectrum data