Folder: data-repository/host_upload/06-09-2024/ps_0852/dump3 (part 50)

File: ps__0852shot_2447.msa
#FORMAT      : EMSA/MAS spectral data file
#VERSION     : TC202v2.0 PIXL
#TITLE       : N/A
#DATE        :       Date in the format DD-MMM-YYYY, for example 07-JUL-2010
#TIME        :             The time of day at which the spectrum was recorded, in 24-hour format
#OWNER       : PIXL Flight Model       (PIXL will use this to indicate which instrument took the data.)
#NPOINTS     : 4096     Number of data points in the spectrum (This can be zero for configuration only files)
#NCOLUMNS    : 2     Number of data columns in the spectrum (This can be zero for configuration only files)
#XUNITS      : eV
#YUNITS      : COUNTS
#DATATYPE    : YY
#XPERCHAN    : 7.862, 7.881   eV per channel (separate by commas if more than one detector)
#OFFSET      : 18.5, -22.4         eV of first channel  (separate by commas if more than one detector
#SIGNALTYPE  : XRF
#YP_TEMP     : 2.428
#LIVETIME    : 8.55736, 8.55917   seconds (separate by commas if more than one detector)
#REALTIME    : 10, 10.0   seconds (separate by commas if more than one detector)
#SPECTRUM    : start of spectrum data
0, 0
0, 0
0, 0
0, 0
0, 0
0, 0
0, 0
0, 0
1, 0
1, 0
2, 5
45, 38
78, 55
5, 4
4, 1
88, 86
452, 353
117, 83
2, 4
1, 1
22, 10
83, 65
31, 25
6, 14
39, 51
44, 51
26, 31
15, 15
6, 3
5, 1
6, 3
3, 6
6, 0
27, 20
25, 16
7, 7
4, 7
6, 10
10, 15
18, 11
5, 12
14, 19
24, 15
15, 19
22, 15
14, 10
13, 7
7, 7
16, 9
24, 19
21, 29
11, 19
17, 15
53, 48
69, 54
36, 23
36, 36
531, 532
2414, 1961
1781, 1219
207, 111
34, 20
31, 12
120, 121
377, 307
245, 175
38, 21
12, 7
19, 10
15, 7
5, 5
3, 8
6, 3
10, 6
7, 8
4, 6
4, 6
5, 3
9, 3
4, 6
2, 6
7, 4
4, 3
5, 3
9, 2
5, 3
8, 2
7, 10
9, 4
7, 3
8, 6
6, 3
7, 1
9, 3
4, 3
1, 4
3, 0
7, 2
4, 5
1, 2
2, 0
0, 0
6, 1
6, 0
3, 4
6, 1
3, 5
2, 5
2, 3
4, 2
1, 5
1, 3
2, 2
5, 5
2, 5
3, 4
3, 4
7, 2
3, 2
2, 1
0, 5
3, 2
1, 2
0, 3
1, 2
0, 0
0, 0
3, 0
2, 1
1, 0
4, 1
0, 0
0, 0
1, 1
1, 1
2, 1
1, 1
1, 1
0, 0
0, 0
1, 0
0, 0
0, 0
1, 0
1, 2
0, 0
1, 0
0, 2
0, 0
0, 1
0, 1
0, 0
1, 0
1, 0
0, 0
1, 0
0, 0
0, 0
0, 0
0, 1
0, 0
0, 1
2, 0
0, 1
0, 2
0, 0
0, 0
1, 0
0, 2
1, 0
0, 0
0, 0
0, 1
2, 0
0, 0
0, 0
1, 0
1, 1
0, 0
0, 0
0, 0
0, 0
0, 0
1, 0
1, 0
0, 0
0, 0
0, 0
0, 0
0, 0
0, 0
1, 0
0, 0
0, 0
0, 0
1, 0
0, 0
0, 0
0, 0
0, 0
0, 0
0, 0
0, 0
0, 0
0, 0
0, 0
0, 0
0, 0
0, 0
0, 0
0, 0
0, 0
0, 0
0, 0
0, 0
0, 0
0, 0
0, 0
0, 0
0, 0
0, 0
0, 0
0, 0
0, 0
0, 0
0, 0
0, 0
0, 0
0, 0
0, 0
0, 0
0, 0
0, 0
0, 0
0, 0
0, 0
0, 0
0, 0
0, 0
0, 0
0, 0
0, 0
0, 0
0, 0
0, 0
0, 0
0, 0
0, 0
0, 0
0, 0
0, 0
0, 0
0, 0
0, 0
0, 0
0, 0
0, 0
0, 0
0, 0
0, 0
0, 0
0, 0
0, 0
0, 0
0, 0
0, 0
0, 0
0, 0
0, 0
0, 0
0, 0
0, 0
0, 0
0, 0
0, 0
0, 0
0, 0
0, 0
0, 0
0, 0
0, 0
0, 0
0, 0
0, 0
0, 0
0, 0
0, 0
0, 0
0, 0
0, 0
0, 0
0, 0
0, 0
0, 0
#ENDOFDATA     end of spectrum data

File: ps__0852shot_2448.msa
#FORMAT      : EMSA/MAS spectral data file
#VERSION     : TC202v2.0 PIXL
#TITLE       : N/A
#DATE        :       Date in the format DD-MMM-YYYY, for example 07-JUL-2010
#TIME        :             The time of day at which the spectrum was recorded, in 24-hour format
#OWNER       : PIXL Flight Model       (PIXL will use this to indicate which instrument took the data.)
#NPOINTS     : 4096     Number of data points in the spectrum (This can be zero for configuration only files)
#NCOLUMNS    : 2     Number of data columns in the spectrum (This can be zero for configuration only files)
#XUNITS      : eV
#YUNITS      : COUNTS
#DATATYPE    : YY
#XPERCHAN    : 7.862, 7.881   eV per channel (separate by commas if more than one detector)
#OFFSET      : 18.5, -22.4         eV of first channel  (separate by commas if more than one detector
#SIGNALTYPE  : XRF
#YP_TEMP     : 2.3
#LIVETIME    : 8.55544, 8.55676   seconds (separate by commas if more than one detector)
#REALTIME    : 10, 10.0   seconds (separate by commas if more than one detector)
#SPECTRUM    : start of spectrum data
0, 0
0, 0
0, 0
0, 0
0, 0
0, 0
0, 0
0, 0
2, 1
1, 2
3, 2
36, 47
46, 36
15, 4
3, 3
78, 78
389, 322
94, 76
6, 6
9, 7
48, 30
181, 197
75, 68
17, 23
73, 60
59, 68
25, 32
18, 16
5, 5
3, 2
4, 4
3, 5
5, 3
21, 10
25, 24
6, 10
3, 17
5, 6
5, 7
4, 10
3, 6
10, 10
17, 12
15, 17
9, 33
7, 12
6, 6
10, 5
9, 11
13, 17
14, 48
9, 26
12, 9
37, 37
64, 55
16, 29
46, 82
479, 583
2143, 2168
1612, 1322
216, 132
21, 14
20, 18
101, 105
324, 335
206, 185
44, 21
12, 5
19, 14
8, 8
1, 11
5, 6
5, 6
8, 8
5, 5
9, 7
6, 4
1, 3
7, 2
5, 3
5, 2
4, 3
4, 3
2, 3
7, 2
17, 3
13, 1
7, 3
9, 7
8, 2
7, 4
6, 3
3, 1
2, 3
2, 2
2, 1
4, 0
1, 0
4, 0
7, 2
5, 6
1, 9
3, 5
2, 4
1, 1
2, 3
3, 2
1, 1
2, 0
2, 4
1, 1
0, 4
1, 2
1, 0
0, 0
0, 3
1, 6
7, 2
2, 1
1, 3
4, 1
3, 1
2, 2
1, 1
2, 1
0, 1
4, 0
2, 0
0, 0
3, 2
1, 0
2, 1
1, 0
1, 1
0, 1
0, 1
1, 0
0, 1
0, 1
0, 0
1, 1
0, 0
1, 0
2, 2
0, 0
0, 0
0, 1
1, 1
0, 1
0, 1
0, 0
0, 0
0, 0
2, 0
0, 0
1, 0
0, 0
0, 3
0, 0
0, 0
0, 0
0, 0
0, 0
0, 1
1, 0
0, 0
0, 0
0, 0
1, 0
1, 0
2, 0
0, 2
0, 0
0, 0
0, 0
0, 1
0, 0
0, 2
0, 1
1, 0
0, 0
1, 0
0, 0
1, 0
0, 0
0, 0
0, 0
0, 1
0, 0
0, 0
1, 0
0, 0
0, 0
0, 0
0, 0
0, 1
0, 0
0, 0
0, 0
0, 0
0, 0
0, 0
0, 0
0, 0
0, 0
0, 0
0, 0
0, 0
0, 0
0, 0
0, 0
0, 0
0, 0
0, 0
0, 0
0, 0
0, 0
0, 0
0, 0
0, 0
0, 0
0, 0
0, 0
0, 0
0, 0
0, 0
0, 0
0, 0
0, 0
0, 0
0, 0
0, 0
0, 0
0, 0
0, 0
0, 0
0, 0
0, 0
0, 0
0, 0
0, 0
0, 0
0, 0
0, 0
0, 0
0, 0
0, 0
0, 0
0, 0
0, 0
0, 0
0, 0
0, 0
0, 0
0, 0
0, 0
0, 0
0, 0
0, 0
0, 0
0, 0
0, 0
0, 0
0, 0
0, 0
0, 0
0, 0
0, 0
0, 0
0, 0
0, 0
0, 0
0, 0
0, 0
0, 0
0, 0
0, 0
0, 0
0, 0
0, 0
0, 0
0, 0
0, 0
0, 0
0, 0
0, 0
0, 0
0, 0
0, 0
0, 0
0, 0
0, 0
0, 0
0, 0
#ENDOFDATA     end of spectrum data

File: ps__0852shot_2449.msa
#FORMAT      : EMSA/MAS spectral data file
#VERSION     : TC202v2.0 PIXL
#TITLE       : N/A
#DATE        :       Date in the format DD-MMM-YYYY, for example 07-JUL-2010
#TIME        :             The time of day at which the spectrum was recorded, in 24-hour format
#OWNER       : PIXL Flight Model       (PIXL will use this to indicate which instrument took the data.)
#NPOINTS     : 4096     Number of data points in the spectrum (This can be zero for configuration only files)
#NCOLUMNS    : 2     Number of data columns in the spectrum (This can be zero for configuration only files)
#XUNITS      : eV
#YUNITS      : COUNTS
#DATATYPE    : YY
#XPERCHAN    : 7.862, 7.881   eV per channel (separate by commas if more than one detector)
#OFFSET      : 18.5, -22.4         eV of first channel  (separate by commas if more than one detector
#SIGNALTYPE  : XRF
#YP_TEMP     : 2.364
#LIVETIME    : 8.55516, 8.57595   seconds (separate by commas if more than one detector)
#REALTIME    : 10, 10.0   seconds (separate by commas if more than one detector)
#SPECTRUM    : start of spectrum data
0, 0
0, 0
0, 0
0, 0
0, 0
0, 0
0, 0
0, 0
1, 0
0, 1
2, 0
40, 44
51, 63
11, 4
5, 3
96, 108
422, 404
101, 108
4, 6
2, 3
19, 20
60, 71
39, 27
9, 13
47, 31
47, 31
29, 20
21, 13
5, 6
1, 3
6, 3
2, 0
2, 2
11, 9
14, 14
10, 8
3, 6
4, 7
1, 5
3, 5
2, 5
6, 12
16, 14
16, 13
12, 11
9, 9
6, 3
4, 4
5, 6
16, 17
10, 23
3, 12
5, 9
34, 28
55, 50
22, 70
31, 219
442, 727
2147, 2439
1536, 1408
171, 137
11, 12
19, 30
104, 106
345, 382
230, 186
36, 13
22, 5
23, 9
9, 7
4, 6
1, 3
2, 6
5, 5
7, 3
7, 9
9, 4
6, 3
6, 6
4, 6
4, 6
6, 2
5, 2
0, 3
2, 4
4, 3
7, 2
7, 3
1, 3
5, 2
3, 0
3, 0
7, 3
3, 3
3, 3
2, 0
3, 4
3, 2
2, 3
1, 0
4, 0
0, 2
3, 5
0, 2
3, 4
1, 1
2, 4
0, 2
2, 4
0, 4
0, 2
3, 1
4, 5
4, 0
3, 5
1, 3
3, 3
1, 2
4, 1
1, 1
1, 3
2, 0
2, 1
2, 1
3, 1
1, 3
2, 1
0, 2
2, 3
1, 2
2, 1
1, 0
0, 0
0, 3
0, 0
0, 0
1, 0
1, 2
2, 2
0, 0
2, 1
2, 0
0, 0
1, 1
0, 2
2, 1
2, 0
1, 0
0, 0
1, 0
1, 1
1, 0
0, 0
0, 0
0, 1
0, 0
1, 0
1, 0
0, 0
0, 0
1, 1
0, 0
0, 0
1, 0
0, 1
0, 0
0, 0
0, 0
1, 0
0, 0
0, 0
0, 0
0, 0
1, 0
0, 0
0, 0
1, 0
1, 0
1, 0
0, 0
0, 0
0, 0
1, 0
0, 0
0, 0
0, 0
0, 1
1, 0
0, 0
0, 0
1, 0
0, 0
0, 0
0, 1
1, 0
0, 0
0, 0
0, 0
0, 0
0, 0
0, 0
0, 0
0, 0
0, 0
0, 0
0, 0
0, 0
0, 0
0, 0
0, 0
0, 0
0, 0
0, 0
0, 0
0, 0
0, 0
0, 0
0, 0
0, 0
0, 0
0, 0
0, 0
0, 0
0, 0
0, 0
0, 0
0, 0
0, 0
0, 0
0, 0
0, 0
0, 0
0, 0
0, 0
0, 0
0, 0
0, 0
0, 0
0, 0
0, 0
0, 0
0, 0
0, 0
0, 0
0, 0
0, 0
0, 0
0, 0
0, 0
0, 0
0, 0
0, 0
0, 0
0, 0
0, 0
0, 0
0, 0
0, 0
0, 0
0, 0
0, 0
0, 0
0, 0
0, 0
0, 0
0, 0
0, 0
0, 0
0, 0
0, 0
0, 0
0, 0
0, 0
0, 0
0, 0
0, 0
0, 0
0, 0
0, 0
0, 0
0, 0
0, 0
0, 0
0, 0
0, 0
0, 0
0, 0
0, 0
0, 0
0, 0
0, 0
0, 0
0, 0
0, 0
#ENDOFDATA     end of spectrum data

File: ps__0852shot_2450.msa
#FORMAT      : EMSA/MAS spectral data file
#VERSION     : TC202v2.0 PIXL
#TITLE       : N/A
#DATE        :       Date in the format DD-MMM-YYYY, for example 07-JUL-2010
#TIME        :             The time of day at which the spectrum was recorded, in 24-hour format
#OWNER       : PIXL Flight Model       (PIXL will use this to indicate which instrument took the data.)
#NPOINTS     : 4096     Number of data points in the spectrum (This can be zero for configuration only files)
#NCOLUMNS    : 2     Number of data columns in the spectrum (This can be zero for configuration only files)
#XUNITS      : eV
#YUNITS      : COUNTS
#DATATYPE    : YY
#XPERCHAN    : 7.862, 7.881   eV per channel (separate by commas if more than one detector)
#OFFSET      : 18.5, -22.4         eV of first channel  (separate by commas if more than one detector
#SIGNALTYPE  : XRF
#YP_TEMP     : 2.428
#LIVETIME    : 8.55161, 8.56375   seconds (separate by commas if more than one detector)
#REALTIME    : 10, 10.0   seconds (separate by commas if more than one detector)
#SPECTRUM    : start of spectrum data
0, 0
0, 0
0, 0
0, 0
0, 0
0, 0
0, 0
0, 1
0, 0
2, 0
1, 1
51, 38
69, 56
8, 6
6, 5
91, 92
434, 467
108, 103
3, 3
4, 3
2, 5
20, 21
1, 5
13, 8
32, 48
43, 53
22, 28
12, 11
1, 5
3, 3
2, 5
3, 5
1, 3
7, 11
16, 10
7, 8
5, 9
13, 6
14, 9
6, 4
3, 11
3, 8
12, 14
8, 14
8, 4
5, 5
9, 4
3, 8
8, 10
8, 10
7, 9
5, 9
10, 14
37, 40
57, 69
25, 29
35, 67
482, 580
2164, 2230
1560, 1385
169, 117
16, 12
16, 26
94, 123
339, 379
212, 201
35, 23
9, 10
8, 14
7, 8
2, 3
6, 2
3, 2
6, 1
13, 8
14, 5
9, 4
5, 5
1, 1
2, 6
1, 3
2, 4
4, 1
3, 1
6, 1
5, 11
6, 2
5, 3
8, 4
5, 10
3, 9
3, 3
1, 5
0, 2
3, 3
2, 3
0, 1
1, 0
3, 5
5, 1
7, 7
6, 6
1, 7
1, 4
1, 3
0, 1
1, 8
3, 1
4, 1
1, 2
7, 1
1, 1
7, 0
4, 4
1, 4
3, 3
2, 7
4, 1
1, 3
2, 2
4, 0
0, 1
2, 1
2, 0
1, 2
3, 1
1, 2
2, 1
2, 2
0, 0
1, 2
0, 2
2, 0
0, 1
0, 2
0, 1
0, 0
0, 0
0, 0
1, 1
1, 0
0, 1
0, 1
1, 0
0, 0
0, 0
0, 1
1, 1
0, 1
0, 0
0, 1
0, 0
0, 0
0, 0
0, 0
0, 0
0, 0
0, 0
1, 0
0, 0
0, 1
1, 0
0, 0
0, 0
0, 0
0, 0
1, 0
0, 0
0, 0
0, 0
1, 1
1, 2
0, 0
0, 0
0, 0
0, 0
1, 0
0, 0
0, 0
0, 0
0, 0
0, 0
0, 0
0, 0
0, 0
0, 0
0, 0
0, 1
0, 0
0, 0
0, 0
0, 0
0, 0
0, 0
0, 1
0, 1
0, 0
0, 0
0, 0
1, 0
0, 0
0, 0
0, 0
0, 0
0, 0
0, 0
0, 0
0, 0
0, 0
0, 0
0, 0
0, 0
0, 0
0, 0
0, 0
0, 0
0, 0
0, 0
0, 0
0, 0
0, 0
0, 0
0, 0
0, 0
0, 0
0, 0
0, 0
0, 0
0, 0
0, 0
0, 0
0, 0
0, 0
0, 0
0, 0
0, 0
0, 0
0, 0
0, 0
0, 0
0, 0
0, 0
0, 0
0, 0
0, 0
0, 0
0, 0
0, 0
0, 0
0, 0
0, 0
0, 0
0, 0
0, 0
0, 0
0, 0
0, 0
0, 0
0, 0
0, 0
0, 0
0, 0
0, 0
0, 0
0, 0
0, 0
0, 0
0, 0
0, 0
0, 0
0, 0
0, 0
0, 0
0, 0
0, 0
0, 0
0, 0
0, 0
0, 0
0, 0
0, 0
0, 0
0, 0
0, 0
0, 0
0, 0
0, 0
0, 0
0, 0
0, 0
0, 0
0, 0
0, 0
0, 0
#ENDOFDATA     end of spectrum data

File: ps__0852shot_2451.msa
#FORMAT      : EMSA/MAS spectral data file
#VERSION     : TC202v2.0 PIXL
#TITLE       : N/A
#DATE        :       Date in the format DD-MMM-YYYY, for example 07-JUL-2010
#TIME        :             The time of day at which the spectrum was recorded, in 24-hour format
#OWNER       : PIXL Flight Model       (PIXL will use this to indicate which instrument took the data.)
#NPOINTS     : 4096     Number of data points in the spectrum (This can be zero for configuration only files)
#NCOLUMNS    : 2     Number of data columns in the spectrum (This can be zero for configuration only files)
#XUNITS      : eV
#YUNITS      : COUNTS
#DATATYPE    : YY
#XPERCHAN    : 7.862, 7.881   eV per channel (separate by commas if more than one detector)
#OFFSET      : 18.5, -22.4         eV of first channel  (separate by commas if more than one detector
#SIGNALTYPE  : XRF
#YP_TEMP     : 2.267
#LIVETIME    : 8.56415, 8.55665   seconds (separate by commas if more than one detector)
#REALTIME    : 10, 10.0   seconds (separate by commas if more than one detector)
#SPECTRUM    : start of spectrum data
0, 0
0, 0
0, 0
0, 0
0, 0
0, 0
0, 0
0, 0
0, 0
5, 2
2, 3
43, 52
44, 44
9, 3
3, 3
83, 90
408, 465
103, 103
5, 5
2, 4
10, 16
75, 85
23, 25
12, 13
43, 32
37, 46
18, 27
13, 7
6, 5
3, 1
2, 2
1, 2
3, 0
5, 7
7, 19
0, 16
7, 27
26, 6
33, 9
6, 1
3, 6
10, 6
20, 7
20, 11
9, 14
2, 12
6, 5
7, 8
5, 2
8, 6
11, 11
4, 7
7, 5
33, 29
70, 72
47, 14
31, 44
469, 603
2247, 2216
1484, 1333
183, 142
15, 65
13, 60
97, 138
313, 361
234, 206
24, 24
7, 11
12, 13
13, 5
3, 3
7, 3
7, 8
4, 1
12, 5
17, 1
7, 7
4, 3
5, 12
3, 8
2, 2
1, 2
6, 4
6, 2
9, 4
9, 3
7, 3
7, 2
6, 4
1, 4
2, 21
1, 9
2, 3
5, 7
3, 2
5, 4
1, 1
4, 2
3, 3
7, 2
1, 3
5, 1
2, 1
2, 2
0, 2
0, 3
2, 4
1, 3
4, 2
1, 2
2, 1
3, 0
4, 1
5, 2
4, 1
2, 6
4, 6
2, 4
2, 1
4, 0
2, 0
2, 5
5, 4
0, 0
1, 1
1, 2
1, 3
1, 1
1, 1
3, 2
0, 2
1, 1
0, 0
0, 0
1, 1
0, 1
1, 1
1, 0
1, 2
0, 0
2, 1
1, 0
0, 1
0, 1
0, 1
1, 0
1, 0
1, 2
0, 0
1, 0
1, 1
0, 0
0, 1
0, 0
0, 0
1, 0
3, 0
1, 0
0, 0
0, 1
0, 1
0, 1
1, 0
0, 0
0, 0
0, 1
0, 0
0, 1
0, 1
0, 0
0, 1
0, 0
0, 0
0, 1
0, 0
0, 0
0, 0
0, 0
0, 0
0, 0
0, 0
0, 0
1, 0
0, 0
0, 0
0, 0
0, 0
0, 0
0, 0
0, 0
0, 0
1, 1
0, 0
0, 0
0, 0
0, 0
0, 0
0, 0
1, 0
0, 0
0, 0
0, 0
0, 0
0, 0
0, 0
0, 0
0, 0
0, 1
0, 0
0, 0
0, 0
0, 0
0, 0
0, 0
0, 0
0, 0
0, 0
0, 0
0, 0
0, 0
0, 0
0, 0
0, 0
0, 0
0, 0
0, 0
0, 0
0, 0
0, 0
0, 0
0, 0
0, 0
0, 0
0, 0
0, 0
0, 0
0, 0
0, 0
0, 0
0, 0
0, 0
0, 0
0, 0
0, 0
0, 0
0, 0
0, 0
0, 0
0, 0
0, 0
0, 0
0, 0
0, 0
0, 0
0, 0
0, 0
0, 0
0, 0
0, 0
0, 0
0, 0
0, 0
0, 0
0, 0
0, 0
0, 0
0, 0
0, 0
0, 0
0, 0
0, 0
0, 0
0, 0
0, 0
0, 0
0, 0
0, 0
0, 0
0, 0
0, 0
0, 0
0, 0
0, 0
0, 0
0, 0
0, 0
0, 0
0, 0
0, 0
0, 0
0, 0
0, 0
0, 0
0, 0
#ENDOFDATA     end of spectrum data

File: ps__0852shot_2452.msa
#FORMAT      : EMSA/MAS spectral data file
#VERSION     : TC202v2.0 PIXL
#TITLE       : N/A
#DATE        :       Date in the format DD-MMM-YYYY, for example 07-JUL-2010
#TIME        :             The time of day at which the spectrum was recorded, in 24-hour format
#OWNER       : PIXL Flight Model       (PIXL will use this to indicate which instrument took the data.)
#NPOINTS     : 4096     Number of data points in the spectrum (This can be zero for configuration only files)
#NCOLUMNS    : 2     Number of data columns in the spectrum (This can be zero for configuration only files)
#XUNITS      : eV
#YUNITS      : COUNTS
#DATATYPE    : YY
#XPERCHAN    : 7.862, 7.881   eV per channel (separate by commas if more than one detector)
#OFFSET      : 18.5, -22.4         eV of first channel  (separate by commas if more than one detector
#SIGNALTYPE  : XRF
#YP_TEMP     : 2.267
#LIVETIME    : 8.56743, 8.56559   seconds (separate by commas if more than one detector)
#REALTIME    : 10, 10.0   seconds (separate by commas if more than one detector)
#SPECTRUM    : start of spectrum data
0, 0
0, 0
0, 0
0, 0
0, 0
0, 0
0, 0
0, 0
1, 1
0, 1
3, 5
42, 39
49, 62
7, 2
4, 4
72, 109
369, 461
91, 111
4, 5
1, 1
8, 7
29, 34
15, 16
9, 17
45, 32
54, 48
26, 17
22, 17
6, 4
3, 3
2, 2
2, 0
2, 1
10, 12
11, 4
3, 16
5, 13
8, 6
9, 11
7, 2
5, 5
14, 10
14, 30
10, 17
4, 7
10, 9
2, 12
4, 7
11, 8
12, 5
8, 6
6, 6
9, 9
44, 47
59, 62
25, 18
27, 42
464, 641
2045, 2513
1501, 1530
188, 173
19, 62
20, 51
89, 112
314, 368
227, 218
23, 19
30, 3
33, 13
16, 3
8, 5
4, 5
6, 3
3, 6
4, 7
5, 7
7, 1
6, 7
6, 6
5, 3
5, 2
2, 5
4, 4
4, 9
5, 14
8, 6
7, 6
6, 2
1, 3
1, 14
3, 10
0, 4
4, 2
5, 1
5, 3
4, 3
4, 7
7, 2
5, 1
3, 4
3, 2
1, 6
4, 2
2, 2
3, 4
2, 2
1, 3
4, 3
1, 2
1, 1
2, 4
1, 1
3, 1
2, 1
1, 1
0, 1
4, 2
2, 5
2, 1
0, 2
1, 4
3, 1
1, 2
0, 2
0, 1
0, 3
4, 2
2, 2
1, 2
0, 1
0, 0
2, 0
0, 2
1, 1
2, 1
0, 1
0, 0
0, 1
0, 0
1, 1
0, 1
0, 1
1, 0
2, 1
0, 2
0, 2
0, 0
1, 0
2, 1
0, 0
0, 0
1, 1
0, 0
1, 2
0, 0
0, 0
0, 0
0, 0
0, 0
1, 0
0, 0
0, 0
0, 0
0, 0
0, 0
0, 2
0, 0
1, 0
0, 1
1, 1
1, 0
0, 1
0, 0
0, 0
0, 0
0, 0
0, 0
0, 1
0, 0
0, 1
1, 0
0, 0
0, 0
2, 0
1, 1
0, 0
0, 0
0, 1
0, 0
0, 0
0, 0
0, 0
0, 0
0, 0
0, 0
0, 0
0, 1
0, 0
0, 0
0, 0
0, 0
0, 0
0, 0
0, 0
0, 0
0, 0
0, 0
0, 0
0, 0
0, 0
0, 0
0, 0
0, 0
0, 0
0, 0
0, 0
0, 0
0, 0
0, 0
0, 0
0, 1
0, 0
0, 0
0, 0
0, 0
0, 0
0, 0
0, 0
0, 0
0, 0
0, 0
0, 0
0, 0
0, 0
0, 0
0, 0
0, 0
0, 0
0, 0
0, 0
0, 0
0, 0
0, 0
0, 0
0, 0
0, 0
0, 0
0, 0
0, 0
0, 0
0, 0
0, 0
0, 0
0, 0
0, 0
0, 0
0, 0
0, 0
0, 0
0, 0
0, 0
0, 0
0, 0
0, 0
0, 0
0, 0
0, 0
0, 0
0, 0
0, 0
0, 0
0, 0
0, 0
0, 0
0, 0
0, 0
0, 0
0, 0
0, 0
0, 0
0, 0
0, 0
0, 0
0, 0
0, 0
0, 0
0, 0
0, 0
0, 0
0, 0
0, 0
0, 0
0, 0
0, 0
#ENDOFDATA     end of spectrum data

File: ps__0852shot_2453.msa
#FORMAT      : EMSA/MAS spectral data file
#VERSION     : TC202v2.0 PIXL
#TITLE       : N/A
#DATE        :       Date in the format DD-MMM-YYYY, for example 07-JUL-2010
#TIME        :             The time of day at which the spectrum was recorded, in 24-hour format
#OWNER       : PIXL Flight Model       (PIXL will use this to indicate which instrument took the data.)
#NPOINTS     : 4096     Number of data points in the spectrum (This can be zero for configuration only files)
#NCOLUMNS    : 2     Number of data columns in the spectrum (This can be zero for configuration only files)
#XUNITS      : eV
#YUNITS      : COUNTS
#DATATYPE    : YY
#XPERCHAN    : 7.862, 7.881   eV per channel (separate by commas if more than one detector)
#OFFSET      : 18.5, -22.4         eV of first channel  (separate by commas if more than one detector
#SIGNALTYPE  : XRF
#YP_TEMP     : 2.332
#LIVETIME    : 8.56196, 8.555   seconds (separate by commas if more than one detector)
#REALTIME    : 10, 10.0   seconds (separate by commas if more than one detector)
#SPECTRUM    : start of spectrum data
0, 0
0, 0
0, 0
0, 0
0, 0
0, 0
0, 0
0, 0
2, 1
0, 3
4, 0
48, 41
58, 37
12, 4
6, 7
108, 97
492, 449
104, 70
7, 8
2, 4
6, 5
15, 15
8, 6
12, 7
117, 52
97, 53
30, 22
15, 8
2, 5
1, 2
3, 0
2, 3
4, 3
11, 7
9, 13
8, 8
11, 6
5, 4
3, 8
3, 11
7, 8
13, 15
19, 21
13, 16
11, 8
4, 7
9, 11
5, 9
8, 9
10, 8
10, 9
12, 8
29, 8
48, 25
60, 62
23, 25
30, 33
492, 515
2312, 1939
1632, 1209
199, 113
11, 21
23, 22
105, 106
351, 297
232, 171
39, 23
18, 3
29, 17
18, 9
3, 12
4, 8
8, 4
7, 3
1, 3
9, 9
5, 7
4, 2
5, 5
9, 2
1, 3
0, 5
1, 3
6, 7
4, 7
2, 4
5, 1
2, 3
3, 5
4, 5
4, 2
5, 2
7, 2
5, 0
3, 3
6, 3
3, 2
6, 5
4, 1
2, 7
6, 3
3, 1
5, 1
3, 3
3, 5
2, 2
2, 2
2, 2
1, 3
7, 3
3, 1
3, 1
3, 1
3, 2
1, 2
0, 1
2, 2
4, 1
4, 0
2, 4
1, 1
2, 0
3, 0
1, 0
0, 2
1, 0
0, 1
0, 1
1, 0
0, 1
0, 1
1, 1
1, 1
0, 0
2, 0
0, 0
2, 2
1, 0
0, 1
1, 0
0, 1
0, 1
0, 0
0, 0
0, 0
1, 1
2, 0
1, 1
2, 0
2, 0
0, 1
0, 0
1, 1
0, 0
0, 1
0, 0
1, 1
0, 3
0, 0
0, 1
0, 0
0, 0
1, 0
0, 0
0, 0
0, 1
0, 0
1, 0
0, 0
0, 1
0, 0
0, 0
1, 2
0, 1
0, 1
0, 0
0, 1
0, 0
0, 1
0, 0
0, 0
0, 1
0, 0
0, 0
0, 0
0, 0
0, 0
0, 0
0, 0
0, 0
0, 0
0, 1
0, 0
0, 0
0, 0
0, 0
0, 0
0, 0
0, 0
0, 0
1, 0
0, 0
1, 1
0, 0
0, 0
0, 0
1, 0
0, 0
0, 0
0, 0
0, 0
0, 0
0, 0
0, 0
0, 0
0, 0
0, 0
0, 0
0, 0
0, 0
0, 0
0, 0
0, 0
0, 0
0, 0
0, 0
0, 0
0, 0
0, 0
0, 0
0, 0
0, 0
0, 0
0, 0
0, 0
0, 0
0, 0
0, 0
0, 0
0, 0
0, 0
0, 0
0, 0
0, 0
0, 0
0, 0
0, 0
0, 0
0, 0
0, 0
0, 0
0, 0
0, 0
0, 0
0, 0
0, 0
0, 0
0, 0
0, 0
0, 0
0, 0
0, 0
0, 0
0, 0
0, 0
0, 0
0, 0
0, 0
0, 0
0, 0
0, 0
0, 0
0, 0
0, 0
0, 0
0, 0
0, 0
0, 0
0, 0
0, 0
0, 0
0, 0
0, 0
0, 0
0, 0
0, 0
0, 0
0, 0
0, 0
0, 0
0, 0
0, 0
0, 0
0, 0
#ENDOFDATA     end of spectrum data

File: ps__0852shot_2454.msa
#FORMAT      : EMSA/MAS spectral data file
#VERSION     : TC202v2.0 PIXL
#TITLE       : N/A
#DATE        :       Date in the format DD-MMM-YYYY, for example 07-JUL-2010
#TIME        :             The time of day at which the spectrum was recorded, in 24-hour format
#OWNER       : PIXL Flight Model       (PIXL will use this to indicate which instrument took the data.)
#NPOINTS     : 4096     Number of data points in the spectrum (This can be zero for configuration only files)
#NCOLUMNS    : 2     Number of data columns in the spectrum (This can be zero for configuration only files)
#XUNITS      : eV
#YUNITS      : COUNTS
#DATATYPE    : YY
#XPERCHAN    : 7.862, 7.881   eV per channel (separate by commas if more than one detector)
#OFFSET      : 18.5, -22.4         eV of first channel  (separate by commas if more than one detector
#SIGNALTYPE  : XRF
#YP_TEMP     : 2.492
#LIVETIME    : 8.57046, 8.57318   seconds (separate by commas if more than one detector)
#REALTIME    : 10, 10.0   seconds (separate by commas if more than one detector)
#SPECTRUM    : start of spectrum data
0, 0
0, 0
0, 0
0, 0
0, 0
0, 0
0, 0
0, 2
0, 1
1, 1
3, 5
39, 49
46, 56
5, 9
6, 7
94, 94
389, 414
87, 87
2, 4
2, 2
4, 6
38, 31
20, 16
16, 13
36, 46
49, 35
21, 18
12, 17
6, 4
2, 3
4, 3
6, 5
5, 4
19, 26
47, 30
4, 11
15, 12
8, 13
5, 8
4, 3
3, 6
14, 10
14, 16
15, 16
5, 10
5, 6
3, 6
8, 7
9, 7
21, 24
20, 11
14, 14
23, 15
47, 54
47, 48
19, 26
31, 51
459, 633
1998, 2383
1452, 1371
179, 136
14, 25
15, 37
108, 129
310, 346
231, 186
35, 22
4, 32
13, 45
2, 29
5, 6
4, 3
3, 7
11, 7
28, 10
16, 2
3, 2
6, 4
2, 10
4, 8
5, 8
6, 2
6, 7
7, 4
7, 7
4, 3
3, 5
4, 5
5, 3
3, 4
5, 3
10, 4
5, 4
5, 2
4, 4
7, 2
3, 2
4, 0
3, 1
1, 1
0, 4
0, 3
2, 6
2, 6
1, 0
1, 0
3, 5
1, 3
3, 1
3, 4
5, 1
1, 2
2, 1
1, 1
3, 1
4, 3
8, 1
5, 2
2, 1
1, 2
1, 0
2, 2
0, 0
2, 0
1, 3
1, 1
1, 2
1, 1
1, 1
0, 1
3, 1
1, 0
1, 1
1, 1
0, 1
0, 2
0, 2
0, 0
1, 0
0, 0
1, 0
1, 0
1, 0
1, 0
0, 2
0, 1
1, 1
0, 1
0, 0
0, 1
0, 0
0, 1
1, 0
0, 0
1, 0
0, 1
0, 0
1, 0
1, 0
0, 0
0, 0
0, 0
0, 1
0, 0
0, 0
0, 0
0, 1
0, 0
0, 0
1, 0
1, 2
0, 0
0, 0
0, 0
0, 1
0, 0
0, 1
0, 0
0, 0
0, 0
0, 1
0, 0
0, 0
0, 0
0, 0
0, 0
1, 1
0, 0
0, 0
0, 0
0, 0
0, 0
0, 0
0, 0
0, 0
0, 0
0, 0
0, 0
0, 1
0, 0
0, 0
0, 0
0, 0
0, 0
0, 0
1, 0
0, 0
0, 0
0, 0
0, 0
0, 0
0, 0
0, 0
0, 0
0, 0
0, 0
0, 0
0, 0
0, 0
0, 0
0, 0
0, 0
0, 0
0, 0
0, 0
0, 0
0, 0
0, 0
0, 0
0, 0
0, 0
0, 0
0, 0
0, 0
0, 0
0, 0
0, 0
0, 0
0, 0
0, 0
0, 0
0, 0
0, 0
0, 0
0, 0
0, 0
0, 0
0, 0
0, 0
0, 0
0, 0
0, 0
0, 0
0, 0
0, 0
0, 0
0, 0
0, 0
0, 0
0, 0
0, 0
0, 0
0, 0
0, 0
0, 0
0, 0
0, 0
0, 0
0, 0
0, 0
0, 0
0, 0
0, 0
0, 0
0, 0
0, 0
0, 0
0, 0
0, 0
0, 0
0, 0
0, 0
0, 0
0, 0
0, 0
0, 0
0, 0
0, 0
0, 0
0, 0
0, 0
0, 0
0, 0
0, 0
#ENDOFDATA     end of spectrum data

File: ps__0852shot_2455.msa
#FORMAT      : EMSA/MAS spectral data file
#VERSION     : TC202v2.0 PIXL
#TITLE       : N/A
#DATE        :       Date in the format DD-MMM-YYYY, for example 07-JUL-2010
#TIME        :             The time of day at which the spectrum was recorded, in 24-hour format
#OWNER       : PIXL Flight Model       (PIXL will use this to indicate which instrument took the data.)
#NPOINTS     : 4096     Number of data points in the spectrum (This can be zero for configuration only files)
#NCOLUMNS    : 2     Number of data columns in the spectrum (This can be zero for configuration only files)
#XUNITS      : eV
#YUNITS      : COUNTS
#DATATYPE    : YY
#XPERCHAN    : 7.862, 7.881   eV per channel (separate by commas if more than one detector)
#OFFSET      : 18.5, -22.4         eV of first channel  (separate by commas if more than one detector
#SIGNALTYPE  : XRF
#YP_TEMP     : 2.3
#LIVETIME    : 8.57345, 8.55451   seconds (separate by commas if more than one detector)
#REALTIME    : 10, 10.0   seconds (separate by commas if more than one detector)
#SPECTRUM    : start of spectrum data
0, 0
0, 0
0, 0
0, 0
0, 0
0, 0
0, 0
0, 0
0, 0
1, 2
6, 6
54, 45
63, 52
3, 4
4, 3
98, 95
459, 408
122, 97
3, 4
2, 4
12, 12
98, 73
37, 24
18, 12
41, 36
36, 24
8, 13
15, 13
2, 7
2, 2
4, 2
3, 0
5, 9
66, 45
108, 66
19, 19
16, 11
27, 19
3, 7
7, 3
9, 5
13, 8
18, 20
8, 11
3, 7
5, 7
13, 2
7, 6
13, 20
21, 53
15, 32
7, 8
18, 28
44, 37
63, 62
27, 27
42, 52
473, 543
2148, 2134
1559, 1191
214, 124
13, 10
18, 29
102, 120
317, 299
224, 187
39, 19
6, 21
13, 20
11, 13
7, 3
4, 4
5, 1
9, 2
13, 6
7, 6
7, 7
3, 8
6, 5
6, 4
11, 2
8, 4
4, 5
7, 2
4, 1
3, 4
5, 3
3, 5
3, 4
5, 13
2, 4
4, 6
5, 4
5, 0
5, 3
10, 4
5, 1
4, 5
3, 9
2, 7
5, 4
0, 4
2, 3
4, 1
2, 5
2, 3
2, 5
2, 2
0, 1
6, 1
3, 1
3, 2
3, 1
1, 3
4, 2
2, 2
1, 4
2, 1
0, 2
1, 2
2, 0
3, 3
0, 1
1, 1
1, 1
1, 1
1, 1
2, 0
0, 0
1, 3
0, 1
0, 0
1, 1
1, 1
1, 0
1, 1
2, 1
0, 0
2, 1
0, 1
0, 0
0, 1
0, 2
0, 0
0, 0
0, 0
0, 1
0, 2
1, 0
0, 0
0, 0
1, 0
0, 1
1, 1
1, 1
2, 0
1, 1
0, 1
0, 0
3, 0
1, 0
0, 0
1, 1
0, 0
0, 0
0, 0
0, 0
0, 0
0, 1
0, 0
1, 0
0, 0
0, 0
1, 1
0, 0
0, 0
0, 0
0, 0
0, 0
0, 0
0, 0
0, 0
0, 0
0, 0
1, 0
0, 0
0, 0
0, 0
0, 0
0, 0
1, 0
1, 0
0, 0
0, 0
0, 0
0, 0
0, 0
1, 0
0, 0
0, 0
0, 0
0, 0
0, 0
0, 0
0, 0
0, 0
0, 0
0, 0
0, 0
0, 0
0, 0
0, 0
0, 0
0, 0
0, 0
0, 0
0, 0
0, 0
0, 0
1, 0
0, 0
0, 0
0, 0
0, 0
0, 0
0, 0
0, 0
0, 0
0, 0
0, 0
0, 0
0, 0
0, 0
0, 0
0, 0
0, 0
0, 0
0, 0
0, 0
0, 0
0, 0
0, 0
0, 0
0, 0
0, 0
0, 0
0, 0
0, 0
0, 0
0, 0
0, 0
0, 0
0, 0
0, 0
0, 0
0, 0
0, 0
0, 0
0, 0
0, 0
0, 0
0, 0
0, 0
0, 0
0, 0
0, 0
0, 0
0, 0
0, 0
0, 0
0, 0
0, 0
0, 0
0, 0
0, 0
0, 0
0, 0
0, 0
0, 0
0, 0
0, 0
0, 0
0, 0
0, 0
0, 0
0, 0
0, 0
0, 0
0, 0
0, 0
0, 0
0, 0
0, 0
0, 0
#ENDOFDATA     end of spectrum data