Folder: data-repository/host_upload/06-09-2024/ps_0852/dump3 (part 19)

File: ps__0852shot_2164.msa
#FORMAT      : EMSA/MAS spectral data file
#VERSION     : TC202v2.0 PIXL
#TITLE       : N/A
#DATE        :       Date in the format DD-MMM-YYYY, for example 07-JUL-2010
#TIME        :             The time of day at which the spectrum was recorded, in 24-hour format
#OWNER       : PIXL Flight Model       (PIXL will use this to indicate which instrument took the data.)
#NPOINTS     : 4096     Number of data points in the spectrum (This can be zero for configuration only files)
#NCOLUMNS    : 2     Number of data columns in the spectrum (This can be zero for configuration only files)
#XUNITS      : eV
#YUNITS      : COUNTS
#DATATYPE    : YY
#XPERCHAN    : 7.862, 7.881   eV per channel (separate by commas if more than one detector)
#OFFSET      : 18.5, -22.4         eV of first channel  (separate by commas if more than one detector
#SIGNALTYPE  : XRF
#YP_TEMP     : 2.3
#LIVETIME    : 8.54972, 8.55267   seconds (separate by commas if more than one detector)
#REALTIME    : 10, 10.0   seconds (separate by commas if more than one detector)
#SPECTRUM    : start of spectrum data
0, 0
0, 0
0, 0
0, 0
0, 0
0, 0
0, 0
0, 0
1, 2
0, 1
4, 4
29, 47
53, 60
6, 7
1, 4
65, 84
314, 347
61, 91
7, 5
7, 5
57, 58
289, 296
140, 140
21, 33
82, 82
39, 42
24, 37
10, 18
3, 11
0, 7
13, 17
5, 10
2, 2
24, 25
43, 41
9, 5
6, 12
4, 9
10, 4
2, 3
5, 7
5, 13
12, 13
9, 13
6, 5
9, 17
7, 17
4, 7
7, 16
19, 18
36, 28
22, 6
30, 15
88, 44
88, 49
32, 17
13, 49
376, 603
1916, 2368
1383, 1473
190, 162
19, 14
24, 19
92, 131
311, 310
203, 193
27, 29
6, 15
18, 10
31, 4
26, 3
12, 5
5, 4
5, 5
4, 1
2, 7
8, 5
4, 6
4, 7
2, 8
3, 5
3, 5
4, 4
4, 1
5, 7
4, 7
7, 8
5, 4
6, 6
4, 6
2, 8
6, 11
3, 2
5, 3
4, 10
5, 5
4, 7
2, 5
0, 2
5, 3
3, 1
5, 3
5, 1
0, 1
2, 3
4, 3
2, 2
0, 2
4, 4
0, 2
1, 2
2, 2
2, 1
3, 0
3, 0
4, 7
3, 6
1, 3
2, 0
0, 1
0, 1
2, 1
0, 5
1, 5
1, 1
2, 0
0, 7
1, 0
4, 0
2, 4
2, 0
0, 0
0, 1
0, 0
0, 1
1, 1
1, 1
1, 0
0, 0
1, 0
1, 3
0, 1
1, 0
0, 2
2, 1
1, 0
0, 0
1, 1
0, 0
0, 0
0, 0
0, 0
3, 0
0, 0
0, 0
1, 0
0, 0
0, 1
0, 0
1, 0
0, 0
1, 0
0, 0
0, 0
0, 0
0, 1
0, 0
0, 0
0, 0
0, 0
0, 0
1, 0
0, 0
0, 0
0, 0
1, 0
0, 0
0, 1
0, 0
1, 0
0, 0
0, 0
0, 0
0, 0
0, 1
0, 0
0, 0
0, 0
0, 0
0, 1
0, 1
0, 0
0, 0
0, 0
0, 0
0, 0
0, 0
0, 0
1, 0
0, 0
0, 0
0, 0
0, 0
1, 0
0, 0
0, 0
0, 0
0, 0
0, 0
0, 0
0, 0
0, 0
0, 0
0, 0
0, 0
0, 0
0, 0
0, 0
0, 0
0, 0
0, 0
0, 0
0, 0
0, 0
0, 0
0, 0
0, 0
0, 0
0, 0
0, 0
0, 0
0, 0
0, 0
0, 0
0, 0
0, 0
0, 0
0, 0
0, 0
0, 0
0, 0
0, 0
0, 0
0, 0
0, 0
0, 0
0, 0
0, 0
0, 0
0, 0
0, 0
0, 0
0, 0
0, 0
0, 0
0, 0
0, 0
0, 0
0, 0
0, 0
0, 0
0, 0
0, 0
0, 0
0, 0
0, 0
0, 0
0, 0
0, 0
0, 0
0, 0
0, 0
0, 0
0, 0
0, 0
0, 0
0, 0
0, 0
0, 0
0, 0
0, 0
0, 0
0, 0
0, 0
0, 0
0, 0
0, 0
0, 0
0, 0
0, 0
0, 0
0, 0
0, 0
0, 0
#ENDOFDATA     end of spectrum data

File: ps__0852shot_2165.msa
#FORMAT      : EMSA/MAS spectral data file
#VERSION     : TC202v2.0 PIXL
#TITLE       : N/A
#DATE        :       Date in the format DD-MMM-YYYY, for example 07-JUL-2010
#TIME        :             The time of day at which the spectrum was recorded, in 24-hour format
#OWNER       : PIXL Flight Model       (PIXL will use this to indicate which instrument took the data.)
#NPOINTS     : 4096     Number of data points in the spectrum (This can be zero for configuration only files)
#NCOLUMNS    : 2     Number of data columns in the spectrum (This can be zero for configuration only files)
#XUNITS      : eV
#YUNITS      : COUNTS
#DATATYPE    : YY
#XPERCHAN    : 7.862, 7.881   eV per channel (separate by commas if more than one detector)
#OFFSET      : 18.5, -22.4         eV of first channel  (separate by commas if more than one detector
#SIGNALTYPE  : XRF
#YP_TEMP     : 2.3
#LIVETIME    : 8.57271, 8.37379   seconds (separate by commas if more than one detector)
#REALTIME    : 10, 10.0   seconds (separate by commas if more than one detector)
#SPECTRUM    : start of spectrum data
0, 0
0, 0
0, 0
0, 0
0, 0
0, 0
0, 0
0, 1
0, 1
2, 4
3, 2
51, 51
52, 66
9, 8
1, 5
73, 104
354, 405
82, 88
5, 5
6, 5
55, 63
288, 357
143, 141
48, 29
67, 73
43, 55
18, 30
17, 21
8, 8
5, 3
8, 11
7, 13
4, 5
26, 49
49, 64
20, 9
4, 8
17, 11
16, 7
15, 6
3, 4
12, 11
17, 16
10, 9
7, 6
8, 9
7, 8
6, 11
7, 12
23, 32
22, 11
7, 5
42, 10
73, 43
91, 56
32, 24
27, 42
384, 545
1782, 2122
1381, 1262
188, 128
19, 15
18, 17
78, 109
304, 297
174, 206
35, 34
11, 16
19, 25
11, 4
4, 4
1, 3
3, 4
5, 5
5, 8
8, 9
13, 5
9, 3
1, 4
2, 3
5, 1
0, 6
4, 7
8, 8
8, 7
3, 6
6, 4
2, 8
1, 4
8, 4
5, 5
5, 2
5, 5
2, 8
2, 3
2, 3
1, 6
4, 5
2, 2
1, 0
3, 2
3, 5
2, 1
3, 2
3, 2
3, 1
3, 4
3, 1
3, 1
1, 3
2, 2
4, 0
2, 3
1, 2
4, 3
1, 4
3, 5
1, 2
3, 2
1, 2
3, 0
2, 0
3, 1
1, 3
0, 2
0, 0
3, 2
1, 2
0, 0
1, 2
3, 0
0, 1
0, 1
1, 1
3, 2
1, 1
1, 1
1, 1
0, 1
1, 0
0, 2
1, 0
0, 1
1, 0
1, 0
1, 1
1, 0
1, 1
0, 1
0, 0
0, 0
1, 0
1, 0
1, 1
1, 0
0, 0
0, 1
0, 2
0, 0
0, 0
1, 0
0, 0
0, 1
0, 0
0, 1
0, 0
0, 0
0, 1
1, 0
0, 0
0, 0
1, 0
0, 0
1, 0
0, 0
0, 0
0, 0
0, 0
0, 0
0, 0
0, 0
1, 0
0, 1
0, 0
0, 0
0, 0
0, 0
0, 0
0, 0
0, 0
0, 0
0, 0
0, 0
0, 0
0, 0
0, 0
0, 0
0, 0
0, 0
0, 0
0, 0
0, 0
0, 0
0, 0
0, 0
0, 0
0, 0
0, 0
0, 0
0, 0
1, 0
0, 0
0, 0
0, 0
0, 0
0, 0
0, 0
0, 0
0, 0
0, 0
0, 0
0, 0
0, 0
0, 0
0, 0
0, 0
0, 0
0, 0
0, 0
0, 0
0, 0
0, 0
0, 0
0, 0
0, 0
0, 0
0, 0
0, 0
0, 0
0, 0
0, 0
0, 0
0, 0
0, 0
0, 0
0, 0
0, 0
0, 0
0, 0
0, 0
0, 0
0, 0
0, 0
0, 0
0, 0
0, 0
0, 0
0, 0
0, 0
0, 0
0, 0
0, 0
0, 0
0, 0
0, 0
0, 0
0, 0
0, 0
0, 0
0, 0
0, 0
0, 0
0, 0
0, 0
0, 0
0, 0
0, 0
0, 0
0, 0
0, 0
0, 0
0, 0
0, 0
0, 0
0, 0
0, 0
0, 0
0, 0
0, 0
0, 0
0, 0
0, 0
0, 0
0, 0
#ENDOFDATA     end of spectrum data

File: ps__0852shot_2166.msa
#FORMAT      : EMSA/MAS spectral data file
#VERSION     : TC202v2.0 PIXL
#TITLE       : N/A
#DATE        :       Date in the format DD-MMM-YYYY, for example 07-JUL-2010
#TIME        :             The time of day at which the spectrum was recorded, in 24-hour format
#OWNER       : PIXL Flight Model       (PIXL will use this to indicate which instrument took the data.)
#NPOINTS     : 4096     Number of data points in the spectrum (This can be zero for configuration only files)
#NCOLUMNS    : 2     Number of data columns in the spectrum (This can be zero for configuration only files)
#XUNITS      : eV
#YUNITS      : COUNTS
#DATATYPE    : YY
#XPERCHAN    : 7.862, 7.881   eV per channel (separate by commas if more than one detector)
#OFFSET      : 18.5, -22.4         eV of first channel  (separate by commas if more than one detector
#SIGNALTYPE  : XRF
#YP_TEMP     : 2.492
#LIVETIME    : 8.56081, 8.56477   seconds (separate by commas if more than one detector)
#REALTIME    : 10, 10.0   seconds (separate by commas if more than one detector)
#SPECTRUM    : start of spectrum data
0, 0
0, 0
0, 0
0, 0
0, 0
0, 0
0, 0
0, 0
1, 0
1, 2
2, 4
25, 46
58, 55
5, 3
7, 9
99, 111
502, 521
111, 124
7, 10
3, 3
9, 10
55, 51
10, 20
7, 10
35, 39
39, 27
15, 22
13, 14
7, 5
1, 1
1, 4
1, 10
7, 13
126, 144
194, 196
51, 36
28, 33
34, 31
13, 8
3, 0
5, 7
8, 15
11, 19
7, 11
9, 5
9, 9
0, 8
5, 20
6, 24
29, 26
41, 19
20, 3
8, 8
62, 29
123, 63
47, 16
30, 27
338, 492
1631, 1880
1228, 1084
150, 140
11, 16
10, 15
78, 98
236, 296
215, 166
52, 26
10, 12
10, 12
12, 2
4, 1
1, 3
2, 8
3, 5
9, 5
7, 1
11, 3
10, 3
7, 5
3, 3
2, 4
6, 6
4, 3
3, 6
5, 7
5, 7
3, 0
6, 2
5, 2
4, 1
7, 1
6, 3
5, 4
1, 6
3, 5
0, 5
1, 1
1, 1
4, 6
2, 6
1, 6
2, 5
2, 3
3, 2
3, 2
1, 2
2, 4
4, 1
11, 3
5, 3
4, 3
2, 1
2, 4
3, 1
1, 4
2, 5
5, 5
1, 2
2, 2
0, 2
1, 0
1, 0
1, 2
2, 1
1, 3
2, 3
3, 3
2, 0
1, 1
4, 2
0, 0
0, 0
1, 2
2, 0
0, 0
2, 1
0, 2
1, 2
1, 0
1, 0
2, 0
0, 0
1, 0
1, 0
1, 1
0, 0
1, 1
0, 0
2, 0
1, 0
0, 0
1, 0
1, 2
0, 1
0, 0
0, 1
0, 0
1, 0
0, 0
0, 0
0, 0
0, 0
0, 0
0, 0
1, 0
0, 1
0, 0
0, 0
0, 0
0, 0
0, 0
0, 0
0, 0
1, 1
0, 0
1, 0
0, 0
0, 0
0, 0
0, 0
0, 0
0, 0
0, 1
0, 0
0, 0
0, 0
0, 0
0, 0
0, 0
0, 0
0, 0
0, 0
0, 0
0, 0
1, 0
0, 0
0, 0
0, 0
0, 0
0, 0
0, 0
0, 0
0, 0
0, 0
0, 0
0, 0
0, 0
0, 0
0, 0
0, 0
0, 0
0, 0
0, 0
0, 0
0, 0
0, 0
0, 0
0, 0
0, 0
0, 0
0, 0
0, 0
0, 0
0, 0
0, 0
0, 0
0, 0
0, 0
0, 0
0, 0
0, 0
0, 0
0, 0
0, 0
0, 0
0, 0
0, 0
0, 0
0, 0
0, 0
0, 0
0, 0
0, 0
0, 0
0, 0
0, 0
0, 0
0, 0
0, 0
0, 0
0, 0
0, 0
0, 0
0, 0
0, 0
0, 0
0, 0
0, 0
0, 0
0, 0
0, 0
0, 0
0, 0
0, 0
0, 0
0, 0
0, 0
0, 0
0, 0
0, 0
0, 0
0, 0
0, 0
0, 0
0, 0
0, 0
0, 0
0, 0
0, 0
0, 0
0, 0
0, 0
0, 0
0, 0
0, 0
0, 0
0, 0
0, 0
0, 0
0, 0
0, 0
0, 0
0, 0
0, 0
#ENDOFDATA     end of spectrum data

File: ps__0852shot_2167.msa
#FORMAT      : EMSA/MAS spectral data file
#VERSION     : TC202v2.0 PIXL
#TITLE       : N/A
#DATE        :       Date in the format DD-MMM-YYYY, for example 07-JUL-2010
#TIME        :             The time of day at which the spectrum was recorded, in 24-hour format
#OWNER       : PIXL Flight Model       (PIXL will use this to indicate which instrument took the data.)
#NPOINTS     : 4096     Number of data points in the spectrum (This can be zero for configuration only files)
#NCOLUMNS    : 2     Number of data columns in the spectrum (This can be zero for configuration only files)
#XUNITS      : eV
#YUNITS      : COUNTS
#DATATYPE    : YY
#XPERCHAN    : 7.862, 7.881   eV per channel (separate by commas if more than one detector)
#OFFSET      : 18.5, -22.4         eV of first channel  (separate by commas if more than one detector
#SIGNALTYPE  : XRF
#YP_TEMP     : 2.652
#LIVETIME    : 8.55061, 8.5729   seconds (separate by commas if more than one detector)
#REALTIME    : 10, 10.0   seconds (separate by commas if more than one detector)
#SPECTRUM    : start of spectrum data
0, 0
0, 0
0, 0
0, 0
0, 0
0, 0
0, 0
0, 0
1, 0
2, 0
2, 4
57, 57
67, 57
11, 9
3, 7
102, 116
434, 420
115, 99
8, 6
0, 2
2, 0
3, 2
5, 3
13, 2
16, 19
25, 19
16, 18
10, 10
3, 1
1, 0
2, 2
1, 2
4, 5
26, 37
45, 50
15, 8
5, 5
5, 10
3, 3
2, 2
3, 1
7, 11
11, 19
6, 6
6, 4
7, 4
8, 6
2, 6
7, 11
36, 13
104, 11
42, 9
11, 7
52, 55
107, 60
40, 15
34, 34
448, 587
2078, 2258
1638, 1343
206, 141
11, 11
16, 29
96, 124
316, 339
217, 194
27, 24
8, 5
17, 10
7, 7
3, 5
0, 8
6, 11
7, 0
10, 8
7, 7
10, 3
5, 4
4, 3
7, 4
16, 0
26, 6
18, 9
6, 3
6, 6
5, 3
3, 7
3, 4
3, 6
0, 4
3, 3
2, 3
2, 1
1, 4
4, 4
2, 3
0, 2
2, 2
1, 3
6, 1
9, 0
3, 3
3, 3
3, 3
3, 0
1, 1
1, 2
3, 1
3, 1
3, 2
5, 3
1, 1
0, 6
1, 2
2, 1
2, 1
3, 3
5, 4
3, 2
0, 0
2, 0
1, 1
0, 1
2, 2
1, 3
1, 0
0, 2
1, 1
0, 1
0, 1
1, 2
1, 3
1, 0
1, 0
0, 1
1, 1
1, 0
0, 1
1, 1
2, 1
3, 0
0, 1
1, 0
2, 1
2, 0
1, 0
2, 1
1, 2
1, 0
1, 1
0, 1
1, 1
0, 0
0, 1
0, 1
0, 0
1, 0
0, 0
0, 0
0, 0
0, 0
0, 0
0, 1
0, 0
0, 0
1, 0
0, 0
2, 0
0, 2
0, 0
0, 0
0, 1
0, 0
0, 1
0, 0
0, 0
0, 0
0, 1
0, 0
0, 0
0, 0
0, 0
1, 0
0, 0
0, 1
0, 0
0, 0
0, 0
0, 0
0, 0
0, 1
0, 0
0, 0
0, 0
0, 0
0, 0
0, 0
0, 0
0, 0
0, 0
0, 0
0, 0
0, 0
0, 0
0, 0
0, 0
1, 0
0, 0
0, 0
0, 0
0, 0
0, 0
0, 0
0, 0
0, 0
0, 0
0, 0
0, 0
0, 0
0, 0
0, 0
0, 0
0, 0
0, 0
0, 0
0, 0
0, 0
0, 0
0, 0
0, 0
0, 0
0, 0
0, 0
0, 0
0, 0
0, 0
0, 0
0, 0
0, 0
0, 0
0, 0
0, 0
0, 0
0, 0
0, 0
0, 0
0, 0
0, 0
0, 0
0, 0
0, 0
0, 0
0, 0
0, 0
0, 0
0, 0
0, 0
0, 0
0, 0
0, 0
0, 0
0, 0
0, 0
0, 0
0, 0
0, 0
0, 0
0, 0
0, 0
0, 0
0, 0
0, 0
0, 0
0, 0
0, 0
0, 0
0, 0
0, 0
0, 0
0, 0
0, 0
0, 0
0, 0
0, 0
0, 0
0, 0
0, 0
0, 0
0, 0
0, 0
0, 0
0, 0
0, 0
0, 0
#ENDOFDATA     end of spectrum data

File: ps__0852shot_2168.msa
#FORMAT      : EMSA/MAS spectral data file
#VERSION     : TC202v2.0 PIXL
#TITLE       : N/A
#DATE        :       Date in the format DD-MMM-YYYY, for example 07-JUL-2010
#TIME        :             The time of day at which the spectrum was recorded, in 24-hour format
#OWNER       : PIXL Flight Model       (PIXL will use this to indicate which instrument took the data.)
#NPOINTS     : 4096     Number of data points in the spectrum (This can be zero for configuration only files)
#NCOLUMNS    : 2     Number of data columns in the spectrum (This can be zero for configuration only files)
#XUNITS      : eV
#YUNITS      : COUNTS
#DATATYPE    : YY
#XPERCHAN    : 7.862, 7.881   eV per channel (separate by commas if more than one detector)
#OFFSET      : 18.5, -22.4         eV of first channel  (separate by commas if more than one detector
#SIGNALTYPE  : XRF
#YP_TEMP     : 2.203
#LIVETIME    : 8.57006, 8.57997   seconds (separate by commas if more than one detector)
#REALTIME    : 10, 10.0   seconds (separate by commas if more than one detector)
#SPECTRUM    : start of spectrum data
0, 0
0, 0
0, 0
0, 0
0, 0
0, 0
0, 0
0, 0
0, 0
0, 2
4, 1
43, 56
65, 50
4, 4
5, 4
84, 101
383, 473
113, 97
0, 2
2, 1
0, 0
1, 1
4, 1
9, 5
11, 23
26, 25
11, 12
11, 13
9, 3
4, 3
3, 2
5, 0
1, 3
9, 12
12, 12
3, 6
3, 4
5, 5
3, 6
1, 2
2, 3
9, 10
19, 9
10, 9
5, 6
7, 9
5, 1
1, 7
3, 8
49, 7
132, 14
33, 5
11, 11
55, 45
93, 63
51, 21
28, 36
465, 608
2020, 2352
1586, 1483
184, 165
19, 7
16, 15
112, 131
313, 355
232, 201
36, 15
8, 10
17, 16
15, 10
2, 10
3, 11
9, 11
8, 1
4, 5
4, 5
10, 1
4, 5
2, 5
15, 3
11, 1
25, 2
16, 9
5, 11
4, 5
3, 1
5, 2
3, 4
2, 3
2, 4
3, 3
1, 0
4, 2
2, 2
3, 3
0, 2
4, 3
3, 4
2, 3
4, 2
5, 2
1, 3
2, 0
3, 1
1, 2
5, 1
2, 3
1, 5
1, 3
0, 4
0, 1
3, 1
2, 4
2, 3
0, 2
5, 2
4, 2
4, 4
3, 2
0, 2
1, 1
1, 0
6, 2
0, 0
1, 5
1, 0
1, 1
0, 0
0, 0
2, 1
0, 1
2, 1
1, 1
1, 2
1, 0
0, 0
0, 1
0, 0
0, 1
2, 0
0, 2
1, 2
0, 0
0, 1
1, 2
0, 1
2, 0
0, 2
1, 0
1, 1
1, 0
1, 1
1, 0
0, 1
0, 0
1, 0
1, 0
0, 1
0, 0
0, 0
0, 0
0, 1
1, 1
1, 0
0, 1
0, 0
0, 0
2, 0
0, 0
0, 0
0, 0
0, 0
0, 0
0, 0
0, 0
0, 0
0, 0
2, 1
0, 0
0, 0
1, 0
0, 0
0, 0
0, 0
0, 1
0, 0
0, 0
0, 0
0, 0
0, 0
0, 0
0, 0
0, 0
0, 1
0, 0
0, 0
0, 0
0, 0
0, 0
0, 0
0, 0
0, 0
0, 0
0, 0
0, 0
0, 0
0, 0
0, 0
0, 0
0, 0
0, 0
0, 0
0, 0
0, 0
0, 0
0, 0
0, 0
0, 0
0, 0
0, 0
0, 0
0, 0
0, 0
0, 0
0, 0
0, 0
0, 0
0, 0
0, 0
0, 0
0, 0
0, 0
0, 0
0, 0
0, 0
0, 0
0, 0
0, 0
0, 0
0, 0
0, 0
0, 0
0, 0
0, 0
0, 0
0, 0
0, 0
0, 0
0, 0
0, 0
0, 0
0, 0
0, 0
0, 0
0, 0
0, 0
0, 0
0, 0
0, 0
0, 0
0, 0
0, 0
0, 0
0, 0
0, 0
0, 0
0, 0
0, 0
0, 0
0, 0
0, 0
0, 0
0, 0
0, 0
0, 0
0, 0
0, 0
0, 0
0, 0
0, 0
0, 0
0, 0
0, 0
0, 0
0, 0
0, 0
0, 0
0, 0
0, 0
0, 0
0, 0
0, 0
0, 0
0, 0
#ENDOFDATA     end of spectrum data

File: ps__0852shot_2169.msa
#FORMAT      : EMSA/MAS spectral data file
#VERSION     : TC202v2.0 PIXL
#TITLE       : N/A
#DATE        :       Date in the format DD-MMM-YYYY, for example 07-JUL-2010
#TIME        :             The time of day at which the spectrum was recorded, in 24-hour format
#OWNER       : PIXL Flight Model       (PIXL will use this to indicate which instrument took the data.)
#NPOINTS     : 4096     Number of data points in the spectrum (This can be zero for configuration only files)
#NCOLUMNS    : 2     Number of data columns in the spectrum (This can be zero for configuration only files)
#XUNITS      : eV
#YUNITS      : COUNTS
#DATATYPE    : YY
#XPERCHAN    : 7.862, 7.881   eV per channel (separate by commas if more than one detector)
#OFFSET      : 18.5, -22.4         eV of first channel  (separate by commas if more than one detector
#SIGNALTYPE  : XRF
#YP_TEMP     : 2.3
#LIVETIME    : 8.54761, 8.5509   seconds (separate by commas if more than one detector)
#REALTIME    : 10, 10.0   seconds (separate by commas if more than one detector)
#SPECTRUM    : start of spectrum data
0, 0
0, 0
0, 0
0, 0
0, 0
0, 0
0, 0
0, 0
0, 0
1, 1
2, 4
51, 51
65, 65
6, 5
1, 10
94, 101
404, 468
102, 98
7, 7
1, 1
1, 5
8, 10
3, 2
1, 3
21, 19
21, 28
14, 8
7, 3
6, 1
1, 2
0, 4
3, 1
3, 4
11, 8
14, 14
4, 1
2, 0
1, 5
2, 1
5, 2
0, 7
7, 10
14, 14
9, 8
3, 5
5, 9
7, 2
3, 8
9, 11
52, 15
102, 15
31, 10
16, 12
48, 40
89, 51
31, 22
20, 34
397, 599
2011, 2322
1496, 1411
185, 171
11, 10
20, 24
94, 123
294, 359
245, 185
24, 20
2, 5
10, 11
9, 8
2, 5
7, 11
4, 9
10, 7
10, 4
5, 4
6, 3
6, 4
11, 4
8, 9
11, 3
27, 6
13, 10
4, 11
3, 5
3, 2
4, 2
3, 2
5, 2
4, 7
2, 1
3, 3
2, 1
2, 2
2, 3
3, 2
4, 1
4, 1
2, 3
7, 2
7, 4
3, 3
6, 1
1, 2
1, 4
1, 1
0, 2
0, 5
2, 4
0, 2
0, 3
1, 5
0, 2
4, 1
1, 2
3, 3
5, 3
3, 5
2, 0
0, 2
1, 1
2, 1
1, 3
1, 3
0, 1
0, 0
0, 0
0, 0
2, 1
1, 1
0, 1
0, 1
0, 0
0, 0
2, 1
1, 1
0, 0
1, 1
1, 1
1, 1
1, 0
0, 0
0, 0
0, 1
1, 0
0, 1
1, 0
1, 0
0, 1
0, 0
0, 0
0, 0
0, 0
0, 0
1, 0
0, 0
0, 0
0, 0
0, 1
0, 1
1, 0
0, 0
0, 1
0, 1
0, 1
0, 0
0, 2
0, 0
0, 0
0, 0
0, 0
1, 1
0, 0
0, 1
0, 0
0, 0
0, 0
0, 0
0, 0
0, 0
0, 0
0, 0
0, 0
0, 1
1, 1
0, 0
1, 0
1, 0
0, 0
1, 0
0, 0
0, 0
0, 0
0, 0
0, 0
0, 0
0, 0
0, 0
1, 0
0, 0
0, 0
0, 0
0, 0
0, 0
0, 0
0, 0
0, 0
0, 0
0, 0
0, 0
0, 0
0, 0
0, 0
0, 0
0, 0
0, 0
0, 0
0, 0
0, 0
0, 0
0, 0
0, 1
0, 0
0, 0
0, 0
0, 0
0, 0
0, 0
0, 0
0, 0
0, 0
0, 0
0, 0
0, 0
0, 0
0, 0
0, 0
0, 0
0, 0
0, 0
0, 0
0, 0
0, 0
0, 0
0, 0
0, 0
0, 0
0, 0
0, 0
0, 0
0, 0
0, 0
0, 0
0, 0
0, 0
0, 0
0, 0
0, 0
0, 0
0, 0
0, 0
0, 0
0, 0
0, 0
0, 0
0, 0
0, 0
0, 0
0, 0
0, 0
0, 0
0, 0
0, 0
0, 0
0, 0
0, 0
0, 0
0, 0
0, 0
0, 0
0, 0
0, 0
0, 0
0, 0
0, 0
0, 0
0, 0
0, 0
0, 0
0, 0
0, 0
0, 0
0, 0
0, 0
#ENDOFDATA     end of spectrum data

File: ps__0852shot_2170.msa
#FORMAT      : EMSA/MAS spectral data file
#VERSION     : TC202v2.0 PIXL
#TITLE       : N/A
#DATE        :       Date in the format DD-MMM-YYYY, for example 07-JUL-2010
#TIME        :             The time of day at which the spectrum was recorded, in 24-hour format
#OWNER       : PIXL Flight Model       (PIXL will use this to indicate which instrument took the data.)
#NPOINTS     : 4096     Number of data points in the spectrum (This can be zero for configuration only files)
#NCOLUMNS    : 2     Number of data columns in the spectrum (This can be zero for configuration only files)
#XUNITS      : eV
#YUNITS      : COUNTS
#DATATYPE    : YY
#XPERCHAN    : 7.862, 7.881   eV per channel (separate by commas if more than one detector)
#OFFSET      : 18.5, -22.4         eV of first channel  (separate by commas if more than one detector
#SIGNALTYPE  : XRF
#YP_TEMP     : 2.428
#LIVETIME    : 8.5592, 8.55054   seconds (separate by commas if more than one detector)
#REALTIME    : 10, 10.0   seconds (separate by commas if more than one detector)
#SPECTRUM    : start of spectrum data
0, 0
0, 0
0, 0
0, 0
0, 0
0, 0
0, 0
0, 0
1, 0
2, 0
2, 4
36, 37
74, 66
2, 7
3, 7
79, 87
346, 371
103, 70
5, 7
0, 4
27, 49
138, 240
58, 82
6, 22
26, 41
29, 37
18, 18
14, 16
4, 8
1, 1
3, 1
4, 0
6, 6
14, 37
28, 64
7, 27
8, 29
4, 14
5, 7
2, 4
6, 4
8, 10
12, 12
10, 11
3, 5
6, 10
3, 18
4, 8
8, 14
35, 26
71, 23
35, 10
10, 9
48, 47
85, 53
41, 17
26, 34
409, 594
2022, 2152
1420, 1341
206, 145
13, 22
17, 18
120, 101
310, 379
190, 187
33, 27
6, 6
5, 16
9, 5
1, 1
3, 8
11, 8
6, 7
4, 5
2, 4
8, 3
3, 4
1, 4
5, 6
11, 4
17, 5
12, 7
6, 6
6, 3
7, 7
4, 4
4, 5
5, 4
1, 4
2, 4
5, 2
3, 8
2, 7
0, 2
2, 2
4, 0
2, 5
2, 2
9, 2
6, 2
8, 1
2, 2
3, 2
2, 0
1, 3
1, 2
3, 2
0, 5
3, 2
3, 2
4, 6
0, 1
3, 6
2, 1
3, 2
5, 4
5, 5
4, 2
0, 1
2, 0
2, 2
1, 2
3, 1
1, 2
0, 0
1, 1
2, 0
1, 0
1, 2
0, 2
1, 0
2, 0
0, 0
1, 2
1, 2
1, 1
2, 1
0, 0
0, 1
1, 0
1, 1
1, 0
0, 1
1, 0
2, 1
0, 0
1, 1
0, 2
0, 0
0, 1
0, 0
2, 0
0, 0
0, 0
0, 0
0, 0
0, 1
0, 0
0, 0
1, 0
0, 1
0, 0
2, 0
1, 0
0, 0
0, 0
0, 0
0, 0
0, 1
1, 0
1, 0
0, 2
0, 0
0, 3
0, 0
0, 0
0, 0
0, 0
0, 0
0, 1
0, 0
0, 0
0, 0
0, 0
1, 0
0, 0
0, 0
0, 0
0, 0
0, 0
0, 0
0, 0
0, 0
0, 0
0, 1
0, 0
0, 0
0, 0
0, 0
0, 0
0, 0
1, 0
0, 0
0, 0
0, 0
0, 0
0, 0
0, 0
0, 0
0, 0
0, 0
0, 0
0, 0
0, 0
0, 0
0, 0
0, 0
0, 0
0, 0
0, 0
0, 0
0, 0
0, 0
0, 0
0, 0
0, 0
0, 0
0, 0
0, 0
0, 0
0, 0
0, 0
0, 0
0, 0
0, 0
0, 0
0, 0
0, 0
0, 0
0, 0
0, 0
0, 0
0, 0
0, 0
0, 0
0, 0
0, 0
0, 0
0, 0
0, 0
0, 0
0, 0
0, 0
0, 0
0, 0
0, 0
0, 0
0, 0
0, 0
0, 0
0, 0
0, 0
0, 0
0, 0
0, 0
0, 0
0, 0
0, 0
0, 0
0, 0
0, 0
0, 0
0, 0
0, 0
0, 0
0, 0
0, 0
0, 0
0, 0
0, 0
0, 0
0, 0
0, 0
0, 0
0, 0
0, 0
0, 0
0, 0
0, 0
0, 0
0, 0
0, 0
0, 0
#ENDOFDATA     end of spectrum data

File: ps__0852shot_2171.msa
#FORMAT      : EMSA/MAS spectral data file
#VERSION     : TC202v2.0 PIXL
#TITLE       : N/A
#DATE        :       Date in the format DD-MMM-YYYY, for example 07-JUL-2010
#TIME        :             The time of day at which the spectrum was recorded, in 24-hour format
#OWNER       : PIXL Flight Model       (PIXL will use this to indicate which instrument took the data.)
#NPOINTS     : 4096     Number of data points in the spectrum (This can be zero for configuration only files)
#NCOLUMNS    : 2     Number of data columns in the spectrum (This can be zero for configuration only files)
#XUNITS      : eV
#YUNITS      : COUNTS
#DATATYPE    : YY
#XPERCHAN    : 7.862, 7.881   eV per channel (separate by commas if more than one detector)
#OFFSET      : 18.5, -22.4         eV of first channel  (separate by commas if more than one detector
#SIGNALTYPE  : XRF
#YP_TEMP     : 2.332
#LIVETIME    : 8.55655, 8.55279   seconds (separate by commas if more than one detector)
#REALTIME    : 10, 10.0   seconds (separate by commas if more than one detector)
#SPECTRUM    : start of spectrum data
0, 0
0, 0
0, 0
0, 0
0, 0
0, 0
0, 0
1, 0
1, 0
1, 0
0, 3
30, 49
38, 66
5, 8
3, 5
70, 102
347, 466
94, 94
1, 7
1, 2
25, 45
128, 273
63, 107
19, 29
44, 73
42, 39
15, 24
14, 9
10, 5
2, 5
2, 6
2, 5
4, 6
37, 85
67, 120
9, 83
4, 74
12, 29
4, 3
4, 3
18, 7
35, 17
27, 17
6, 9
4, 13
9, 11
6, 30
5, 11
9, 14
23, 47
24, 39
9, 60
13, 49
41, 43
43, 65
24, 21
28, 38
345, 530
1574, 2120
1200, 1288
143, 168
16, 10
29, 21
97, 132
242, 324
147, 181
27, 14
10, 10
14, 11
5, 9
4, 8
4, 11
4, 4
7, 3
2, 9
3, 9
6, 8
4, 3
8, 3
11, 4
4, 2
1, 4
0, 3
5, 7
6, 8
4, 7
13, 16
9, 12
10, 0
2, 2
3, 9
1, 6
2, 4
1, 1
2, 2
3, 2
4, 2
5, 1
1, 1
4, 1
3, 1
2, 3
2, 3
2, 5
4, 3
1, 4
1, 0
1, 8
3, 8
1, 6
2, 2
1, 1
1, 0
1, 1
1, 3
5, 3
1, 5
2, 4
2, 2
4, 0
1, 0
2, 2
0, 3
0, 5
2, 1
1, 2
0, 3
0, 0
1, 2
2, 2
1, 1
1, 1
0, 0
1, 1
1, 2
2, 1
2, 2
0, 1
0, 2
1, 0
0, 1
1, 1
0, 0
0, 1
1, 1
2, 1
1, 1
0, 0
0, 1
0, 0
1, 1
1, 0
1, 0
1, 1
0, 0
2, 0
0, 0
0, 1
1, 0
0, 0
0, 0
1, 0
1, 0
0, 0
0, 0
0, 0
1, 0
1, 0
1, 0
0, 0
0, 1
0, 0
0, 0
0, 0
0, 0
0, 0
0, 0
0, 0
0, 0
0, 0
0, 0
0, 0
1, 0
1, 0
0, 0
0, 0
1, 0
0, 1
1, 0
0, 1
0, 0
0, 0
0, 0
0, 0
0, 0
0, 0
0, 0
0, 0
0, 0
0, 0
1, 0
0, 0
0, 0
0, 0
0, 0
0, 0
0, 0
0, 0
0, 0
0, 0
0, 0
0, 1
0, 1
0, 0
0, 0
0, 0
0, 0
0, 0
0, 0
0, 0
0, 0
0, 0
0, 0
0, 0
0, 0
0, 0
0, 0
0, 0
0, 0
0, 0
0, 0
0, 0
0, 0
0, 0
0, 0
0, 0
0, 0
0, 0
0, 0
0, 0
0, 0
0, 0
0, 0
0, 0
0, 0
0, 0
0, 0
0, 0
0, 0
0, 0
0, 0
0, 0
0, 0
0, 0
0, 0
0, 0
0, 0
0, 0
0, 0
0, 0
0, 0
0, 0
0, 0
0, 0
0, 0
0, 0
0, 0
0, 0
0, 0
0, 0
0, 0
0, 0
0, 0
0, 0
0, 0
0, 0
0, 0
0, 0
0, 0
0, 0
0, 0
0, 0
0, 0
0, 0
0, 0
0, 0
0, 0
0, 0
0, 0
0, 0
0, 0
0, 0
0, 0
0, 0
#ENDOFDATA     end of spectrum data

File: ps__0852shot_2172.msa
#FORMAT      : EMSA/MAS spectral data file
#VERSION     : TC202v2.0 PIXL
#TITLE       : N/A
#DATE        :       Date in the format DD-MMM-YYYY, for example 07-JUL-2010
#TIME        :             The time of day at which the spectrum was recorded, in 24-hour format
#OWNER       : PIXL Flight Model       (PIXL will use this to indicate which instrument took the data.)
#NPOINTS     : 4096     Number of data points in the spectrum (This can be zero for configuration only files)
#NCOLUMNS    : 2     Number of data columns in the spectrum (This can be zero for configuration only files)
#XUNITS      : eV
#YUNITS      : COUNTS
#DATATYPE    : YY
#XPERCHAN    : 7.862, 7.881   eV per channel (separate by commas if more than one detector)
#OFFSET      : 18.5, -22.4         eV of first channel  (separate by commas if more than one detector
#SIGNALTYPE  : XRF
#YP_TEMP     : 2.267
#LIVETIME    : 8.58285, 8.54151   seconds (separate by commas if more than one detector)
#REALTIME    : 10, 10.0   seconds (separate by commas if more than one detector)
#SPECTRUM    : start of spectrum data
0, 0
0, 0
0, 0
0, 0
0, 0
0, 0
0, 0
1, 0
0, 0
2, 1
3, 3
23, 44
44, 59
5, 7
4, 9
65, 105
307, 441
80, 117
8, 10
1, 3
30, 54
181, 205
67, 86
12, 16
35, 39
31, 49
23, 25
9, 13
7, 2
0, 2
4, 3
0, 5
5, 4
9, 26
21, 39
8, 39
6, 22
6, 11
3, 2
4, 3
25, 4
61, 13
45, 9
33, 10
24, 6
5, 4
7, 8
9, 4
7, 15
5, 44
13, 43
8, 110
7, 77
29, 69
43, 64
22, 28
38, 34
367, 613
1649, 2491
1264, 1556
155, 152
16, 14
10, 21
74, 124
252, 387
179, 217
22, 20
8, 14
12, 20
15, 10
3, 12
3, 16
3, 3
1, 5
6, 3
8, 3
1, 5
2, 6
2, 2
1, 7
3, 7
5, 5
2, 3
4, 4
10, 4
6, 3
7, 12
3, 12
4, 2
2, 4
2, 4
3, 4
3, 5
2, 0
4, 0
6, 4
2, 7
2, 2
2, 5
3, 4
1, 5
3, 5
1, 3
6, 2
1, 5
0, 1
0, 2
1, 6
2, 2
3, 7
3, 3
4, 4
3, 4
2, 6
2, 1
2, 5
1, 4
1, 7
1, 4
0, 2
0, 2
0, 2
1, 1
0, 0
1, 0
3, 0
0, 2
1, 2
0, 0
2, 0
0, 1
0, 0
1, 0
1, 1
0, 1
0, 0
2, 2
0, 0
0, 0
1, 0
0, 0
1, 0
1, 1
0, 1
1, 3
0, 0
0, 3
2, 0
0, 0
0, 0
0, 1
1, 1
1, 2
1, 1
0, 0
0, 0
0, 0
0, 0
0, 0
0, 0
0, 1
0, 0
0, 0
0, 1
0, 0
1, 0
0, 0
0, 0
1, 1
1, 0
0, 1
0, 0
0, 0
1, 0
0, 0
0, 0
0, 1
0, 0
0, 0
1, 0
0, 0
1, 0
0, 0
0, 0
0, 0
0, 0
0, 1
0, 1
1, 0
0, 0
0, 0
0, 0
0, 1
0, 0
0, 0
0, 0
0, 0
0, 0
0, 0
1, 0
0, 0
0, 1
0, 1
0, 0
0, 0
0, 0
0, 0
0, 0
0, 0
0, 0
0, 0
0, 0
0, 0
0, 0
0, 0
0, 0
0, 0
0, 0
0, 0
0, 0
0, 0
0, 0
0, 0
0, 0
0, 0
0, 0
0, 0
0, 0
0, 0
0, 0
0, 0
0, 0
0, 0
0, 0
0, 0
0, 0
0, 0
0, 0
0, 0
0, 0
0, 0
0, 0
0, 0
0, 0
0, 0
0, 0
0, 0
0, 0
0, 0
0, 0
0, 0
0, 0
0, 0
0, 0
0, 0
0, 0
0, 0
0, 0
0, 0
0, 0
0, 0
0, 0
0, 0
0, 0
0, 0
0, 0
0, 0
0, 0
0, 0
0, 0
0, 0
0, 0
0, 0
0, 0
0, 0
0, 0
0, 0
0, 0
0, 0
0, 0
0, 0
0, 0
0, 0
0, 0
0, 0
0, 0
0, 0
0, 0
0, 0
0, 0
0, 0
0, 0
0, 0
0, 0
#ENDOFDATA     end of spectrum data