Folder: data-repository/host_upload/06-09-2024/ps_0852/dump3 (part 49)

File: ps__0852shot_2438.msa
#FORMAT      : EMSA/MAS spectral data file
#VERSION     : TC202v2.0 PIXL
#TITLE       : N/A
#DATE        :       Date in the format DD-MMM-YYYY, for example 07-JUL-2010
#TIME        :             The time of day at which the spectrum was recorded, in 24-hour format
#OWNER       : PIXL Flight Model       (PIXL will use this to indicate which instrument took the data.)
#NPOINTS     : 4096     Number of data points in the spectrum (This can be zero for configuration only files)
#NCOLUMNS    : 2     Number of data columns in the spectrum (This can be zero for configuration only files)
#XUNITS      : eV
#YUNITS      : COUNTS
#DATATYPE    : YY
#XPERCHAN    : 7.862, 7.881   eV per channel (separate by commas if more than one detector)
#OFFSET      : 18.5, -22.4         eV of first channel  (separate by commas if more than one detector
#SIGNALTYPE  : XRF
#YP_TEMP     : 2.267
#LIVETIME    : 8.564, 8.55202   seconds (separate by commas if more than one detector)
#REALTIME    : 10, 10.0   seconds (separate by commas if more than one detector)
#SPECTRUM    : start of spectrum data
0, 0
0, 0
0, 0
0, 0
0, 0
0, 0
0, 0
0, 0
0, 3
3, 2
2, 2
51, 42
74, 60
2, 6
2, 5
129, 91
492, 391
103, 92
5, 5
0, 1
0, 2
6, 8
2, 2
9, 4
39, 46
57, 61
22, 22
10, 9
0, 2
2, 3
1, 0
0, 0
3, 3
22, 17
43, 31
12, 7
12, 3
28, 9
41, 5
10, 2
3, 1
10, 12
11, 15
8, 52
10, 58
5, 11
6, 4
4, 7
7, 10
14, 13
30, 10
38, 7
21, 8
42, 53
57, 43
35, 25
39, 45
445, 549
2193, 2207
1572, 1375
177, 150
23, 10
52, 24
153, 124
343, 361
195, 173
32, 27
5, 5
12, 15
8, 8
5, 1
10, 7
14, 5
6, 6
19, 7
36, 6
44, 18
16, 13
3, 11
5, 7
2, 1
4, 0
6, 3
0, 2
4, 0
2, 3
1, 1
3, 4
2, 2
3, 4
2, 5
3, 3
2, 2
5, 1
1, 1
6, 2
5, 1
1, 1
0, 4
6, 7
6, 4
3, 2
3, 1
1, 3
3, 1
2, 0
1, 1
1, 2
3, 1
4, 2
2, 3
3, 4
2, 0
4, 4
2, 3
7, 1
4, 5
1, 1
3, 3
1, 2
1, 2
1, 2
7, 2
1, 2
4, 1
1, 1
1, 2
1, 3
1, 4
2, 2
2, 2
0, 2
0, 1
1, 1
0, 0
0, 1
3, 0
1, 1
0, 1
1, 0
1, 1
1, 1
0, 0
0, 0
0, 0
1, 0
1, 1
0, 0
0, 2
1, 1
2, 0
0, 0
0, 0
0, 2
0, 0
0, 0
0, 0
0, 1
1, 1
0, 0
0, 0
0, 0
0, 0
1, 0
0, 0
0, 1
0, 0
0, 1
0, 0
0, 0
0, 0
0, 1
0, 1
0, 0
0, 0
0, 0
0, 1
0, 0
0, 0
0, 0
0, 0
1, 0
0, 1
0, 0
1, 0
0, 0
0, 0
1, 0
0, 0
0, 0
0, 0
1, 0
0, 0
1, 0
0, 0
1, 0
0, 0
0, 0
0, 0
0, 0
0, 0
0, 0
0, 0
0, 0
0, 0
0, 0
0, 0
0, 0
0, 0
0, 0
0, 0
0, 0
0, 0
0, 0
0, 0
0, 0
0, 0
0, 0
0, 0
0, 0
0, 0
0, 0
0, 0
0, 0
0, 0
0, 0
0, 0
0, 0
0, 0
0, 0
0, 0
0, 0
0, 0
0, 0
0, 0
0, 0
0, 0
0, 0
0, 0
0, 0
0, 0
0, 0
0, 0
0, 0
0, 0
0, 0
0, 0
0, 0
0, 0
0, 0
0, 0
0, 0
0, 0
0, 0
0, 0
0, 0
0, 0
0, 0
0, 0
0, 0
0, 0
0, 0
0, 0
0, 0
0, 0
0, 0
0, 0
0, 0
0, 0
0, 0
0, 0
0, 0
0, 0
0, 0
0, 0
0, 0
0, 0
0, 0
0, 0
0, 0
0, 0
0, 0
0, 0
0, 0
0, 0
0, 0
0, 0
0, 0
0, 0
0, 0
0, 0
0, 0
0, 0
0, 0
#ENDOFDATA     end of spectrum data

File: ps__0852shot_2439.msa
#FORMAT      : EMSA/MAS spectral data file
#VERSION     : TC202v2.0 PIXL
#TITLE       : N/A
#DATE        :       Date in the format DD-MMM-YYYY, for example 07-JUL-2010
#TIME        :             The time of day at which the spectrum was recorded, in 24-hour format
#OWNER       : PIXL Flight Model       (PIXL will use this to indicate which instrument took the data.)
#NPOINTS     : 4096     Number of data points in the spectrum (This can be zero for configuration only files)
#NCOLUMNS    : 2     Number of data columns in the spectrum (This can be zero for configuration only files)
#XUNITS      : eV
#YUNITS      : COUNTS
#DATATYPE    : YY
#XPERCHAN    : 7.862, 7.881   eV per channel (separate by commas if more than one detector)
#OFFSET      : 18.5, -22.4         eV of first channel  (separate by commas if more than one detector
#SIGNALTYPE  : XRF
#YP_TEMP     : 2.043
#LIVETIME    : 8.56263, 8.55723   seconds (separate by commas if more than one detector)
#REALTIME    : 10, 10.0   seconds (separate by commas if more than one detector)
#SPECTRUM    : start of spectrum data
0, 0
0, 0
0, 0
0, 0
0, 0
0, 0
0, 0
0, 0
0, 1
2, 0
2, 1
56, 50
50, 55
6, 7
5, 9
72, 97
524, 406
126, 100
4, 5
3, 1
1, 1
2, 6
2, 4
7, 3
43, 41
67, 55
19, 29
16, 9
11, 5
6, 1
3, 2
2, 3
11, 3
98, 68
153, 110
21, 32
20, 9
40, 15
27, 7
9, 7
16, 9
22, 15
12, 42
10, 48
7, 34
7, 13
8, 11
12, 5
16, 14
40, 28
51, 10
24, 7
11, 14
38, 37
69, 53
26, 21
36, 46
375, 438
1892, 1794
1366, 1066
154, 117
33, 15
41, 25
116, 75
323, 274
220, 162
28, 16
9, 10
16, 17
8, 6
4, 6
7, 12
5, 7
6, 6
13, 6
31, 9
23, 9
12, 14
4, 1
3, 3
2, 4
4, 3
0, 4
2, 4
4, 0
6, 4
6, 6
5, 7
6, 4
4, 2
5, 3
3, 1
5, 2
3, 3
6, 2
6, 4
4, 2
6, 2
3, 3
3, 0
3, 1
3, 3
3, 3
2, 1
0, 1
1, 1
2, 0
3, 4
3, 2
3, 1
2, 2
0, 0
1, 4
3, 0
1, 3
3, 1
2, 2
8, 1
3, 2
3, 0
0, 2
2, 2
1, 2
2, 1
1, 0
3, 0
1, 2
1, 1
4, 0
1, 0
1, 0
1, 0
0, 0
1, 1
1, 1
1, 1
0, 0
0, 0
3, 1
0, 0
2, 1
0, 0
1, 1
0, 0
0, 0
0, 0
0, 0
1, 0
0, 2
1, 0
0, 1
0, 0
1, 0
0, 0
0, 0
0, 0
0, 0
0, 1
1, 0
1, 0
0, 0
1, 0
0, 1
0, 0
0, 0
1, 0
0, 0
0, 0
1, 0
0, 0
0, 0
0, 0
2, 1
1, 0
0, 0
0, 0
0, 0
1, 0
0, 0
0, 0
0, 0
0, 0
0, 0
0, 0
0, 1
0, 0
0, 0
0, 0
1, 0
0, 0
0, 0
0, 0
0, 0
1, 0
0, 0
0, 0
0, 0
0, 0
0, 0
0, 0
1, 0
0, 0
0, 0
0, 0
0, 0
0, 0
0, 0
0, 0
0, 1
0, 0
0, 0
0, 0
0, 0
0, 0
0, 0
0, 0
0, 0
0, 0
0, 0
0, 0
0, 0
0, 0
0, 0
0, 0
0, 0
0, 0
0, 0
0, 0
0, 0
0, 0
0, 0
0, 0
0, 0
0, 0
0, 0
0, 0
0, 0
0, 0
0, 0
0, 0
0, 0
0, 0
0, 0
0, 0
0, 0
0, 0
0, 0
0, 0
0, 0
0, 0
0, 0
0, 0
0, 0
0, 0
0, 0
0, 0
0, 0
0, 0
0, 0
0, 0
0, 0
0, 0
0, 0
0, 0
0, 0
0, 0
0, 0
0, 0
0, 0
0, 0
0, 0
0, 0
0, 0
0, 0
0, 0
0, 0
0, 0
0, 0
0, 0
0, 0
0, 0
0, 0
0, 0
0, 0
0, 0
0, 0
0, 0
0, 0
0, 0
0, 0
0, 0
0, 0
0, 0
0, 0
#ENDOFDATA     end of spectrum data

File: ps__0852shot_2440.msa
#FORMAT      : EMSA/MAS spectral data file
#VERSION     : TC202v2.0 PIXL
#TITLE       : N/A
#DATE        :       Date in the format DD-MMM-YYYY, for example 07-JUL-2010
#TIME        :             The time of day at which the spectrum was recorded, in 24-hour format
#OWNER       : PIXL Flight Model       (PIXL will use this to indicate which instrument took the data.)
#NPOINTS     : 4096     Number of data points in the spectrum (This can be zero for configuration only files)
#NCOLUMNS    : 2     Number of data columns in the spectrum (This can be zero for configuration only files)
#XUNITS      : eV
#YUNITS      : COUNTS
#DATATYPE    : YY
#XPERCHAN    : 7.862, 7.881   eV per channel (separate by commas if more than one detector)
#OFFSET      : 18.5, -22.4         eV of first channel  (separate by commas if more than one detector
#SIGNALTYPE  : XRF
#YP_TEMP     : 2.364
#LIVETIME    : 8.56285, 8.55983   seconds (separate by commas if more than one detector)
#REALTIME    : 10, 10.0   seconds (separate by commas if more than one detector)
#SPECTRUM    : start of spectrum data
0, 0
0, 0
0, 0
0, 0
0, 0
0, 0
0, 0
0, 0
0, 1
2, 1
4, 4
42, 47
59, 67
5, 4
3, 7
111, 89
411, 432
117, 95
6, 10
1, 0
1, 4
2, 3
5, 2
4, 12
56, 37
76, 44
35, 21
18, 10
5, 4
2, 3
4, 5
1, 1
2, 4
28, 21
55, 32
16, 4
10, 5
13, 5
12, 8
6, 3
6, 3
18, 19
17, 47
16, 35
16, 23
28, 9
18, 22
10, 10
10, 6
15, 10
19, 13
9, 14
13, 16
45, 51
63, 68
35, 26
29, 37
462, 598
2155, 2241
1524, 1352
153, 130
23, 48
23, 67
95, 116
344, 372
219, 185
30, 32
15, 8
20, 11
12, 4
6, 7
1, 7
1, 3
7, 5
7, 5
20, 6
13, 6
9, 5
7, 2
7, 4
3, 3
5, 0
5, 2
2, 6
2, 8
2, 10
4, 8
1, 8
2, 8
9, 5
5, 3
5, 6
7, 6
5, 9
2, 3
1, 3
0, 7
2, 2
5, 2
2, 1
3, 2
1, 4
5, 2
3, 4
0, 3
1, 2
2, 3
1, 1
4, 1
3, 1
0, 1
1, 1
2, 3
1, 1
1, 2
4, 0
4, 1
6, 1
2, 4
1, 4
0, 2
0, 2
0, 2
1, 0
0, 0
3, 0
2, 0
1, 1
3, 1
2, 0
0, 0
2, 1
1, 2
1, 1
1, 0
1, 1
0, 2
2, 1
0, 1
0, 1
0, 0
1, 0
0, 1
1, 0
0, 0
0, 0
1, 1
2, 2
0, 1
0, 0
0, 1
1, 0
0, 0
1, 1
0, 3
0, 0
0, 0
0, 1
0, 0
1, 0
0, 0
0, 0
0, 0
0, 0
0, 0
0, 0
0, 1
0, 0
0, 0
1, 1
0, 0
0, 0
0, 0
0, 0
0, 0
0, 0
0, 1
0, 0
0, 0
0, 0
0, 0
0, 0
0, 0
0, 0
1, 0
0, 0
0, 0
0, 0
0, 1
0, 0
0, 0
0, 0
0, 0
0, 0
0, 0
0, 0
0, 0
0, 0
1, 0
0, 1
0, 0
0, 0
0, 0
0, 0
0, 0
0, 0
0, 1
0, 0
0, 0
0, 0
0, 0
0, 0
0, 0
1, 0
0, 0
0, 0
0, 0
0, 0
0, 0
0, 0
0, 0
0, 0
0, 0
0, 0
0, 0
0, 0
0, 0
0, 0
0, 0
0, 0
0, 0
0, 0
0, 0
1, 0
0, 0
0, 0
0, 0
0, 0
0, 0
0, 0
0, 0
0, 0
0, 0
0, 0
0, 0
0, 0
0, 0
0, 0
0, 0
0, 0
0, 0
0, 0
0, 0
0, 0
0, 0
0, 0
0, 0
0, 0
0, 0
0, 0
0, 0
0, 0
0, 0
0, 0
0, 0
0, 0
0, 0
0, 0
0, 0
0, 0
0, 0
0, 0
0, 0
0, 0
0, 0
0, 0
0, 0
0, 0
0, 0
0, 0
0, 0
0, 0
0, 0
0, 0
0, 0
0, 0
0, 0
0, 0
0, 0
0, 0
0, 0
0, 0
0, 0
0, 0
#ENDOFDATA     end of spectrum data

File: ps__0852shot_2441.msa
#FORMAT      : EMSA/MAS spectral data file
#VERSION     : TC202v2.0 PIXL
#TITLE       : N/A
#DATE        :       Date in the format DD-MMM-YYYY, for example 07-JUL-2010
#TIME        :             The time of day at which the spectrum was recorded, in 24-hour format
#OWNER       : PIXL Flight Model       (PIXL will use this to indicate which instrument took the data.)
#NPOINTS     : 4096     Number of data points in the spectrum (This can be zero for configuration only files)
#NCOLUMNS    : 2     Number of data columns in the spectrum (This can be zero for configuration only files)
#XUNITS      : eV
#YUNITS      : COUNTS
#DATATYPE    : YY
#XPERCHAN    : 7.862, 7.881   eV per channel (separate by commas if more than one detector)
#OFFSET      : 18.5, -22.4         eV of first channel  (separate by commas if more than one detector
#SIGNALTYPE  : XRF
#YP_TEMP     : 2.364
#LIVETIME    : 8.55337, 8.54236   seconds (separate by commas if more than one detector)
#REALTIME    : 10, 10.0   seconds (separate by commas if more than one detector)
#SPECTRUM    : start of spectrum data
0, 0
0, 0
0, 0
0, 0
0, 0
0, 0
0, 0
0, 0
0, 6
2, 8
2, 3
38, 56
53, 50
7, 7
3, 4
91, 107
453, 402
105, 97
7, 7
1, 1
1, 2
4, 7
3, 4
7, 19
49, 314
63, 410
22, 61
16, 13
3, 5
3, 3
3, 5
4, 3
0, 2
10, 18
23, 17
6, 5
3, 5
14, 7
4, 5
10, 8
10, 3
14, 8
20, 24
13, 16
25, 10
21, 5
21, 13
6, 6
5, 12
21, 7
18, 10
18, 9
6, 19
33, 51
65, 57
34, 22
33, 53
494, 562
2310, 2220
1625, 1362
207, 155
17, 36
33, 28
88, 125
348, 326
227, 179
39, 18
10, 8
23, 9
18, 8
11, 8
5, 3
6, 4
6, 6
6, 7
7, 7
6, 8
9, 13
5, 7
3, 2
8, 3
7, 3
10, 8
7, 8
4, 4
4, 2
2, 6
9, 3
5, 7
4, 6
3, 3
7, 6
7, 5
2, 2
3, 3
1, 3
5, 4
4, 3
2, 3
2, 4
3, 2
1, 2
1, 3
2, 3
3, 3
4, 1
0, 3
2, 0
1, 3
0, 3
2, 2
4, 0
1, 3
1, 2
1, 1
4, 4
4, 5
6, 3
2, 3
1, 2
0, 0
3, 1
3, 4
1, 2
0, 2
1, 0
2, 0
2, 1
1, 2
4, 2
0, 2
2, 0
0, 1
2, 3
0, 0
1, 0
0, 3
1, 2
2, 0
0, 1
2, 0
1, 0
0, 0
1, 2
1, 0
1, 0
1, 0
1, 1
0, 0
0, 0
0, 0
0, 1
1, 0
0, 2
0, 1
0, 1
0, 0
0, 0
1, 0
0, 0
0, 0
0, 1
0, 2
0, 1
0, 1
0, 0
0, 1
1, 1
0, 2
0, 0
0, 0
0, 0
0, 0
0, 1
1, 0
0, 1
0, 0
0, 0
0, 1
0, 0
0, 0
0, 0
0, 0
0, 0
0, 0
0, 0
0, 0
0, 0
0, 0
0, 0
0, 0
1, 1
0, 0
0, 0
0, 1
0, 0
0, 0
0, 0
0, 0
0, 0
0, 0
0, 0
0, 0
1, 0
0, 0
0, 0
0, 0
0, 0
0, 0
0, 0
0, 0
0, 0
0, 0
0, 0
0, 0
0, 0
0, 0
0, 0
0, 0
0, 0
0, 0
0, 0
0, 0
0, 0
0, 0
0, 0
0, 0
0, 0
0, 0
0, 0
0, 0
0, 0
0, 0
0, 0
0, 0
0, 0
0, 0
0, 0
0, 0
0, 0
0, 0
0, 0
0, 0
0, 0
0, 0
0, 0
0, 0
0, 0
0, 0
0, 0
0, 0
0, 0
0, 0
0, 0
0, 0
0, 0
0, 0
0, 0
0, 0
0, 0
0, 0
0, 0
0, 0
0, 0
0, 0
0, 0
0, 0
0, 0
0, 0
0, 0
0, 0
0, 0
0, 0
0, 0
0, 0
0, 0
0, 0
0, 0
0, 0
0, 0
0, 0
0, 0
0, 0
0, 0
0, 0
0, 0
0, 0
0, 0
0, 0
0, 0
0, 0
0, 0
0, 0
0, 0
#ENDOFDATA     end of spectrum data

File: ps__0852shot_2442.msa
#FORMAT      : EMSA/MAS spectral data file
#VERSION     : TC202v2.0 PIXL
#TITLE       : N/A
#DATE        :       Date in the format DD-MMM-YYYY, for example 07-JUL-2010
#TIME        :             The time of day at which the spectrum was recorded, in 24-hour format
#OWNER       : PIXL Flight Model       (PIXL will use this to indicate which instrument took the data.)
#NPOINTS     : 4096     Number of data points in the spectrum (This can be zero for configuration only files)
#NCOLUMNS    : 2     Number of data columns in the spectrum (This can be zero for configuration only files)
#XUNITS      : eV
#YUNITS      : COUNTS
#DATATYPE    : YY
#XPERCHAN    : 7.862, 7.881   eV per channel (separate by commas if more than one detector)
#OFFSET      : 18.5, -22.4         eV of first channel  (separate by commas if more than one detector
#SIGNALTYPE  : XRF
#YP_TEMP     : 2.524
#LIVETIME    : 8.54114, 8.55087   seconds (separate by commas if more than one detector)
#REALTIME    : 10, 10.0   seconds (separate by commas if more than one detector)
#SPECTRUM    : start of spectrum data
0, 0
0, 0
0, 0
0, 0
0, 0
0, 0
0, 0
0, 0
2, 8
1, 28
0, 12
51, 44
68, 78
6, 5
3, 6
90, 106
414, 426
95, 111
2, 6
0, 6
1, 5
1, 3
2, 4
12, 63
34, 1027
46, 1576
19, 174
15, 9
4, 3
4, 3
1, 0
0, 1
5, 2
7, 7
15, 16
3, 8
4, 18
7, 17
5, 2
1, 5
2, 5
8, 8
9, 9
10, 17
5, 9
3, 4
7, 6
4, 8
8, 10
9, 9
9, 9
8, 5
5, 14
39, 51
53, 59
13, 22
22, 30
447, 580
2141, 2394
1528, 1454
195, 148
10, 33
27, 23
91, 105
353, 350
231, 199
28, 17
8, 9
17, 14
8, 7
5, 3
3, 4
4, 6
12, 2
16, 4
11, 6
7, 5
3, 3
5, 3
2, 1
5, 4
1, 6
3, 9
4, 6
4, 1
4, 6
6, 5
1, 8
1, 2
1, 3
1, 2
1, 4
3, 2
3, 2
3, 2
3, 6
6, 2
2, 7
4, 3
1, 9
2, 2
1, 3
3, 2
5, 3
3, 0
2, 3
0, 2
2, 1
3, 3
0, 3
3, 2
1, 1
2, 2
0, 1
2, 3
1, 3
2, 5
4, 3
3, 3
1, 1
2, 0
1, 4
4, 4
1, 3
0, 2
3, 1
0, 0
1, 2
4, 0
1, 1
0, 2
0, 1
1, 1
2, 1
0, 1
1, 0
1, 0
0, 1
0, 1
0, 0
1, 0
0, 0
1, 0
0, 1
0, 0
1, 0
0, 1
0, 0
0, 0
0, 0
0, 0
0, 0
2, 0
2, 0
0, 0
0, 0
1, 0
0, 1
1, 0
0, 0
0, 1
0, 0
0, 0
0, 0
0, 0
0, 0
1, 0
0, 1
0, 1
1, 0
0, 0
1, 0
1, 1
0, 0
0, 1
0, 0
0, 0
0, 0
0, 0
0, 0
0, 0
0, 0
0, 0
0, 0
0, 0
0, 0
0, 0
1, 0
0, 0
0, 0
0, 0
0, 0
0, 0
0, 0
0, 0
0, 0
0, 0
0, 0
0, 0
0, 0
0, 0
0, 0
0, 0
0, 0
0, 0
0, 0
0, 0
0, 0
0, 0
0, 0
0, 0
0, 0
0, 0
0, 0
0, 0
0, 0
0, 0
0, 0
1, 0
0, 0
0, 0
0, 0
0, 0
0, 0
0, 0
0, 0
0, 0
0, 0
0, 0
0, 0
0, 0
0, 0
0, 0
0, 0
0, 0
0, 0
0, 0
0, 0
0, 0
0, 0
0, 0
0, 0
0, 0
0, 0
0, 0
0, 0
0, 0
0, 0
0, 0
0, 0
0, 0
0, 0
0, 0
0, 0
0, 0
0, 0
0, 0
0, 0
0, 0
0, 0
0, 0
0, 0
0, 0
0, 0
0, 0
0, 0
0, 0
0, 0
0, 0
0, 0
0, 0
0, 0
0, 0
0, 0
0, 0
0, 0
0, 0
0, 0
0, 0
0, 0
0, 0
0, 0
0, 0
0, 0
0, 0
0, 0
0, 0
0, 0
0, 0
0, 0
0, 0
0, 0
0, 0
0, 0
#ENDOFDATA     end of spectrum data

File: ps__0852shot_2443.msa
#FORMAT      : EMSA/MAS spectral data file
#VERSION     : TC202v2.0 PIXL
#TITLE       : N/A
#DATE        :       Date in the format DD-MMM-YYYY, for example 07-JUL-2010
#TIME        :             The time of day at which the spectrum was recorded, in 24-hour format
#OWNER       : PIXL Flight Model       (PIXL will use this to indicate which instrument took the data.)
#NPOINTS     : 4096     Number of data points in the spectrum (This can be zero for configuration only files)
#NCOLUMNS    : 2     Number of data columns in the spectrum (This can be zero for configuration only files)
#XUNITS      : eV
#YUNITS      : COUNTS
#DATATYPE    : YY
#XPERCHAN    : 7.862, 7.881   eV per channel (separate by commas if more than one detector)
#OFFSET      : 18.5, -22.4         eV of first channel  (separate by commas if more than one detector
#SIGNALTYPE  : XRF
#YP_TEMP     : 2.364
#LIVETIME    : 8.56465, 8.56163   seconds (separate by commas if more than one detector)
#REALTIME    : 10, 10.0   seconds (separate by commas if more than one detector)
#SPECTRUM    : start of spectrum data
0, 0
0, 0
0, 0
0, 0
0, 0
0, 0
0, 0
0, 1
2, 5
3, 23
3, 4
41, 54
59, 62
6, 6
3, 9
86, 103
446, 471
112, 106
6, 7
0, 7
1, 1
4, 5
0, 5
6, 71
34, 1125
30, 1653
16, 210
10, 10
3, 6
2, 5
6, 2
1, 2
1, 0
5, 7
16, 16
2, 8
5, 36
5, 33
6, 5
7, 4
3, 0
4, 7
8, 9
15, 10
12, 6
7, 6
4, 5
5, 4
5, 8
13, 9
9, 11
6, 7
7, 9
31, 39
55, 51
16, 20
24, 37
447, 588
2117, 2440
1548, 1436
180, 159
28, 45
11, 30
87, 121
332, 343
207, 181
18, 26
6, 10
11, 18
7, 6
10, 4
4, 6
7, 2
13, 9
19, 5
10, 4
6, 2
2, 5
6, 3
9, 4
5, 1
1, 3
1, 2
5, 3
4, 8
4, 4
7, 5
9, 4
4, 5
1, 1
2, 3
2, 2
5, 8
0, 2
4, 3
8, 2
5, 5
6, 3
3, 5
3, 9
3, 1
1, 5
1, 4
2, 2
4, 2
1, 5
1, 1
2, 2
1, 2
2, 2
5, 2
2, 2
3, 6
1, 3
3, 0
1, 1
6, 7
3, 5
1, 2
0, 1
2, 2
0, 2
4, 1
3, 1
4, 2
0, 0
1, 1
1, 0
1, 1
0, 0
0, 2
0, 0
0, 1
1, 1
1, 2
1, 0
1, 1
0, 2
0, 0
2, 1
0, 0
0, 0
0, 0
0, 0
0, 2
2, 0
1, 2
1, 0
0, 0
2, 1
0, 0
0, 0
1, 0
0, 0
0, 0
1, 1
0, 0
0, 1
2, 1
0, 0
0, 1
1, 0
0, 0
1, 1
1, 1
0, 1
0, 2
0, 1
0, 0
1, 0
0, 1
0, 0
0, 0
0, 0
0, 0
0, 1
0, 0
0, 0
0, 1
0, 0
0, 1
0, 0
0, 0
0, 0
0, 0
1, 0
0, 0
0, 0
0, 0
0, 0
0, 0
0, 0
0, 0
0, 0
0, 0
0, 0
0, 0
0, 0
0, 0
0, 0
0, 0
0, 0
0, 0
0, 1
0, 0
0, 0
0, 0
0, 0
0, 0
0, 0
0, 0
0, 1
0, 0
0, 0
0, 0
0, 0
0, 0
0, 1
0, 0
0, 0
0, 0
0, 0
0, 0
0, 0
0, 0
0, 0
0, 0
0, 0
0, 0
0, 0
0, 0
0, 0
0, 0
0, 0
0, 0
0, 0
0, 0
0, 0
0, 0
0, 0
0, 0
0, 0
0, 0
0, 0
0, 0
0, 0
0, 0
0, 0
0, 0
0, 0
0, 0
0, 0
0, 0
0, 0
0, 0
0, 0
0, 0
0, 0
0, 0
0, 0
0, 0
0, 0
0, 0
0, 0
0, 0
0, 0
0, 0
0, 0
0, 0
0, 0
0, 0
0, 0
0, 0
0, 0
0, 0
0, 0
0, 0
0, 0
0, 0
0, 0
0, 0
0, 0
0, 0
0, 0
0, 0
0, 0
0, 0
0, 0
0, 0
0, 0
0, 0
0, 0
0, 0
0, 0
#ENDOFDATA     end of spectrum data

File: ps__0852shot_2444.msa
#FORMAT      : EMSA/MAS spectral data file
#VERSION     : TC202v2.0 PIXL
#TITLE       : N/A
#DATE        :       Date in the format DD-MMM-YYYY, for example 07-JUL-2010
#TIME        :             The time of day at which the spectrum was recorded, in 24-hour format
#OWNER       : PIXL Flight Model       (PIXL will use this to indicate which instrument took the data.)
#NPOINTS     : 4096     Number of data points in the spectrum (This can be zero for configuration only files)
#NCOLUMNS    : 2     Number of data columns in the spectrum (This can be zero for configuration only files)
#XUNITS      : eV
#YUNITS      : COUNTS
#DATATYPE    : YY
#XPERCHAN    : 7.862, 7.881   eV per channel (separate by commas if more than one detector)
#OFFSET      : 18.5, -22.4         eV of first channel  (separate by commas if more than one detector
#SIGNALTYPE  : XRF
#YP_TEMP     : 2.46
#LIVETIME    : 8.56285, 8.54626   seconds (separate by commas if more than one detector)
#REALTIME    : 10, 10.0   seconds (separate by commas if more than one detector)
#SPECTRUM    : start of spectrum data
0, 0
0, 0
0, 0
0, 0
0, 0
0, 0
0, 0
0, 1
0, 3
3, 23
0, 3
40, 62
51, 67
10, 9
2, 4
90, 112
394, 427
110, 87
4, 2
1, 2
4, 1
7, 3
5, 10
6, 54
37, 1461
44, 2110
25, 243
10, 17
7, 4
4, 2
1, 1
2, 1
1, 2
8, 18
14, 21
4, 9
10, 16
10, 18
3, 8
2, 5
1, 13
10, 17
8, 13
16, 8
8, 7
4, 6
6, 5
10, 5
24, 8
30, 26
17, 19
4, 10
9, 8
41, 60
63, 74
22, 18
33, 35
453, 594
2078, 2371
1501, 1390
187, 157
33, 25
13, 39
95, 128
340, 377
211, 194
24, 18
7, 8
21, 11
3, 6
8, 3
5, 4
4, 1
13, 5
11, 11
13, 11
6, 8
3, 5
6, 4
5, 6
5, 6
5, 1
2, 12
6, 10
11, 3
8, 4
5, 5
6, 7
3, 3
3, 2
2, 0
1, 0
2, 3
5, 5
2, 4
2, 3
3, 4
9, 0
4, 5
5, 15
1, 5
1, 1
1, 3
4, 6
1, 3
2, 1
1, 5
1, 2
3, 3
2, 1
5, 5
2, 2
1, 0
0, 5
4, 2
2, 4
2, 3
1, 5
4, 2
1, 2
3, 3
2, 0
0, 2
3, 1
1, 0
0, 1
1, 1
1, 1
0, 1
1, 1
0, 1
1, 1
1, 0
1, 1
0, 1
1, 1
0, 1
0, 1
0, 0
1, 1
1, 0
0, 2
1, 1
0, 1
0, 0
0, 0
0, 0
0, 2
0, 0
0, 1
0, 0
0, 1
1, 1
0, 0
1, 2
0, 1
0, 0
0, 0
0, 0
0, 0
1, 0
0, 0
0, 1
0, 1
0, 0
1, 0
0, 0
0, 0
0, 0
0, 0
0, 1
1, 0
0, 0
1, 2
0, 0
0, 0
0, 0
0, 0
0, 1
0, 0
0, 0
0, 0
0, 0
0, 1
0, 0
0, 0
0, 0
0, 0
1, 0
0, 0
0, 0
1, 0
0, 0
0, 0
0, 0
0, 0
0, 0
0, 0
0, 0
0, 0
0, 0
0, 0
0, 0
0, 0
0, 0
0, 0
0, 0
0, 0
0, 0
0, 0
0, 0
0, 0
0, 0
0, 0
0, 1
0, 0
0, 0
0, 0
0, 0
1, 0
0, 0
0, 0
0, 0
0, 0
0, 0
0, 0
0, 0
0, 0
0, 0
0, 0
0, 0
0, 0
0, 0
0, 0
0, 0
0, 0
0, 0
0, 0
0, 0
0, 0
0, 0
0, 0
0, 0
0, 0
0, 0
0, 0
0, 0
0, 0
0, 0
0, 0
0, 0
0, 0
0, 0
0, 0
0, 0
0, 0
0, 0
0, 0
0, 0
0, 0
0, 0
0, 0
0, 0
0, 0
0, 0
0, 0
0, 0
0, 0
0, 0
0, 0
0, 0
0, 0
0, 0
0, 0
0, 0
0, 0
0, 0
0, 0
0, 0
0, 0
0, 0
0, 0
0, 0
0, 0
0, 0
0, 0
0, 0
0, 0
0, 0
0, 0
0, 0
0, 0
0, 0
0, 0
#ENDOFDATA     end of spectrum data

File: ps__0852shot_2445.msa
#FORMAT      : EMSA/MAS spectral data file
#VERSION     : TC202v2.0 PIXL
#TITLE       : N/A
#DATE        :       Date in the format DD-MMM-YYYY, for example 07-JUL-2010
#TIME        :             The time of day at which the spectrum was recorded, in 24-hour format
#OWNER       : PIXL Flight Model       (PIXL will use this to indicate which instrument took the data.)
#NPOINTS     : 4096     Number of data points in the spectrum (This can be zero for configuration only files)
#NCOLUMNS    : 2     Number of data columns in the spectrum (This can be zero for configuration only files)
#XUNITS      : eV
#YUNITS      : COUNTS
#DATATYPE    : YY
#XPERCHAN    : 7.862, 7.881   eV per channel (separate by commas if more than one detector)
#OFFSET      : 18.5, -22.4         eV of first channel  (separate by commas if more than one detector
#SIGNALTYPE  : XRF
#YP_TEMP     : 2.235
#LIVETIME    : 8.54756, 8.35388   seconds (separate by commas if more than one detector)
#REALTIME    : 10, 10.0   seconds (separate by commas if more than one detector)
#SPECTRUM    : start of spectrum data
0, 0
0, 0
0, 0
0, 0
0, 0
0, 0
0, 0
0, 1
0, 2
0, 19
1, 9
31, 52
56, 65
5, 5
4, 5
98, 100
453, 372
103, 91
2, 6
1, 0
2, 3
10, 6
5, 4
3, 26
57, 523
67, 770
26, 95
23, 16
2, 2
1, 1
5, 3
4, 1
4, 1
17, 15
16, 17
1, 7
5, 7
7, 8
12, 11
16, 7
8, 7
12, 14
20, 25
23, 25
31, 5
14, 9
8, 8
12, 6
23, 11
31, 23
28, 22
13, 8
9, 17
52, 44
81, 60
28, 27
25, 38
482, 564
2310, 2208
1631, 1364
176, 131
37, 26
24, 41
91, 115
336, 356
206, 178
28, 24
10, 6
16, 12
3, 8
4, 4
1, 6
9, 7
12, 5
8, 10
5, 5
5, 14
4, 8
5, 10
6, 4
2, 5
3, 4
8, 6
4, 5
15, 4
5, 3
6, 2
3, 3
4, 3
3, 1
1, 5
2, 5
2, 7
5, 8
3, 5
3, 3
3, 3
3, 0
0, 2
2, 4
5, 2
2, 2
1, 2
1, 0
1, 0
1, 2
5, 2
4, 4
6, 3
2, 3
0, 1
5, 3
3, 2
0, 2
1, 1
4, 4
6, 2
3, 4
2, 3
2, 0
0, 0
3, 3
3, 3
2, 2
0, 0
1, 1
1, 2
0, 0
1, 2
1, 1
0, 0
1, 1
2, 0
1, 4
0, 1
1, 2
0, 1
2, 1
0, 1
1, 0
1, 0
0, 0
0, 1
0, 0
1, 0
0, 0
0, 0
0, 0
0, 1
2, 1
0, 0
0, 1
0, 0
0, 0
0, 0
2, 0
0, 0
2, 0
0, 1
0, 0
0, 0
0, 0
0, 0
1, 1
0, 1
0, 0
0, 0
0, 0
0, 0
0, 1
0, 0
1, 0
0, 1
1, 0
0, 0
0, 1
1, 0
0, 0
0, 0
1, 0
0, 0
1, 0
0, 0
0, 0
0, 0
0, 0
0, 0
0, 0
0, 0
0, 0
0, 0
0, 1
0, 0
0, 0
0, 0
0, 0
0, 0
0, 0
0, 0
0, 0
0, 0
0, 0
0, 0
0, 0
0, 0
0, 0
0, 0
0, 1
0, 0
0, 0
0, 0
0, 0
0, 0
0, 0
0, 0
0, 0
0, 0
0, 0
0, 0
0, 0
0, 0
0, 0
0, 0
0, 0
0, 0
0, 0
0, 0
0, 0
0, 0
0, 0
0, 0
0, 0
0, 0
0, 0
0, 0
0, 0
0, 0
0, 0
0, 0
0, 0
0, 0
0, 0
0, 0
0, 0
0, 0
0, 0
0, 0
0, 0
0, 0
0, 0
0, 0
0, 0
0, 0
0, 0
0, 0
0, 0
0, 0
0, 0
0, 0
0, 0
0, 0
0, 0
0, 0
0, 0
0, 0
0, 0
0, 0
0, 0
0, 0
0, 0
0, 0
0, 0
0, 0
0, 0
0, 0
0, 0
0, 0
0, 0
0, 0
0, 0
0, 0
0, 0
0, 0
0, 0
0, 0
0, 0
0, 0
0, 0
0, 0
0, 0
0, 0
0, 0
0, 0
0, 0
#ENDOFDATA     end of spectrum data

File: ps__0852shot_2446.msa
#FORMAT      : EMSA/MAS spectral data file
#VERSION     : TC202v2.0 PIXL
#TITLE       : N/A
#DATE        :       Date in the format DD-MMM-YYYY, for example 07-JUL-2010
#TIME        :             The time of day at which the spectrum was recorded, in 24-hour format
#OWNER       : PIXL Flight Model       (PIXL will use this to indicate which instrument took the data.)
#NPOINTS     : 4096     Number of data points in the spectrum (This can be zero for configuration only files)
#NCOLUMNS    : 2     Number of data columns in the spectrum (This can be zero for configuration only files)
#XUNITS      : eV
#YUNITS      : COUNTS
#DATATYPE    : YY
#XPERCHAN    : 7.862, 7.881   eV per channel (separate by commas if more than one detector)
#OFFSET      : 18.5, -22.4         eV of first channel  (separate by commas if more than one detector
#SIGNALTYPE  : XRF
#YP_TEMP     : 2.203
#LIVETIME    : 8.56464, 8.55517   seconds (separate by commas if more than one detector)
#REALTIME    : 10, 10.0   seconds (separate by commas if more than one detector)
#SPECTRUM    : start of spectrum data
0, 0
0, 0
0, 0
0, 0
0, 0
0, 0
0, 0
0, 0
0, 1
0, 2
4, 2
54, 38
58, 58
8, 4
1, 3
86, 102
413, 449
91, 79
9, 6
1, 0
3, 2
14, 5
6, 2
7, 18
34, 80
61, 106
29, 26
25, 24
6, 5
6, 3
1, 3
7, 4
6, 7
13, 15
15, 18
11, 8
6, 8
7, 7
35, 9
39, 9
25, 8
13, 17
17, 15
35, 18
74, 11
27, 3
11, 8
10, 8
12, 12
19, 26
25, 14
10, 17
10, 15
60, 35
59, 58
33, 40
41, 44
483, 597
2241, 2275
1605, 1312
215, 133
33, 22
20, 24
96, 112
293, 360
220, 198
36, 26
18, 11
19, 20
15, 11
6, 8
3, 3
4, 5
12, 7
16, 10
7, 5
2, 3
2, 4
8, 2
7, 7
3, 6
7, 6
4, 3
7, 5
6, 6
5, 7
5, 11
3, 3
6, 3
4, 8
3, 7
7, 2
5, 6
2, 7
4, 5
4, 2
6, 7
1, 0
0, 0
3, 2
2, 3
1, 3
4, 4
4, 2
1, 1
1, 0
2, 5
4, 3
3, 1
3, 3
3, 4
4, 2
1, 2
1, 0
3, 1
1, 2
2, 2
3, 2
2, 1
1, 5
0, 4
2, 3
2, 6
3, 3
2, 0
2, 2
0, 1
2, 2
0, 1
1, 0
0, 0
4, 0
1, 1
3, 0
0, 0
0, 0
0, 0
0, 0
0, 1
1, 1
0, 1
0, 0
0, 2
0, 0
0, 3
0, 0
1, 1
2, 0
0, 0
1, 1
0, 0
0, 2
0, 0
1, 0
1, 1
1, 0
0, 0
0, 1
0, 0
0, 0
0, 0
0, 0
0, 0
0, 0
1, 1
0, 0
0, 0
0, 0
0, 1
0, 0
0, 1
0, 0
0, 0
0, 0
0, 0
1, 0
0, 0
0, 0
1, 1
0, 0
0, 0
0, 0
1, 0
0, 0
0, 0
0, 0
0, 0
0, 0
0, 0
0, 0
0, 0
0, 0
0, 0
0, 0
0, 0
0, 0
0, 1
0, 0
0, 0
0, 0
0, 0
0, 0
0, 0
0, 0
0, 0
0, 0
0, 0
0, 1
0, 0
0, 0
0, 0
0, 0
0, 0
0, 0
0, 0
0, 0
0, 0
0, 0
0, 0
0, 0
0, 0
0, 0
0, 0
0, 0
0, 0
0, 0
0, 0
0, 0
0, 0
0, 0
0, 0
0, 0
0, 0
0, 0
0, 0
0, 0
0, 0
0, 0
0, 0
0, 0
0, 0
0, 0
0, 0
0, 0
0, 0
0, 0
0, 0
0, 0
0, 0
0, 0
0, 0
0, 0
0, 0
0, 0
0, 0
0, 0
0, 0
0, 0
0, 0
0, 0
0, 0
0, 0
0, 0
0, 0
0, 0
0, 0
0, 0
0, 0
0, 0
0, 0
0, 0
0, 0
0, 0
0, 0
0, 0
0, 0
0, 0
0, 0
0, 0
0, 0
0, 0
0, 0
0, 0
0, 0
0, 0
0, 0
0, 0
0, 0
0, 0
0, 0
0, 0
0, 0
0, 0
0, 0
#ENDOFDATA     end of spectrum data