Folder: data-repository/host_upload/06-09-2024/ps_0852/dump3 (part 56)

File: ps__0852shot_2501.msa
#FORMAT      : EMSA/MAS spectral data file
#VERSION     : TC202v2.0 PIXL
#TITLE       : N/A
#DATE        :       Date in the format DD-MMM-YYYY, for example 07-JUL-2010
#TIME        :             The time of day at which the spectrum was recorded, in 24-hour format
#OWNER       : PIXL Flight Model       (PIXL will use this to indicate which instrument took the data.)
#NPOINTS     : 4096     Number of data points in the spectrum (This can be zero for configuration only files)
#NCOLUMNS    : 2     Number of data columns in the spectrum (This can be zero for configuration only files)
#XUNITS      : eV
#YUNITS      : COUNTS
#DATATYPE    : YY
#XPERCHAN    : 7.862, 7.881   eV per channel (separate by commas if more than one detector)
#OFFSET      : 18.5, -22.4         eV of first channel  (separate by commas if more than one detector
#SIGNALTYPE  : XRF
#YP_TEMP     : 2.492
#LIVETIME    : 8.55037, 8.53818   seconds (separate by commas if more than one detector)
#REALTIME    : 10, 10.0   seconds (separate by commas if more than one detector)
#SPECTRUM    : start of spectrum data
0, 0
0, 0
0, 0
0, 0
0, 0
0, 0
0, 0
0, 0
0, 1
2, 1
3, 1
59, 44
71, 52
5, 8
5, 2
90, 86
422, 415
115, 96
4, 4
1, 1
0, 0
5, 5
2, 3
9, 2
26, 19
37, 33
26, 25
8, 7
6, 5
2, 6
0, 1
1, 4
3, 5
7, 14
7, 10
10, 2
4, 2
4, 4
3, 6
3, 26
3, 20
18, 15
19, 18
14, 9
1, 8
7, 5
7, 2
4, 5
24, 25
44, 84
58, 58
14, 11
10, 14
48, 58
70, 138
25, 117
25, 84
440, 575
2063, 2422
1496, 1370
181, 125
15, 23
25, 43
129, 146
334, 323
217, 192
26, 18
12, 10
19, 10
4, 4
5, 4
1, 1
2, 5
4, 5
11, 1
3, 4
4, 9
6, 6
6, 4
4, 4
2, 2
4, 2
4, 2
1, 6
2, 3
3, 1
4, 4
1, 1
3, 2
1, 2
4, 4
4, 3
4, 3
1, 4
1, 2
1, 6
2, 1
0, 2
3, 1
0, 2
2, 1
3, 1
3, 1
2, 3
1, 2
3, 2
3, 2
2, 5
5, 6
1, 4
1, 2
2, 4
5, 0
1, 0
0, 1
2, 1
6, 3
5, 1
2, 2
1, 0
2, 1
0, 2
0, 4
1, 1
2, 0
2, 1
1, 1
2, 2
1, 0
1, 2
2, 0
2, 0
1, 1
0, 2
0, 1
0, 1
2, 1
1, 0
0, 1
0, 0
2, 1
0, 0
0, 1
0, 1
0, 0
0, 0
1, 1
0, 0
0, 1
0, 0
0, 0
0, 1
0, 0
0, 0
0, 1
0, 1
0, 0
0, 0
0, 1
0, 0
0, 0
0, 1
0, 0
0, 2
0, 0
0, 0
0, 0
1, 0
0, 0
0, 0
0, 0
0, 0
0, 0
0, 0
0, 1
0, 0
0, 2
0, 0
0, 0
0, 0
0, 0
0, 0
1, 0
0, 0
0, 0
0, 0
0, 0
1, 0
0, 0
0, 0
0, 0
0, 0
0, 0
0, 0
0, 0
0, 0
0, 0
0, 0
0, 0
0, 0
0, 0
0, 0
0, 0
0, 0
0, 0
0, 0
0, 0
0, 0
0, 0
0, 0
0, 0
0, 0
0, 0
0, 0
0, 0
0, 0
0, 0
0, 0
0, 0
0, 0
0, 0
0, 0
0, 0
0, 0
0, 0
0, 0
0, 0
0, 0
0, 0
0, 0
0, 0
0, 0
0, 0
0, 0
0, 0
0, 0
0, 0
0, 0
0, 0
0, 0
0, 0
0, 0
0, 0
0, 0
0, 0
0, 0
0, 0
0, 0
0, 0
0, 0
0, 0
0, 0
0, 0
0, 0
0, 0
0, 0
0, 0
0, 0
0, 0
0, 0
0, 0
0, 0
0, 0
0, 0
0, 0
0, 0
0, 0
0, 0
0, 0
0, 0
0, 0
0, 0
0, 0
0, 0
0, 0
0, 0
0, 0
0, 0
0, 0
0, 0
0, 0
0, 0
0, 0
0, 0
0, 0
0, 0
0, 0
0, 0
0, 0
0, 0
0, 0
0, 0
0, 0
0, 0
#ENDOFDATA     end of spectrum data

File: ps__0852shot_2502.msa
#FORMAT      : EMSA/MAS spectral data file
#VERSION     : TC202v2.0 PIXL
#TITLE       : N/A
#DATE        :       Date in the format DD-MMM-YYYY, for example 07-JUL-2010
#TIME        :             The time of day at which the spectrum was recorded, in 24-hour format
#OWNER       : PIXL Flight Model       (PIXL will use this to indicate which instrument took the data.)
#NPOINTS     : 4096     Number of data points in the spectrum (This can be zero for configuration only files)
#NCOLUMNS    : 2     Number of data columns in the spectrum (This can be zero for configuration only files)
#XUNITS      : eV
#YUNITS      : COUNTS
#DATATYPE    : YY
#XPERCHAN    : 7.862, 7.881   eV per channel (separate by commas if more than one detector)
#OFFSET      : 18.5, -22.4         eV of first channel  (separate by commas if more than one detector
#SIGNALTYPE  : XRF
#YP_TEMP     : 2.364
#LIVETIME    : 8.54791, 8.54158   seconds (separate by commas if more than one detector)
#REALTIME    : 10, 10.0   seconds (separate by commas if more than one detector)
#SPECTRUM    : start of spectrum data
0, 0
0, 0
0, 0
0, 0
0, 0
0, 0
0, 0
0, 0
2, 0
0, 1
1, 0
44, 34
42, 69
2, 5
10, 7
88, 75
355, 347
96, 82
2, 5
4, 2
2, 2
1, 3
5, 1
13, 6
35, 25
28, 32
42, 23
52, 13
10, 2
2, 6
2, 2
3, 5
2, 3
10, 20
18, 16
6, 4
6, 2
9, 8
2, 4
4, 18
19, 24
38, 40
42, 26
11, 25
6, 14
15, 11
14, 12
8, 8
99, 97
586, 521
438, 339
56, 32
25, 18
71, 69
159, 162
59, 121
46, 68
444, 552
1958, 2115
1432, 1289
171, 129
15, 20
14, 36
87, 136
310, 302
182, 170
34, 20
5, 7
10, 7
9, 11
6, 7
3, 4
5, 6
7, 3
7, 3
8, 3
1, 5
2, 8
4, 4
6, 7
2, 2
4, 2
4, 2
3, 4
2, 5
4, 6
2, 7
2, 6
3, 6
3, 4
3, 2
2, 3
2, 2
2, 2
3, 2
7, 1
1, 4
2, 1
1, 0
0, 2
1, 1
5, 2
4, 1
2, 2
2, 0
1, 1
6, 2
4, 5
3, 2
4, 2
0, 2
1, 2
6, 1
2, 2
4, 2
3, 1
5, 6
0, 2
2, 0
3, 1
0, 1
2, 4
1, 1
0, 0
2, 2
2, 1
1, 0
1, 0
0, 3
0, 0
1, 1
0, 0
1, 2
0, 0
1, 2
0, 0
2, 1
1, 0
0, 3
1, 0
1, 0
0, 1
2, 0
0, 0
0, 0
1, 0
0, 0
2, 0
0, 1
0, 0
0, 1
0, 0
0, 0
1, 0
0, 1
0, 3
0, 0
0, 0
0, 0
0, 1
0, 0
0, 0
0, 0
0, 0
1, 0
0, 0
1, 0
0, 0
0, 0
2, 0
0, 1
0, 0
0, 2
0, 0
1, 0
1, 0
0, 0
0, 0
0, 1
0, 0
0, 0
0, 0
0, 1
0, 2
0, 0
0, 0
0, 0
0, 0
0, 1
0, 0
0, 0
0, 0
0, 0
0, 0
1, 0
0, 0
0, 0
0, 0
1, 0
0, 0
0, 0
0, 0
0, 0
0, 0
0, 0
0, 0
0, 0
0, 0
0, 0
0, 0
0, 0
0, 0
0, 0
0, 0
0, 0
0, 0
0, 0
0, 0
0, 0
0, 0
0, 0
0, 0
0, 0
0, 0
0, 0
0, 0
0, 0
0, 0
0, 0
0, 0
0, 0
0, 0
0, 0
0, 0
0, 0
0, 0
0, 0
0, 0
0, 0
0, 0
0, 0
0, 0
0, 0
0, 0
0, 0
0, 0
0, 0
0, 0
0, 0
0, 0
0, 0
0, 0
0, 0
0, 0
0, 0
0, 0
0, 0
0, 0
0, 0
0, 0
0, 0
0, 0
0, 0
0, 0
0, 0
0, 0
0, 0
0, 0
0, 0
0, 0
0, 0
0, 0
0, 0
0, 0
0, 0
0, 0
0, 0
0, 0
0, 0
0, 0
0, 0
0, 0
0, 0
0, 0
0, 0
0, 0
0, 0
0, 0
0, 0
0, 0
0, 0
0, 0
0, 0
0, 0
#ENDOFDATA     end of spectrum data

File: ps__0852shot_2503.msa
#FORMAT      : EMSA/MAS spectral data file
#VERSION     : TC202v2.0 PIXL
#TITLE       : N/A
#DATE        :       Date in the format DD-MMM-YYYY, for example 07-JUL-2010
#TIME        :             The time of day at which the spectrum was recorded, in 24-hour format
#OWNER       : PIXL Flight Model       (PIXL will use this to indicate which instrument took the data.)
#NPOINTS     : 4096     Number of data points in the spectrum (This can be zero for configuration only files)
#NCOLUMNS    : 2     Number of data columns in the spectrum (This can be zero for configuration only files)
#XUNITS      : eV
#YUNITS      : COUNTS
#DATATYPE    : YY
#XPERCHAN    : 7.862, 7.881   eV per channel (separate by commas if more than one detector)
#OFFSET      : 18.5, -22.4         eV of first channel  (separate by commas if more than one detector
#SIGNALTYPE  : XRF
#YP_TEMP     : 2.075
#LIVETIME    : 8.55736, 8.54779   seconds (separate by commas if more than one detector)
#REALTIME    : 10, 10.0   seconds (separate by commas if more than one detector)
#SPECTRUM    : start of spectrum data
0, 0
0, 0
0, 0
0, 0
0, 0
0, 0
0, 0
0, 0
1, 0
2, 0
3, 4
49, 36
60, 36
4, 9
8, 6
87, 66
367, 359
97, 69
4, 3
1, 1
2, 1
4, 4
2, 3
13, 5
42, 29
52, 39
57, 26
17, 8
6, 3
10, 2
1, 1
2, 2
2, 2
23, 10
17, 21
6, 5
5, 4
3, 3
9, 8
5, 4
14, 20
61, 52
54, 32
15, 26
8, 19
26, 15
17, 15
18, 12
185, 178
1162, 784
801, 499
112, 41
40, 24
105, 84
228, 193
102, 75
26, 34
399, 429
1913, 1901
1334, 1108
156, 105
18, 16
15, 23
96, 77
278, 269
194, 160
27, 17
7, 5
10, 8
4, 6
3, 0
5, 2
5, 3
7, 5
5, 3
7, 6
5, 9
2, 4
3, 4
7, 6
2, 4
6, 3
4, 2
3, 6
4, 9
7, 2
6, 16
4, 8
3, 3
1, 0
2, 3
2, 2
2, 1
3, 2
5, 5
4, 9
2, 2
3, 2
6, 4
1, 3
1, 2
3, 2
6, 1
6, 1
1, 3
1, 4
1, 3
2, 2
2, 4
6, 3
2, 1
0, 0
1, 3
0, 0
1, 2
2, 5
5, 2
4, 3
1, 1
0, 2
1, 1
1, 2
2, 1
1, 0
0, 1
1, 1
1, 0
0, 1
1, 0
0, 3
1, 2
0, 0
0, 1
1, 1
0, 1
0, 1
0, 0
0, 0
0, 0
0, 0
0, 0
0, 0
1, 0
0, 1
1, 0
0, 0
1, 1
0, 1
0, 1
1, 0
0, 1
0, 0
0, 0
0, 0
0, 0
0, 1
1, 0
2, 0
0, 0
0, 1
0, 1
2, 0
1, 0
0, 0
0, 0
1, 1
0, 0
0, 2
0, 0
0, 0
0, 0
0, 0
0, 1
0, 0
0, 0
0, 0
0, 0
0, 0
0, 0
0, 0
0, 1
0, 0
0, 1
1, 0
0, 0
0, 0
0, 0
0, 0
0, 0
0, 1
0, 0
0, 0
0, 0
0, 0
0, 0
0, 0
1, 0
0, 0
0, 0
0, 0
0, 0
0, 0
0, 0
0, 0
0, 0
0, 0
0, 0
0, 0
0, 0
0, 0
0, 0
0, 0
0, 0
0, 0
0, 0
0, 0
0, 0
0, 0
0, 0
0, 0
0, 0
1, 0
0, 0
0, 0
0, 0
0, 0
0, 0
0, 0
0, 0
0, 0
0, 0
0, 0
0, 0
0, 0
0, 0
0, 0
0, 0
0, 0
0, 0
0, 0
0, 0
0, 0
0, 0
0, 0
0, 0
0, 0
0, 0
0, 0
0, 0
0, 0
0, 0
0, 0
0, 0
0, 0
0, 0
0, 0
0, 0
0, 0
0, 0
0, 0
0, 0
0, 0
0, 0
0, 0
0, 0
0, 0
0, 0
0, 0
0, 0
0, 0
0, 0
0, 0
0, 0
0, 0
0, 0
0, 0
0, 0
0, 0
0, 0
0, 0
0, 0
0, 0
0, 0
0, 0
0, 0
0, 0
0, 0
0, 0
0, 0
0, 0
0, 0
0, 0
0, 0
0, 0
#ENDOFDATA     end of spectrum data

File: ps__0852shot_2504.msa
#FORMAT      : EMSA/MAS spectral data file
#VERSION     : TC202v2.0 PIXL
#TITLE       : N/A
#DATE        :       Date in the format DD-MMM-YYYY, for example 07-JUL-2010
#TIME        :             The time of day at which the spectrum was recorded, in 24-hour format
#OWNER       : PIXL Flight Model       (PIXL will use this to indicate which instrument took the data.)
#NPOINTS     : 4096     Number of data points in the spectrum (This can be zero for configuration only files)
#NCOLUMNS    : 2     Number of data columns in the spectrum (This can be zero for configuration only files)
#XUNITS      : eV
#YUNITS      : COUNTS
#DATATYPE    : YY
#XPERCHAN    : 7.862, 7.881   eV per channel (separate by commas if more than one detector)
#OFFSET      : 18.5, -22.4         eV of first channel  (separate by commas if more than one detector
#SIGNALTYPE  : XRF
#YP_TEMP     : 2.235
#LIVETIME    : 8.57097, 8.54088   seconds (separate by commas if more than one detector)
#REALTIME    : 10, 10.0   seconds (separate by commas if more than one detector)
#SPECTRUM    : start of spectrum data
0, 0
0, 0
0, 0
0, 0
0, 0
0, 0
0, 0
0, 0
1, 0
0, 0
2, 2
58, 52
62, 66
4, 3
5, 5
96, 79
458, 403
104, 88
3, 4
3, 1
1, 2
1, 6
1, 6
9, 4
38, 19
53, 33
44, 17
15, 9
3, 7
3, 1
1, 0
2, 3
20, 2
37, 11
14, 12
5, 4
2, 4
7, 7
3, 3
2, 4
12, 6
20, 17
18, 19
13, 13
6, 10
10, 11
13, 15
3, 7
41, 32
192, 158
159, 104
33, 39
23, 44
66, 54
101, 83
37, 39
38, 39
453, 518
2164, 2192
1506, 1220
175, 125
16, 9
22, 19
101, 107
306, 309
230, 194
35, 22
7, 7
15, 11
10, 1
8, 3
3, 3
3, 1
6, 9
4, 7
5, 6
3, 3
4, 4
4, 1
9, 4
6, 4
5, 2
2, 4
1, 13
4, 13
6, 5
5, 6
4, 1
2, 4
1, 3
4, 6
6, 2
4, 3
5, 3
1, 1
4, 4
5, 2
3, 2
0, 2
2, 2
1, 2
4, 2
1, 3
4, 4
2, 5
1, 0
4, 5
2, 1
0, 2
2, 2
3, 1
2, 5
5, 3
1, 2
1, 1
2, 1
2, 6
3, 2
3, 0
0, 0
0, 1
4, 1
1, 3
0, 1
2, 2
1, 1
1, 0
0, 0
0, 1
1, 2
2, 2
0, 1
4, 1
1, 3
1, 0
0, 0
0, 0
1, 0
1, 0
0, 1
1, 0
1, 0
1, 2
2, 0
1, 1
1, 1
0, 1
0, 1
0, 1
0, 0
0, 0
0, 0
0, 0
0, 0
1, 0
1, 0
1, 0
0, 0
0, 0
0, 0
0, 0
0, 0
1, 0
0, 1
0, 1
1, 0
1, 1
0, 0
0, 0
0, 0
0, 0
0, 1
0, 0
1, 1
0, 0
0, 0
0, 0
0, 1
0, 0
0, 0
0, 0
0, 0
0, 0
1, 0
0, 0
0, 0
0, 0
0, 0
0, 1
0, 0
0, 0
0, 0
0, 0
0, 0
0, 0
0, 0
0, 0
0, 0
0, 0
0, 0
0, 0
0, 0
0, 0
0, 0
0, 0
0, 0
0, 0
0, 0
0, 0
0, 0
0, 0
0, 0
0, 0
0, 0
0, 0
0, 0
0, 0
1, 0
0, 0
0, 0
0, 0
0, 0
0, 0
0, 0
0, 0
0, 0
0, 0
0, 0
0, 0
0, 0
0, 0
0, 0
0, 0
0, 0
0, 0
0, 0
0, 0
0, 0
0, 0
0, 0
0, 0
0, 0
0, 0
0, 0
0, 0
0, 0
0, 0
0, 0
0, 0
0, 0
0, 0
0, 0
0, 0
0, 0
0, 0
0, 0
0, 0
0, 0
0, 0
0, 0
0, 0
0, 0
0, 0
0, 0
0, 0
0, 0
0, 0
0, 0
0, 0
0, 0
0, 0
0, 0
0, 0
0, 0
0, 0
0, 0
0, 0
0, 0
0, 0
0, 0
0, 0
0, 0
0, 0
0, 0
0, 0
0, 0
0, 0
0, 0
0, 0
0, 0
0, 0
0, 0
0, 0
0, 0
#ENDOFDATA     end of spectrum data

File: ps__0852shot_2505.msa
#FORMAT      : EMSA/MAS spectral data file
#VERSION     : TC202v2.0 PIXL
#TITLE       : N/A
#DATE        :       Date in the format DD-MMM-YYYY, for example 07-JUL-2010
#TIME        :             The time of day at which the spectrum was recorded, in 24-hour format
#OWNER       : PIXL Flight Model       (PIXL will use this to indicate which instrument took the data.)
#NPOINTS     : 4096     Number of data points in the spectrum (This can be zero for configuration only files)
#NCOLUMNS    : 2     Number of data columns in the spectrum (This can be zero for configuration only files)
#XUNITS      : eV
#YUNITS      : COUNTS
#DATATYPE    : YY
#XPERCHAN    : 7.862, 7.881   eV per channel (separate by commas if more than one detector)
#OFFSET      : 18.5, -22.4         eV of first channel  (separate by commas if more than one detector
#SIGNALTYPE  : XRF
#YP_TEMP     : 2.3
#LIVETIME    : 8.60016, 8.54357   seconds (separate by commas if more than one detector)
#REALTIME    : 10, 10.0   seconds (separate by commas if more than one detector)
#SPECTRUM    : start of spectrum data
0, 0
0, 0
0, 0
0, 0
0, 0
0, 0
0, 0
0, 0
0, 1
1, 0
2, 4
58, 42
61, 44
5, 2
5, 6
88, 90
431, 391
108, 102
3, 2
1, 1
1, 2
3, 9
7, 1
8, 11
21, 23
67, 34
33, 23
9, 9
6, 1
0, 2
4, 1
1, 2
13, 1
58, 5
34, 9
6, 3
3, 2
4, 4
4, 4
3, 8
3, 5
17, 23
18, 23
9, 17
5, 4
13, 7
8, 5
9, 11
20, 23
92, 101
128, 64
54, 28
27, 32
53, 57
92, 77
19, 27
31, 44
491, 607
2213, 2264
1572, 1269
203, 134
18, 14
26, 27
114, 109
373, 354
211, 185
34, 26
6, 4
28, 16
22, 6
12, 2
1, 4
3, 7
7, 7
6, 6
2, 8
4, 9
3, 25
4, 27
4, 8
3, 5
6, 5
3, 4
6, 14
3, 14
6, 5
10, 2
5, 4
3, 4
2, 2
1, 5
5, 1
1, 2
2, 5
2, 5
1, 0
4, 2
4, 2
6, 4
0, 2
1, 2
5, 4
6, 4
3, 2
1, 2
1, 3
5, 5
3, 1
2, 0
2, 7
1, 2
3, 1
2, 2
0, 1
2, 0
4, 2
4, 8
5, 1
2, 5
1, 3
4, 2
1, 2
4, 0
1, 1
1, 2
0, 1
2, 0
0, 0
4, 0
0, 1
0, 0
0, 2
1, 2
3, 2
2, 1
2, 0
1, 1
0, 0
0, 2
1, 0
0, 1
0, 0
0, 1
3, 0
0, 2
2, 1
0, 1
1, 1
0, 1
2, 0
1, 0
0, 0
0, 0
0, 0
0, 1
0, 0
0, 0
0, 0
1, 1
1, 0
0, 1
0, 1
0, 0
0, 0
0, 0
0, 0
0, 0
0, 0
1, 0
0, 0
0, 0
1, 0
0, 1
0, 0
0, 0
2, 0
0, 0
0, 0
0, 0
0, 1
0, 0
0, 0
1, 0
1, 0
0, 0
0, 0
1, 0
0, 0
1, 0
0, 0
0, 0
0, 0
0, 1
0, 0
0, 0
0, 0
0, 0
0, 0
0, 0
1, 0
0, 0
0, 0
0, 0
0, 0
0, 0
0, 0
0, 0
0, 0
0, 0
0, 0
0, 1
0, 0
0, 0
0, 0
0, 0
0, 0
0, 0
0, 0
0, 0
0, 0
0, 0
0, 0
0, 0
0, 0
0, 0
0, 0
0, 0
0, 0
0, 0
0, 0
0, 0
0, 0
0, 0
0, 0
0, 0
0, 0
0, 0
0, 0
0, 0
0, 0
0, 0
0, 0
0, 0
0, 0
0, 0
0, 0
0, 0
0, 0
0, 0
0, 0
0, 0
0, 0
0, 0
0, 0
0, 0
0, 0
0, 0
0, 0
0, 0
0, 0
0, 0
0, 0
0, 0
0, 0
0, 0
0, 0
0, 0
0, 0
0, 0
0, 0
0, 0
0, 0
0, 0
0, 0
0, 0
0, 0
0, 0
0, 0
0, 0
0, 0
0, 0
0, 0
0, 0
0, 0
0, 0
0, 0
0, 0
0, 0
0, 0
0, 0
0, 0
0, 0
0, 0
0, 0
#ENDOFDATA     end of spectrum data

File: ps__0852shot_2506.msa
#FORMAT      : EMSA/MAS spectral data file
#VERSION     : TC202v2.0 PIXL
#TITLE       : N/A
#DATE        :       Date in the format DD-MMM-YYYY, for example 07-JUL-2010
#TIME        :             The time of day at which the spectrum was recorded, in 24-hour format
#OWNER       : PIXL Flight Model       (PIXL will use this to indicate which instrument took the data.)
#NPOINTS     : 4096     Number of data points in the spectrum (This can be zero for configuration only files)
#NCOLUMNS    : 2     Number of data columns in the spectrum (This can be zero for configuration only files)
#XUNITS      : eV
#YUNITS      : COUNTS
#DATATYPE    : YY
#XPERCHAN    : 7.862, 7.881   eV per channel (separate by commas if more than one detector)
#OFFSET      : 18.5, -22.4         eV of first channel  (separate by commas if more than one detector
#SIGNALTYPE  : XRF
#YP_TEMP     : 2.364
#LIVETIME    : 8.55933, 8.55629   seconds (separate by commas if more than one detector)
#REALTIME    : 10, 10.0   seconds (separate by commas if more than one detector)
#SPECTRUM    : start of spectrum data
0, 0
0, 0
0, 0
0, 0
0, 0
0, 0
0, 0
0, 0
1, 0
5, 1
3, 1
37, 52
66, 43
2, 1
5, 4
106, 84
447, 361
106, 75
2, 5
3, 0
5, 7
16, 15
4, 8
4, 3
29, 24
52, 29
37, 67
15, 50
4, 6
2, 4
4, 3
3, 3
5, 1
17, 14
19, 14
4, 1
3, 5
4, 9
6, 12
4, 1
5, 2
11, 11
13, 11
14, 6
7, 1
3, 6
3, 4
4, 8
3, 6
27, 9
37, 7
44, 6
16, 27
55, 30
64, 62
27, 21
40, 38
494, 559
2272, 2190
1524, 1253
202, 130
14, 14
18, 16
94, 105
323, 334
232, 210
31, 28
11, 15
19, 19
20, 3
8, 2
5, 5
2, 5
3, 3
6, 11
2, 19
5, 10
7, 14
4, 16
6, 5
3, 2
5, 0
4, 4
2, 5
3, 4
0, 6
3, 3
3, 1
3, 2
6, 0
5, 4
4, 0
3, 2
4, 3
4, 1
4, 3
3, 2
1, 4
3, 5
5, 1
4, 1
3, 5
5, 0
3, 3
0, 0
2, 3
1, 3
2, 1
4, 4
0, 2
3, 0
0, 2
3, 2
2, 1
2, 2
2, 3
3, 7
7, 0
0, 2
2, 0
3, 1
3, 3
1, 2
3, 1
2, 0
1, 1
0, 0
1, 0
2, 3
0, 2
2, 0
0, 2
0, 2
1, 1
0, 0
0, 1
2, 1
3, 0
1, 0
1, 0
0, 4
0, 2
2, 0
0, 0
1, 0
1, 0
0, 0
0, 2
0, 0
2, 0
0, 0
1, 1
0, 0
0, 1
1, 0
0, 0
0, 0
0, 2
0, 0
0, 0
0, 0
0, 0
2, 1
0, 0
0, 1
0, 2
1, 0
0, 0
1, 1
0, 0
0, 1
0, 0
1, 1
0, 0
0, 0
0, 0
0, 1
0, 0
0, 0
0, 0
0, 0
0, 0
0, 0
0, 0
0, 1
0, 0
0, 0
0, 0
0, 0
0, 0
0, 0
0, 0
0, 0
0, 0
0, 0
0, 0
0, 0
0, 0
0, 0
0, 0
0, 0
0, 0
0, 0
0, 0
1, 0
0, 0
0, 0
0, 0
0, 0
0, 0
0, 0
0, 0
0, 0
0, 0
0, 0
0, 0
0, 0
0, 0
0, 0
1, 0
0, 0
0, 0
0, 0
0, 0
0, 0
0, 0
0, 0
0, 0
0, 0
0, 0
0, 0
0, 0
0, 0
0, 0
0, 0
0, 0
0, 0
0, 0
0, 0
0, 0
0, 0
0, 0
0, 0
0, 0
0, 0
0, 0
0, 0
0, 0
0, 0
0, 0
0, 0
0, 0
0, 0
0, 0
0, 0
0, 0
0, 0
0, 0
0, 0
0, 0
0, 0
0, 0
0, 0
0, 0
0, 0
0, 0
0, 0
0, 0
0, 0
0, 0
0, 0
0, 0
0, 0
0, 0
0, 0
0, 0
0, 0
0, 0
0, 0
0, 0
0, 0
0, 0
0, 0
0, 0
0, 0
0, 0
0, 0
0, 0
0, 0
0, 0
0, 0
0, 0
0, 0
0, 0
#ENDOFDATA     end of spectrum data

File: ps__0852shot_2507.msa
#FORMAT      : EMSA/MAS spectral data file
#VERSION     : TC202v2.0 PIXL
#TITLE       : N/A
#DATE        :       Date in the format DD-MMM-YYYY, for example 07-JUL-2010
#TIME        :             The time of day at which the spectrum was recorded, in 24-hour format
#OWNER       : PIXL Flight Model       (PIXL will use this to indicate which instrument took the data.)
#NPOINTS     : 4096     Number of data points in the spectrum (This can be zero for configuration only files)
#NCOLUMNS    : 2     Number of data columns in the spectrum (This can be zero for configuration only files)
#XUNITS      : eV
#YUNITS      : COUNTS
#DATATYPE    : YY
#XPERCHAN    : 7.862, 7.881   eV per channel (separate by commas if more than one detector)
#OFFSET      : 18.5, -22.4         eV of first channel  (separate by commas if more than one detector
#SIGNALTYPE  : XRF
#YP_TEMP     : 2.3
#LIVETIME    : 8.54996, 8.55046   seconds (separate by commas if more than one detector)
#REALTIME    : 10, 10.0   seconds (separate by commas if more than one detector)
#SPECTRUM    : start of spectrum data
0, 0
0, 0
0, 0
0, 0
0, 0
0, 0
0, 0
0, 0
0, 1
0, 3
3, 3
32, 45
51, 58
4, 4
7, 5
105, 98
433, 368
118, 76
7, 3
2, 1
4, 7
29, 32
17, 15
7, 6
33, 42
69, 44
41, 41
17, 38
4, 5
1, 2
3, 0
4, 1
3, 4
16, 18
22, 21
4, 6
4, 7
6, 8
3, 4
5, 6
11, 6
12, 5
16, 9
8, 11
5, 3
7, 7
7, 9
9, 2
5, 4
14, 13
29, 6
42, 8
21, 17
41, 47
64, 61
23, 35
40, 49
453, 499
2339, 2180
1643, 1246
192, 117
8, 22
26, 14
118, 138
371, 335
234, 187
38, 34
14, 8
14, 12
9, 3
6, 2
5, 3
5, 3
5, 8
8, 8
5, 7
12, 15
7, 10
2, 4
4, 7
4, 2
5, 3
4, 5
4, 1
5, 4
5, 3
10, 3
6, 3
3, 0
3, 4
3, 2
4, 3
3, 2
2, 3
4, 2
4, 2
3, 2
1, 0
4, 3
2, 2
2, 4
2, 3
3, 0
1, 5
3, 1
3, 1
3, 3
2, 0
0, 2
0, 2
1, 1
2, 0
1, 1
2, 4
2, 3
2, 3
1, 3
2, 3
1, 0
3, 4
0, 3
2, 2
4, 2
1, 1
0, 0
2, 1
1, 1
1, 0
1, 0
0, 1
1, 0
1, 0
1, 0
3, 1
0, 0
1, 1
2, 2
0, 0
0, 1
1, 1
2, 0
2, 1
0, 2
0, 0
0, 1
2, 0
1, 0
1, 0
0, 1
0, 0
1, 0
0, 1
2, 0
1, 0
0, 0
2, 0
0, 0
0, 1
0, 0
0, 0
0, 0
0, 0
0, 0
0, 0
1, 1
1, 0
0, 0
0, 0
0, 0
2, 0
0, 0
0, 0
1, 0
0, 0
0, 0
0, 0
0, 0
0, 0
0, 0
0, 0
0, 0
0, 0
0, 0
0, 0
0, 0
0, 0
0, 0
0, 0
0, 0
0, 0
0, 0
0, 0
0, 0
0, 0
0, 0
0, 0
0, 0
1, 0
0, 1
0, 0
0, 0
0, 0
0, 0
0, 0
0, 0
0, 0
0, 0
0, 0
0, 0
0, 0
0, 0
0, 0
0, 0
0, 0
0, 0
0, 0
0, 0
0, 0
0, 0
0, 0
0, 0
0, 0
0, 0
0, 0
0, 0
0, 0
0, 0
0, 0
0, 0
0, 0
0, 0
0, 0
0, 0
0, 0
0, 0
0, 0
0, 0
0, 0
0, 0
0, 0
0, 0
0, 0
0, 0
0, 0
0, 0
0, 0
0, 0
0, 0
0, 0
0, 0
0, 0
0, 0
0, 0
0, 0
0, 0
0, 0
0, 0
0, 0
0, 0
0, 0
0, 0
0, 0
0, 0
0, 0
0, 0
0, 0
0, 0
0, 0
0, 0
0, 0
0, 0
0, 0
0, 0
0, 0
0, 0
0, 0
0, 0
0, 0
0, 0
0, 0
0, 0
0, 0
0, 0
0, 0
0, 0
0, 0
0, 0
0, 0
0, 0
0, 0
0, 0
0, 0
0, 0
0, 0
#ENDOFDATA     end of spectrum data

File: ps__0852shot_2508.msa
#FORMAT      : EMSA/MAS spectral data file
#VERSION     : TC202v2.0 PIXL
#TITLE       : N/A
#DATE        :       Date in the format DD-MMM-YYYY, for example 07-JUL-2010
#TIME        :             The time of day at which the spectrum was recorded, in 24-hour format
#OWNER       : PIXL Flight Model       (PIXL will use this to indicate which instrument took the data.)
#NPOINTS     : 4096     Number of data points in the spectrum (This can be zero for configuration only files)
#NCOLUMNS    : 2     Number of data columns in the spectrum (This can be zero for configuration only files)
#XUNITS      : eV
#YUNITS      : COUNTS
#DATATYPE    : YY
#XPERCHAN    : 7.862, 7.881   eV per channel (separate by commas if more than one detector)
#OFFSET      : 18.5, -22.4         eV of first channel  (separate by commas if more than one detector
#SIGNALTYPE  : XRF
#YP_TEMP     : 2.171
#LIVETIME    : 8.56738, 8.54664   seconds (separate by commas if more than one detector)
#REALTIME    : 10, 10.0   seconds (separate by commas if more than one detector)
#SPECTRUM    : start of spectrum data
0, 0
0, 0
0, 0
0, 0
0, 0
0, 0
0, 0
0, 0
3, 0
1, 1
1, 3
29, 43
55, 29
5, 5
11, 6
98, 96
441, 446
92, 95
4, 8
5, 7
23, 29
134, 119
45, 53
13, 15
48, 59
80, 44
57, 34
19, 17
6, 5
2, 2
3, 4
2, 3
3, 6
77, 85
125, 140
23, 19
17, 17
14, 25
8, 7
1, 4
8, 11
17, 26
9, 17
9, 15
4, 7
4, 11
7, 9
2, 7
3, 15
23, 18
32, 11
37, 9
14, 6
34, 34
53, 63
25, 49
15, 47
432, 566
1960, 2248
1401, 1391
166, 140
14, 26
25, 22
116, 118
309, 357
204, 202
29, 30
15, 9
9, 17
12, 9
9, 7
8, 6
7, 4
5, 9
6, 3
6, 13
6, 15
5, 4
4, 5
1, 2
6, 5
5, 4
5, 4
7, 10
1, 3
0, 0
1, 5
7, 5
2, 2
7, 3
1, 6
3, 8
3, 3
6, 3
7, 4
1, 3
1, 3
3, 1
5, 2
2, 3
2, 4
3, 4
5, 4
1, 3
1, 1
4, 3
5, 3
2, 1
3, 2
1, 3
0, 1
1, 1
1, 1
0, 5
4, 3
2, 4
3, 2
3, 4
2, 4
2, 0
2, 1
2, 6
1, 1
2, 3
3, 2
0, 2
1, 0
1, 3
2, 3
0, 1
0, 1
4, 2
2, 2
0, 2
2, 1
3, 2
0, 1
1, 0
2, 0
0, 1
0, 1
0, 0
0, 1
0, 2
0, 0
1, 1
1, 1
2, 1
0, 1
1, 0
0, 0
0, 1
0, 0
0, 0
0, 1
0, 2
0, 2
0, 0
0, 0
0, 0
2, 0
0, 0
0, 0
0, 0
0, 1
0, 0
1, 1
0, 1
0, 1
0, 1
0, 0
2, 0
0, 0
0, 1
0, 0
0, 0
0, 1
0, 0
1, 0
0, 0
0, 0
0, 0
0, 0
0, 0
1, 0
0, 0
0, 1
0, 0
0, 0
0, 0
0, 0
0, 0
0, 0
0, 0
0, 0
0, 0
0, 0
0, 0
0, 0
0, 0
0, 0
0, 0
0, 0
0, 0
0, 0
0, 0
0, 0
0, 0
0, 0
0, 0
0, 0
0, 0
0, 0
0, 0
0, 0
0, 0
0, 0
0, 0
0, 0
0, 0
0, 0
0, 0
0, 0
0, 0
0, 0
0, 0
0, 0
0, 0
0, 0
0, 0
0, 0
0, 0
0, 0
0, 0
0, 0
0, 0
1, 0
0, 0
0, 0
0, 0
0, 0
0, 0
0, 0
0, 0
0, 0
0, 0
0, 0
0, 0
0, 0
0, 0
0, 0
0, 0
0, 0
0, 0
0, 0
0, 0
0, 0
0, 0
0, 0
0, 0
0, 0
0, 0
0, 0
0, 0
0, 0
0, 0
0, 0
0, 0
0, 0
0, 0
0, 0
0, 0
0, 0
0, 0
0, 0
0, 0
0, 0
0, 0
0, 0
0, 0
0, 0
0, 0
0, 0
0, 0
0, 0
0, 0
0, 0
0, 0
0, 0
0, 0
0, 0
0, 0
0, 0
0, 0
#ENDOFDATA     end of spectrum data

File: ps__0852shot_2509.msa
#FORMAT      : EMSA/MAS spectral data file
#VERSION     : TC202v2.0 PIXL
#TITLE       : N/A
#DATE        :       Date in the format DD-MMM-YYYY, for example 07-JUL-2010
#TIME        :             The time of day at which the spectrum was recorded, in 24-hour format
#OWNER       : PIXL Flight Model       (PIXL will use this to indicate which instrument took the data.)
#NPOINTS     : 4096     Number of data points in the spectrum (This can be zero for configuration only files)
#NCOLUMNS    : 2     Number of data columns in the spectrum (This can be zero for configuration only files)
#XUNITS      : eV
#YUNITS      : COUNTS
#DATATYPE    : YY
#XPERCHAN    : 7.862, 7.881   eV per channel (separate by commas if more than one detector)
#OFFSET      : 18.5, -22.4         eV of first channel  (separate by commas if more than one detector
#SIGNALTYPE  : XRF
#YP_TEMP     : 2.171
#LIVETIME    : 8.59741, 8.59159   seconds (separate by commas if more than one detector)
#REALTIME    : 10, 10.0   seconds (separate by commas if more than one detector)
#SPECTRUM    : start of spectrum data
0, 0
0, 0
0, 0
0, 0
0, 0
0, 0
0, 0
0, 1
0, 2
0, 1
0, 3
41, 41
51, 61
8, 6
1, 6
81, 99
406, 401
103, 110
18, 18
6, 21
44, 47
280, 243
94, 96
32, 26
56, 59
55, 47
40, 24
19, 16
2, 3
2, 2
6, 2
3, 8
7, 7
85, 97
126, 130
26, 19
33, 21
30, 29
5, 4
4, 4
4, 7
10, 12
11, 17
9, 18
3, 11
7, 8
4, 4
5, 8
10, 26
26, 49
22, 17
7, 10
6, 26
37, 51
67, 51
34, 11
35, 44
381, 541
1890, 2089
1398, 1212
157, 118
15, 18
24, 20
71, 104
303, 318
195, 194
38, 18
5, 10
19, 21
8, 6
10, 9
15, 5
21, 7
7, 5
8, 6
5, 7
7, 1
12, 3
8, 7
6, 5
2, 5
5, 6
2, 3
5, 10
2, 8
5, 9
3, 4
0, 4
1, 9
6, 5
3, 2
4, 3
2, 6
3, 3
5, 2
4, 0
8, 4
4, 8
2, 7
3, 0
2, 1
0, 3
0, 1
5, 2
2, 2
4, 5
4, 1
1, 3
2, 3
1, 3
3, 4
2, 3
1, 4
2, 2
2, 0
1, 2
6, 1
2, 6
1, 1
0, 1
0, 2
0, 2
4, 3
1, 2
1, 3
1, 2
2, 1
0, 2
1, 1
2, 0
1, 1
1, 2
1, 0
0, 0
0, 1
2, 1
2, 1
1, 1
0, 0
0, 1
1, 0
1, 0
0, 2
0, 0
0, 0
2, 0
1, 0
0, 0
1, 0
0, 0
0, 0
0, 0
0, 0
0, 0
0, 0
0, 0
0, 0
0, 0
0, 0
0, 1
0, 0
0, 0
1, 0
0, 0
0, 0
0, 0
0, 0
0, 0
0, 0
0, 0
0, 0
0, 0
1, 0
0, 0
0, 2
1, 3
0, 0
0, 0
0, 0
0, 0
0, 0
0, 0
0, 0
0, 0
0, 1
0, 0
0, 1
0, 0
0, 0
1, 0
0, 0
0, 0
0, 0
0, 0
0, 0
0, 0
0, 0
0, 0
0, 0
0, 0
0, 0
0, 0
0, 0
0, 0
0, 0
0, 0
0, 0
0, 0
0, 0
0, 0
0, 0
0, 0
0, 0
0, 0
0, 0
0, 0
0, 0
0, 0
0, 0
0, 0
0, 0
0, 0
0, 0
0, 0
0, 0
0, 0
0, 0
0, 0
0, 0
0, 0
0, 0
0, 0
0, 0
0, 0
0, 0
0, 0
0, 0
0, 0
0, 0
0, 0
0, 0
0, 0
0, 0
0, 0
0, 0
0, 0
0, 0
0, 0
0, 0
0, 0
0, 0
0, 0
0, 0
0, 0
0, 0
0, 0
0, 0
0, 0
0, 0
0, 0
0, 0
0, 0
0, 0
0, 0
0, 0
0, 0
0, 0
0, 0
0, 0
0, 0
0, 0
0, 0
0, 0
0, 0
0, 0
0, 0
0, 0
0, 0
0, 0
0, 0
0, 0
0, 0
0, 0
0, 0
0, 0
0, 0
0, 0
0, 0
0, 0
0, 0
0, 0
0, 0
0, 0
0, 0
#ENDOFDATA     end of spectrum data