Folder: data-repository/host_upload/06-09-2024/ps_0852/dump3 (part 42)

File: ps__0852shot_2374.msa
#FORMAT      : EMSA/MAS spectral data file
#VERSION     : TC202v2.0 PIXL
#TITLE       : N/A
#DATE        :       Date in the format DD-MMM-YYYY, for example 07-JUL-2010
#TIME        :             The time of day at which the spectrum was recorded, in 24-hour format
#OWNER       : PIXL Flight Model       (PIXL will use this to indicate which instrument took the data.)
#NPOINTS     : 4096     Number of data points in the spectrum (This can be zero for configuration only files)
#NCOLUMNS    : 2     Number of data columns in the spectrum (This can be zero for configuration only files)
#XUNITS      : eV
#YUNITS      : COUNTS
#DATATYPE    : YY
#XPERCHAN    : 7.862, 7.881   eV per channel (separate by commas if more than one detector)
#OFFSET      : 18.5, -22.4         eV of first channel  (separate by commas if more than one detector
#SIGNALTYPE  : XRF
#YP_TEMP     : 2.716
#LIVETIME    : 8.57772, 8.37371   seconds (separate by commas if more than one detector)
#REALTIME    : 10, 10.0   seconds (separate by commas if more than one detector)
#SPECTRUM    : start of spectrum data
0, 0
0, 0
0, 0
0, 0
0, 0
0, 0
0, 0
0, 0
1, 1
1, 0
1, 1
37, 20
68, 43
7, 8
4, 6
104, 94
537, 418
108, 93
8, 5
1, 1
0, 2
14, 7
8, 2
10, 13
62, 69
34, 48
25, 23
17, 14
7, 4
5, 2
2, 2
9, 1
21, 7
75, 56
103, 112
25, 18
13, 13
16, 21
7, 16
2, 15
4, 1
12, 7
19, 14
35, 19
28, 7
9, 6
10, 0
8, 6
11, 10
31, 27
24, 28
20, 8
12, 11
44, 45
71, 49
30, 26
37, 35
500, 507
2282, 1993
1671, 1230
225, 135
37, 13
51, 12
180, 112
386, 323
243, 152
27, 14
14, 6
17, 11
14, 16
2, 5
3, 2
5, 4
9, 8
7, 6
5, 11
4, 4
4, 5
3, 4
4, 5
3, 3
5, 1
5, 12
6, 5
5, 5
5, 15
10, 10
5, 2
5, 3
12, 0
16, 2
7, 1
2, 2
3, 1
3, 3
1, 1
4, 3
3, 1
6, 3
2, 0
1, 3
3, 0
3, 4
3, 2
1, 3
1, 1
2, 0
2, 5
1, 2
3, 3
3, 3
4, 1
1, 1
1, 1
2, 1
6, 1
6, 8
4, 3
0, 1
2, 0
2, 4
1, 1
3, 2
0, 1
5, 0
4, 1
1, 2
1, 0
2, 4
1, 0
4, 2
4, 1
2, 1
1, 1
2, 1
0, 0
2, 2
2, 2
1, 0
0, 0
0, 0
0, 0
1, 0
0, 1
0, 0
2, 0
2, 0
0, 0
4, 0
1, 0
0, 0
0, 1
1, 0
0, 0
1, 0
0, 0
2, 0
0, 0
1, 0
0, 0
0, 0
0, 0
0, 0
0, 0
0, 1
0, 0
0, 0
0, 0
0, 0
0, 0
0, 3
0, 0
0, 0
1, 0
0, 0
0, 0
0, 0
0, 0
0, 0
0, 0
0, 1
0, 1
0, 0
0, 0
0, 0
1, 0
0, 0
0, 0
0, 0
0, 0
0, 0
0, 0
0, 0
0, 0
0, 0
0, 0
0, 0
0, 0
0, 0
1, 0
0, 0
0, 0
0, 0
0, 0
0, 0
0, 0
0, 0
0, 0
0, 0
0, 0
0, 0
0, 0
0, 0
0, 0
0, 0
0, 0
0, 0
0, 0
0, 0
0, 0
0, 0
0, 0
0, 0
0, 0
0, 0
0, 0
0, 0
0, 0
0, 0
0, 0
0, 0
0, 0
0, 0
0, 0
0, 0
0, 0
0, 0
0, 0
0, 0
0, 0
0, 0
0, 0
0, 0
0, 0
0, 0
0, 0
0, 0
0, 0
0, 0
0, 0
0, 0
0, 0
0, 0
0, 0
0, 0
0, 0
0, 0
0, 0
0, 0
0, 0
0, 0
0, 0
0, 0
0, 0
0, 0
0, 0
0, 0
0, 0
0, 0
0, 0
0, 0
0, 0
0, 0
0, 0
0, 0
0, 0
0, 0
0, 0
0, 0
0, 0
0, 0
0, 0
0, 0
0, 0
0, 0
0, 0
0, 0
0, 0
0, 0
0, 0
0, 0
0, 0
0, 0
0, 0
#ENDOFDATA     end of spectrum data

File: ps__0852shot_2375.msa
#FORMAT      : EMSA/MAS spectral data file
#VERSION     : TC202v2.0 PIXL
#TITLE       : N/A
#DATE        :       Date in the format DD-MMM-YYYY, for example 07-JUL-2010
#TIME        :             The time of day at which the spectrum was recorded, in 24-hour format
#OWNER       : PIXL Flight Model       (PIXL will use this to indicate which instrument took the data.)
#NPOINTS     : 4096     Number of data points in the spectrum (This can be zero for configuration only files)
#NCOLUMNS    : 2     Number of data columns in the spectrum (This can be zero for configuration only files)
#XUNITS      : eV
#YUNITS      : COUNTS
#DATATYPE    : YY
#XPERCHAN    : 7.862, 7.881   eV per channel (separate by commas if more than one detector)
#OFFSET      : 18.5, -22.4         eV of first channel  (separate by commas if more than one detector
#SIGNALTYPE  : XRF
#YP_TEMP     : 2.492
#LIVETIME    : 8.56041, 8.54309   seconds (separate by commas if more than one detector)
#REALTIME    : 10, 10.0   seconds (separate by commas if more than one detector)
#SPECTRUM    : start of spectrum data
0, 0
0, 0
0, 0
0, 0
0, 0
0, 0
0, 0
0, 0
0, 1
4, 2
1, 1
46, 45
50, 34
5, 3
6, 8
108, 111
527, 423
144, 104
7, 7
5, 1
9, 4
3, 15
12, 5
19, 15
70, 66
62, 60
31, 36
18, 10
3, 1
2, 3
3, 2
15, 0
24, 11
97, 81
139, 114
19, 22
12, 12
17, 14
7, 2
4, 3
3, 2
14, 11
18, 18
6, 7
7, 3
8, 7
6, 5
5, 6
12, 18
31, 65
32, 46
12, 11
7, 9
37, 37
74, 54
23, 39
25, 33
456, 565
2196, 2142
1575, 1323
194, 155
18, 22
63, 19
198, 130
429, 331
231, 172
34, 19
11, 7
30, 9
8, 18
4, 10
8, 2
6, 2
6, 10
9, 6
8, 2
4, 5
5, 1
5, 3
2, 9
5, 1
5, 9
4, 2
4, 4
3, 4
5, 3
13, 3
10, 3
8, 3
4, 10
5, 2
3, 4
2, 3
3, 1
6, 5
11, 5
18, 1
10, 1
6, 5
5, 6
3, 0
0, 4
6, 5
4, 0
7, 2
2, 2
4, 1
4, 4
0, 0
2, 2
1, 1
1, 1
3, 1
3, 4
3, 0
0, 2
4, 7
0, 7
2, 0
3, 1
2, 1
1, 3
5, 0
1, 4
2, 2
1, 0
3, 0
0, 1
1, 0
1, 0
2, 1
0, 2
2, 0
2, 1
1, 1
2, 1
0, 0
0, 1
1, 1
0, 3
0, 2
2, 0
0, 0
0, 0
1, 1
1, 1
0, 0
0, 1
0, 1
0, 0
1, 0
0, 0
2, 0
0, 1
2, 0
0, 0
1, 0
0, 0
0, 0
0, 0
0, 0
0, 0
0, 0
0, 0
1, 1
0, 0
1, 1
0, 0
1, 0
1, 1
0, 0
0, 0
0, 0
0, 0
0, 0
0, 0
0, 0
0, 0
0, 0
1, 1
0, 0
0, 0
0, 0
0, 0
0, 0
0, 0
0, 0
0, 0
0, 0
0, 0
0, 0
0, 0
0, 0
0, 0
0, 0
0, 0
0, 0
0, 0
0, 0
0, 0
0, 0
0, 0
0, 0
0, 0
0, 0
0, 0
0, 0
0, 0
0, 0
0, 0
0, 0
0, 0
0, 0
0, 0
0, 0
0, 0
0, 0
0, 0
0, 0
0, 0
0, 0
1, 0
0, 0
0, 0
0, 0
0, 0
0, 0
0, 0
0, 0
0, 0
0, 0
0, 0
0, 0
0, 0
0, 0
0, 0
0, 0
0, 0
0, 0
0, 0
0, 0
0, 0
0, 0
0, 0
0, 0
0, 0
0, 0
0, 0
0, 0
0, 0
0, 0
0, 0
0, 0
0, 0
0, 0
0, 0
0, 0
0, 0
0, 0
0, 0
0, 0
0, 0
0, 0
0, 0
0, 0
0, 0
0, 0
0, 0
0, 0
0, 0
0, 0
0, 0
0, 0
0, 0
0, 0
0, 0
0, 0
0, 0
0, 0
0, 0
0, 0
0, 0
0, 0
0, 0
0, 0
0, 0
0, 0
0, 0
0, 0
0, 0
0, 0
0, 0
0, 0
0, 0
#ENDOFDATA     end of spectrum data

File: ps__0852shot_2376.msa
#FORMAT      : EMSA/MAS spectral data file
#VERSION     : TC202v2.0 PIXL
#TITLE       : N/A
#DATE        :       Date in the format DD-MMM-YYYY, for example 07-JUL-2010
#TIME        :             The time of day at which the spectrum was recorded, in 24-hour format
#OWNER       : PIXL Flight Model       (PIXL will use this to indicate which instrument took the data.)
#NPOINTS     : 4096     Number of data points in the spectrum (This can be zero for configuration only files)
#NCOLUMNS    : 2     Number of data columns in the spectrum (This can be zero for configuration only files)
#XUNITS      : eV
#YUNITS      : COUNTS
#DATATYPE    : YY
#XPERCHAN    : 7.862, 7.881   eV per channel (separate by commas if more than one detector)
#OFFSET      : 18.5, -22.4         eV of first channel  (separate by commas if more than one detector
#SIGNALTYPE  : XRF
#YP_TEMP     : 2.492
#LIVETIME    : 8.55082, 8.55177   seconds (separate by commas if more than one detector)
#REALTIME    : 10, 10.0   seconds (separate by commas if more than one detector)
#SPECTRUM    : start of spectrum data
0, 0
0, 0
0, 0
0, 0
0, 0
0, 0
0, 0
0, 1
0, 1
1, 2
5, 5
47, 47
66, 38
7, 5
6, 2
101, 85
452, 466
113, 92
13, 5
4, 3
4, 1
3, 4
4, 2
11, 11
46, 45
48, 47
18, 20
10, 18
4, 3
3, 2
1, 7
6, 1
20, 2
41, 20
29, 28
3, 10
6, 2
8, 10
5, 1
2, 2
6, 3
17, 16
13, 12
13, 10
4, 8
3, 8
7, 7
6, 10
10, 10
14, 26
19, 25
18, 9
11, 9
39, 32
72, 55
46, 14
40, 39
509, 623
2228, 2352
1672, 1408
225, 159
20, 23
26, 16
125, 113
412, 334
227, 198
25, 26
9, 11
20, 11
13, 6
4, 3
5, 3
2, 4
5, 8
6, 9
4, 3
1, 3
6, 3
2, 2
3, 5
2, 3
4, 6
23, 6
9, 1
3, 5
5, 4
8, 1
10, 2
4, 0
3, 3
3, 4
1, 3
3, 4
0, 4
1, 1
7, 1
14, 1
9, 3
2, 3
6, 7
4, 5
2, 5
1, 0
6, 3
0, 1
1, 1
2, 2
1, 1
0, 1
2, 1
1, 1
1, 0
1, 2
2, 1
3, 2
8, 2
6, 3
5, 2
3, 0
3, 2
1, 4
3, 1
3, 6
1, 0
2, 2
0, 0
3, 3
0, 2
0, 0
1, 1
0, 1
2, 0
0, 0
0, 1
2, 0
2, 1
2, 0
1, 1
1, 1
0, 0
0, 1
0, 0
0, 0
3, 0
0, 0
1, 0
0, 0
0, 1
0, 0
0, 0
0, 0
0, 0
1, 1
0, 0
1, 0
1, 0
0, 0
0, 1
0, 0
0, 0
1, 0
0, 0
0, 1
0, 0
0, 0
0, 0
1, 0
0, 2
0, 0
0, 0
0, 0
0, 0
0, 0
0, 0
0, 1
0, 0
0, 2
0, 0
0, 0
0, 0
0, 0
0, 0
0, 1
1, 1
0, 0
0, 0
0, 0
0, 0
0, 0
0, 0
0, 1
0, 0
0, 0
0, 0
0, 0
0, 0
0, 0
0, 0
0, 0
0, 0
0, 0
0, 0
0, 0
0, 0
0, 0
0, 0
0, 0
0, 0
0, 0
0, 0
0, 0
0, 0
0, 0
0, 0
0, 0
0, 0
0, 0
0, 0
0, 0
0, 0
0, 0
0, 0
0, 0
0, 0
0, 0
0, 0
0, 0
0, 0
0, 0
0, 0
0, 0
0, 0
0, 0
0, 0
0, 0
0, 0
0, 0
0, 0
0, 0
0, 0
0, 0
0, 0
0, 0
0, 0
0, 0
0, 0
0, 0
0, 0
0, 0
0, 0
0, 0
0, 0
0, 0
0, 0
0, 0
0, 0
0, 0
0, 0
0, 0
0, 0
0, 0
0, 0
0, 0
0, 0
0, 0
0, 0
0, 0
0, 0
0, 0
0, 0
0, 0
0, 0
0, 0
0, 0
0, 0
0, 0
0, 0
0, 0
0, 0
0, 0
0, 0
0, 0
0, 0
0, 0
0, 0
0, 0
0, 0
0, 0
0, 0
0, 0
0, 0
0, 0
0, 0
0, 0
#ENDOFDATA     end of spectrum data

File: ps__0852shot_2377.msa
#FORMAT      : EMSA/MAS spectral data file
#VERSION     : TC202v2.0 PIXL
#TITLE       : N/A
#DATE        :       Date in the format DD-MMM-YYYY, for example 07-JUL-2010
#TIME        :             The time of day at which the spectrum was recorded, in 24-hour format
#OWNER       : PIXL Flight Model       (PIXL will use this to indicate which instrument took the data.)
#NPOINTS     : 4096     Number of data points in the spectrum (This can be zero for configuration only files)
#NCOLUMNS    : 2     Number of data columns in the spectrum (This can be zero for configuration only files)
#XUNITS      : eV
#YUNITS      : COUNTS
#DATATYPE    : YY
#XPERCHAN    : 7.862, 7.881   eV per channel (separate by commas if more than one detector)
#OFFSET      : 18.5, -22.4         eV of first channel  (separate by commas if more than one detector
#SIGNALTYPE  : XRF
#YP_TEMP     : 2.396
#LIVETIME    : 8.55983, 8.54813   seconds (separate by commas if more than one detector)
#REALTIME    : 10, 10.0   seconds (separate by commas if more than one detector)
#SPECTRUM    : start of spectrum data
0, 0
0, 0
0, 0
0, 0
0, 0
0, 0
0, 0
0, 0
0, 0
0, 0
2, 2
46, 53
65, 56
8, 6
0, 4
105, 111
470, 457
124, 118
5, 9
1, 1
1, 1
2, 2
1, 1
4, 3
15, 17
18, 23
14, 12
19, 9
3, 2
2, 2
1, 0
2, 0
5, 1
13, 11
16, 11
2, 3
2, 3
2, 1
4, 2
4, 1
2, 4
8, 11
10, 15
11, 10
8, 6
6, 9
6, 3
7, 7
9, 16
12, 14
20, 9
9, 3
6, 16
55, 47
86, 49
51, 15
45, 36
462, 609
2328, 2407
1660, 1470
192, 144
9, 18
14, 25
98, 120
336, 347
265, 171
29, 33
17, 6
14, 10
10, 8
4, 3
3, 2
2, 6
1, 6
3, 18
2, 11
3, 3
9, 1
2, 2
4, 3
7, 2
14, 4
24, 5
13, 5
6, 2
4, 0
6, 4
5, 1
4, 4
5, 1
4, 4
1, 2
0, 3
7, 3
4, 2
1, 5
1, 2
3, 1
6, 3
5, 4
1, 2
1, 4
2, 3
2, 1
0, 1
6, 2
4, 0
0, 0
1, 0
3, 1
1, 0
4, 1
1, 1
1, 3
1, 2
2, 5
11, 8
10, 5
3, 2
0, 0
2, 1
3, 3
1, 0
2, 4
1, 1
0, 0
0, 0
1, 1
1, 0
1, 1
0, 2
1, 0
0, 2
0, 0
1, 2
0, 1
0, 1
0, 1
1, 0
0, 1
0, 0
0, 0
0, 1
1, 0
2, 0
1, 0
0, 0
1, 1
1, 1
0, 0
0, 2
0, 1
0, 0
0, 0
0, 1
0, 1
0, 1
0, 1
0, 0
0, 1
0, 0
0, 0
0, 0
1, 2
0, 0
0, 0
0, 0
1, 0
1, 0
0, 0
0, 2
0, 0
0, 0
0, 1
0, 1
1, 1
0, 1
0, 0
0, 0
0, 0
0, 0
0, 0
0, 0
2, 0
0, 0
1, 0
0, 0
0, 1
0, 1
0, 0
0, 0
0, 0
0, 0
0, 0
0, 0
0, 0
0, 0
2, 0
0, 0
0, 0
0, 0
0, 0
0, 0
0, 0
0, 0
0, 0
0, 0
0, 0
0, 0
0, 0
0, 0
0, 0
0, 0
0, 0
0, 0
0, 0
0, 0
1, 0
0, 0
0, 0
0, 0
0, 0
0, 0
0, 0
0, 0
0, 0
0, 0
0, 0
0, 0
0, 0
0, 0
0, 0
0, 0
0, 0
0, 0
0, 0
0, 0
0, 0
0, 0
0, 0
0, 0
0, 0
0, 0
0, 0
0, 0
0, 0
0, 0
0, 0
0, 0
0, 0
0, 0
0, 0
0, 0
0, 0
0, 0
0, 0
0, 0
0, 0
0, 0
0, 0
0, 0
0, 0
0, 0
0, 0
0, 0
0, 0
0, 0
0, 0
0, 0
0, 0
0, 0
0, 0
0, 0
0, 0
0, 0
0, 0
0, 0
0, 0
0, 0
0, 0
0, 0
0, 0
0, 0
0, 0
0, 0
0, 0
0, 0
0, 0
0, 0
0, 0
0, 0
0, 0
0, 0
0, 0
#ENDOFDATA     end of spectrum data

File: ps__0852shot_2378.msa
#FORMAT      : EMSA/MAS spectral data file
#VERSION     : TC202v2.0 PIXL
#TITLE       : N/A
#DATE        :       Date in the format DD-MMM-YYYY, for example 07-JUL-2010
#TIME        :             The time of day at which the spectrum was recorded, in 24-hour format
#OWNER       : PIXL Flight Model       (PIXL will use this to indicate which instrument took the data.)
#NPOINTS     : 4096     Number of data points in the spectrum (This can be zero for configuration only files)
#NCOLUMNS    : 2     Number of data columns in the spectrum (This can be zero for configuration only files)
#XUNITS      : eV
#YUNITS      : COUNTS
#DATATYPE    : YY
#XPERCHAN    : 7.862, 7.881   eV per channel (separate by commas if more than one detector)
#OFFSET      : 18.5, -22.4         eV of first channel  (separate by commas if more than one detector
#SIGNALTYPE  : XRF
#YP_TEMP     : 2.235
#LIVETIME    : 8.55919, 8.55788   seconds (separate by commas if more than one detector)
#REALTIME    : 10, 10.0   seconds (separate by commas if more than one detector)
#SPECTRUM    : start of spectrum data
0, 0
0, 0
0, 0
0, 0
0, 0
0, 0
0, 0
0, 0
2, 1
0, 0
3, 1
51, 42
54, 57
5, 4
5, 4
87, 97
487, 436
116, 107
9, 6
1, 0
2, 1
1, 0
1, 6
4, 7
21, 24
34, 25
23, 18
12, 5
11, 4
1, 2
2, 1
5, 3
6, 2
12, 14
20, 17
6, 4
2, 2
1, 3
1, 4
5, 3
3, 6
10, 11
6, 8
6, 5
8, 8
3, 1
3, 5
8, 16
9, 59
18, 24
12, 14
20, 10
31, 17
55, 40
92, 49
47, 15
37, 40
490, 559
2363, 2252
1695, 1344
194, 119
18, 19
23, 22
115, 130
383, 365
252, 196
23, 13
13, 7
19, 17
9, 3
3, 5
7, 3
6, 4
6, 9
1, 15
5, 16
4, 9
4, 2
5, 1
9, 6
7, 2
23, 0
28, 2
6, 6
0, 3
7, 3
8, 5
4, 2
2, 6
2, 2
4, 3
3, 0
5, 2
7, 5
2, 7
3, 1
8, 4
6, 2
5, 3
7, 4
3, 0
1, 1
0, 1
5, 6
2, 2
3, 1
3, 1
5, 1
3, 3
5, 1
3, 2
0, 2
2, 0
5, 1
1, 8
0, 3
3, 4
7, 4
3, 2
3, 2
2, 4
0, 2
1, 2
1, 1
4, 1
0, 2
2, 4
0, 0
1, 2
1, 2
1, 0
0, 1
1, 1
1, 1
0, 0
0, 1
3, 1
1, 1
0, 0
1, 2
2, 1
2, 0
0, 0
0, 2
1, 1
1, 0
0, 1
1, 0
0, 0
1, 0
0, 0
0, 0
0, 0
1, 1
0, 0
0, 0
1, 1
0, 0
2, 0
0, 0
1, 0
1, 0
0, 0
0, 0
0, 0
0, 0
0, 0
0, 0
0, 0
0, 0
1, 1
0, 0
0, 0
0, 0
0, 0
0, 1
0, 0
1, 0
0, 0
0, 0
0, 0
0, 0
0, 0
0, 0
0, 0
0, 0
0, 0
0, 0
0, 0
0, 0
0, 1
0, 0
0, 0
1, 0
0, 0
0, 0
0, 0
0, 0
0, 0
0, 0
0, 0
0, 0
0, 0
0, 0
0, 0
0, 0
0, 0
0, 0
0, 0
0, 1
0, 0
0, 0
0, 0
0, 0
1, 0
0, 0
0, 0
0, 0
0, 0
0, 0
0, 0
0, 0
0, 0
0, 0
0, 0
0, 0
0, 0
0, 0
0, 0
0, 0
0, 0
0, 0
0, 0
0, 0
0, 0
0, 0
0, 0
0, 0
0, 0
0, 0
0, 0
0, 0
0, 0
0, 0
0, 0
0, 0
0, 0
0, 0
0, 0
0, 0
0, 0
0, 0
0, 0
0, 0
0, 0
0, 0
0, 0
0, 0
0, 0
0, 0
0, 0
0, 0
0, 0
0, 0
0, 0
0, 0
0, 0
0, 0
0, 0
0, 0
0, 0
0, 0
0, 0
0, 0
0, 0
0, 0
0, 0
0, 0
0, 0
0, 0
0, 0
0, 0
0, 0
0, 0
0, 0
0, 0
0, 0
0, 0
0, 0
0, 0
0, 0
0, 0
0, 0
0, 0
#ENDOFDATA     end of spectrum data

File: ps__0852shot_2379.msa
#FORMAT      : EMSA/MAS spectral data file
#VERSION     : TC202v2.0 PIXL
#TITLE       : N/A
#DATE        :       Date in the format DD-MMM-YYYY, for example 07-JUL-2010
#TIME        :             The time of day at which the spectrum was recorded, in 24-hour format
#OWNER       : PIXL Flight Model       (PIXL will use this to indicate which instrument took the data.)
#NPOINTS     : 4096     Number of data points in the spectrum (This can be zero for configuration only files)
#NCOLUMNS    : 2     Number of data columns in the spectrum (This can be zero for configuration only files)
#XUNITS      : eV
#YUNITS      : COUNTS
#DATATYPE    : YY
#XPERCHAN    : 7.862, 7.881   eV per channel (separate by commas if more than one detector)
#OFFSET      : 18.5, -22.4         eV of first channel  (separate by commas if more than one detector
#SIGNALTYPE  : XRF
#YP_TEMP     : 2.332
#LIVETIME    : 8.5621, 8.57186   seconds (separate by commas if more than one detector)
#REALTIME    : 10, 10.0   seconds (separate by commas if more than one detector)
#SPECTRUM    : start of spectrum data
0, 0
0, 0
0, 0
0, 0
0, 0
0, 0
0, 0
0, 0
0, 0
2, 1
0, 0
49, 54
75, 60
5, 1
7, 6
88, 99
490, 411
112, 89
6, 1
0, 0
1, 2
8, 4
0, 6
6, 12
50, 52
38, 79
21, 30
8, 17
5, 3
3, 1
3, 3
3, 3
5, 5
9, 9
12, 12
3, 1
3, 5
3, 4
3, 5
3, 3
8, 4
28, 11
50, 16
15, 16
6, 5
2, 4
3, 4
5, 30
6, 102
14, 74
14, 15
40, 9
57, 12
59, 51
75, 61
29, 20
31, 34
473, 631
2213, 2455
1637, 1385
197, 148
17, 15
18, 19
84, 113
345, 358
220, 169
49, 21
64, 7
48, 10
10, 7
4, 5
5, 4
2, 6
5, 4
2, 8
5, 4
11, 3
6, 2
9, 2
7, 2
2, 3
7, 6
9, 1
4, 3
4, 13
2, 4
4, 5
4, 1
8, 4
2, 5
4, 3
5, 6
9, 1
17, 2
14, 2
2, 5
1, 7
2, 4
2, 1
2, 1
2, 1
6, 4
1, 3
6, 1
0, 1
2, 2
2, 0
3, 4
2, 7
5, 8
3, 1
2, 4
0, 1
2, 2
1, 4
1, 3
3, 2
4, 2
1, 2
1, 1
3, 0
2, 3
3, 2
2, 1
0, 1
2, 2
1, 1
0, 0
0, 1
3, 3
0, 1
1, 0
1, 0
1, 0
1, 2
4, 1
0, 0
3, 1
1, 0
0, 1
1, 1
1, 0
1, 0
1, 0
3, 0
0, 4
0, 1
0, 0
0, 1
2, 1
0, 0
1, 0
1, 3
0, 0
0, 0
1, 1
0, 1
1, 0
0, 0
0, 0
0, 0
0, 0
0, 0
0, 0
0, 0
1, 1
1, 1
2, 0
2, 0
2, 0
0, 0
0, 0
1, 0
0, 0
0, 0
0, 0
0, 0
0, 0
0, 0
0, 0
1, 0
0, 0
0, 0
0, 0
0, 0
0, 0
0, 0
0, 0
0, 0
0, 0
0, 0
0, 0
0, 0
0, 0
0, 0
0, 1
0, 0
1, 0
0, 0
0, 0
0, 0
0, 1
0, 0
0, 0
0, 0
0, 0
0, 0
0, 0
0, 0
0, 0
0, 0
0, 0
0, 0
0, 0
0, 0
0, 0
0, 0
0, 0
0, 0
0, 0
0, 0
0, 0
0, 0
0, 0
0, 0
0, 0
0, 0
0, 0
0, 0
0, 0
0, 0
0, 0
0, 0
0, 0
0, 0
0, 0
0, 0
0, 0
0, 0
0, 0
0, 0
0, 0
0, 0
0, 0
0, 0
0, 0
0, 0
0, 0
0, 0
0, 0
0, 0
0, 0
0, 0
0, 0
0, 0
0, 0
0, 0
0, 0
0, 0
0, 0
0, 0
0, 0
0, 0
0, 0
0, 0
0, 0
0, 0
0, 0
0, 0
0, 0
0, 0
0, 0
0, 0
0, 0
0, 0
0, 0
0, 0
0, 0
0, 0
0, 0
0, 0
0, 0
0, 0
0, 0
0, 0
0, 0
0, 0
0, 0
0, 0
0, 0
0, 0
0, 0
0, 0
0, 0
#ENDOFDATA     end of spectrum data

File: ps__0852shot_2380.msa
#FORMAT      : EMSA/MAS spectral data file
#VERSION     : TC202v2.0 PIXL
#TITLE       : N/A
#DATE        :       Date in the format DD-MMM-YYYY, for example 07-JUL-2010
#TIME        :             The time of day at which the spectrum was recorded, in 24-hour format
#OWNER       : PIXL Flight Model       (PIXL will use this to indicate which instrument took the data.)
#NPOINTS     : 4096     Number of data points in the spectrum (This can be zero for configuration only files)
#NCOLUMNS    : 2     Number of data columns in the spectrum (This can be zero for configuration only files)
#XUNITS      : eV
#YUNITS      : COUNTS
#DATATYPE    : YY
#XPERCHAN    : 7.862, 7.881   eV per channel (separate by commas if more than one detector)
#OFFSET      : 18.5, -22.4         eV of first channel  (separate by commas if more than one detector
#SIGNALTYPE  : XRF
#YP_TEMP     : 2.332
#LIVETIME    : 8.55934, 8.56366   seconds (separate by commas if more than one detector)
#REALTIME    : 10, 10.0   seconds (separate by commas if more than one detector)
#SPECTRUM    : start of spectrum data
0, 0
0, 0
0, 0
0, 0
0, 0
0, 0
0, 0
0, 0
0, 0
0, 2
2, 4
46, 39
62, 71
4, 5
3, 3
104, 123
417, 479
101, 94
8, 4
3, 1
0, 1
4, 4
4, 4
4, 8
29, 70
40, 108
28, 30
16, 15
6, 4
1, 4
4, 1
0, 2
0, 2
6, 7
8, 9
4, 3
2, 5
3, 6
4, 6
5, 6
11, 7
70, 15
99, 23
17, 6
6, 7
3, 3
6, 5
7, 9
19, 20
17, 21
10, 16
11, 38
37, 71
52, 63
63, 56
21, 25
41, 31
462, 624
2114, 2304
1562, 1468
197, 146
22, 43
28, 31
99, 135
328, 379
221, 229
42, 34
27, 30
26, 20
8, 9
3, 3
2, 3
8, 5
14, 6
5, 6
6, 7
6, 2
4, 10
6, 9
4, 7
4, 1
6, 1
8, 5
5, 5
11, 6
10, 13
4, 3
2, 4
5, 4
4, 4
3, 3
3, 4
4, 6
8, 8
2, 2
5, 3
3, 7
1, 4
3, 1
7, 2
3, 1
2, 2
1, 2
2, 0
2, 5
3, 2
3, 2
6, 0
5, 1
1, 6
1, 0
4, 3
1, 0
1, 0
2, 0
3, 4
4, 4
4, 6
1, 3
0, 2
2, 2
2, 0
2, 0
3, 1
2, 2
0, 2
0, 0
0, 0
0, 0
1, 1
2, 0
0, 2
0, 0
1, 0
0, 0
0, 1
1, 1
0, 1
0, 0
0, 2
0, 0
0, 1
1, 0
0, 0
0, 0
0, 0
2, 1
1, 0
0, 0
0, 0
0, 0
0, 1
0, 1
0, 0
0, 0
1, 0
0, 0
0, 0
0, 0
0, 0
0, 0
1, 2
1, 0
0, 0
0, 0
1, 0
0, 0
0, 0
0, 1
0, 0
1, 0
1, 0
0, 0
0, 2
0, 0
1, 1
0, 0
0, 0
1, 0
0, 0
0, 0
0, 0
0, 0
1, 0
1, 1
0, 0
0, 0
0, 1
0, 2
0, 0
0, 0
0, 0
0, 0
0, 0
0, 0
0, 0
0, 0
0, 0
0, 0
0, 0
0, 1
0, 0
0, 0
0, 0
0, 0
0, 1
0, 0
0, 0
0, 0
0, 0
0, 0
0, 0
1, 1
0, 0
0, 0
0, 0
0, 0
0, 0
0, 0
0, 0
0, 0
0, 0
0, 0
0, 0
0, 0
0, 0
0, 0
0, 0
0, 0
0, 0
0, 0
0, 0
0, 0
0, 0
0, 0
0, 0
0, 0
0, 0
0, 0
0, 0
0, 0
0, 0
0, 0
0, 0
0, 0
0, 0
0, 0
0, 0
0, 0
0, 0
0, 0
0, 0
0, 0
0, 0
0, 0
0, 0
0, 0
0, 0
0, 0
0, 0
0, 0
0, 0
0, 0
0, 0
0, 0
0, 0
0, 0
0, 0
0, 0
0, 0
0, 0
0, 0
0, 0
0, 0
0, 0
0, 0
0, 0
0, 0
0, 0
0, 0
0, 0
0, 0
0, 0
0, 0
0, 0
0, 0
0, 0
0, 0
0, 0
0, 0
0, 0
0, 0
0, 0
0, 0
#ENDOFDATA     end of spectrum data

File: ps__0852shot_2381.msa
#FORMAT      : EMSA/MAS spectral data file
#VERSION     : TC202v2.0 PIXL
#TITLE       : N/A
#DATE        :       Date in the format DD-MMM-YYYY, for example 07-JUL-2010
#TIME        :             The time of day at which the spectrum was recorded, in 24-hour format
#OWNER       : PIXL Flight Model       (PIXL will use this to indicate which instrument took the data.)
#NPOINTS     : 4096     Number of data points in the spectrum (This can be zero for configuration only files)
#NCOLUMNS    : 2     Number of data columns in the spectrum (This can be zero for configuration only files)
#XUNITS      : eV
#YUNITS      : COUNTS
#DATATYPE    : YY
#XPERCHAN    : 7.862, 7.881   eV per channel (separate by commas if more than one detector)
#OFFSET      : 18.5, -22.4         eV of first channel  (separate by commas if more than one detector
#SIGNALTYPE  : XRF
#YP_TEMP     : 2.556
#LIVETIME    : 8.55461, 8.58035   seconds (separate by commas if more than one detector)
#REALTIME    : 10, 10.0   seconds (separate by commas if more than one detector)
#SPECTRUM    : start of spectrum data
0, 0
0, 0
0, 0
0, 0
0, 0
0, 0
0, 0
0, 0
0, 1
4, 2
1, 2
51, 50
69, 56
6, 9
5, 3
95, 123
463, 402
109, 91
4, 4
3, 1
1, 3
3, 3
2, 5
4, 4
34, 9
60, 23
19, 21
10, 32
3, 4
2, 2
0, 4
0, 2
1, 1
10, 9
13, 9
4, 5
3, 2
5, 8
2, 9
1, 2
8, 13
34, 18
39, 33
17, 11
3, 5
5, 0
7, 5
11, 5
24, 6
25, 11
10, 20
7, 60
14, 148
38, 104
54, 61
21, 24
30, 29
465, 600
2232, 2410
1672, 1376
210, 132
44, 22
19, 23
119, 120
325, 330
224, 224
26, 30
9, 40
8, 22
5, 3
4, 5
2, 2
10, 5
21, 3
10, 6
6, 2
3, 5
2, 13
4, 21
5, 12
5, 5
6, 7
4, 3
6, 4
18, 3
21, 0
8, 2
6, 3
5, 2
2, 1
0, 3
0, 3
5, 11
7, 6
2, 5
6, 5
7, 0
5, 1
4, 1
3, 2
2, 1
1, 2
0, 0
1, 1
4, 2
2, 3
1, 4
3, 4
3, 3
2, 3
2, 1
2, 2
4, 4
3, 2
2, 0
4, 1
5, 6
3, 2
4, 2
0, 1
2, 1
0, 1
2, 1
4, 1
1, 2
4, 2
0, 1
3, 0
0, 0
0, 1
0, 2
0, 1
0, 0
0, 0
1, 2
1, 2
0, 1
1, 1
0, 0
1, 0
1, 0
1, 0
0, 0
1, 1
0, 1
2, 0
2, 0
0, 2
1, 1
0, 0
0, 1
1, 0
0, 0
1, 0
0, 0
0, 0
0, 1
0, 0
1, 0
0, 1
0, 0
0, 1
1, 0
1, 0
0, 0
0, 0
0, 0
0, 0
1, 0
1, 1
0, 0
0, 0
0, 0
0, 0
0, 1
1, 0
0, 0
0, 0
0, 1
0, 0
0, 0
1, 1
2, 0
0, 0
0, 1
0, 0
0, 0
0, 0
0, 0
0, 0
0, 0
1, 0
0, 0
0, 0
0, 0
0, 0
0, 0
0, 0
0, 0
0, 0
0, 0
1, 0
0, 1
0, 0
0, 0
0, 0
0, 0
0, 0
0, 0
0, 0
0, 0
0, 0
0, 0
0, 0
0, 0
0, 0
0, 0
0, 0
0, 0
0, 0
0, 0
0, 0
0, 0
0, 0
0, 0
0, 0
0, 0
0, 0
0, 0
0, 0
0, 0
0, 0
0, 0
0, 0
0, 0
0, 0
0, 0
0, 0
0, 0
0, 0
0, 0
0, 0
0, 0
0, 0
0, 0
0, 0
0, 0
0, 0
0, 0
0, 0
0, 0
0, 0
0, 0
0, 0
0, 0
0, 0
0, 0
0, 0
0, 0
0, 0
0, 0
0, 0
0, 0
0, 0
0, 0
0, 0
0, 0
0, 0
0, 0
0, 0
0, 0
0, 0
0, 0
0, 0
0, 0
0, 0
0, 0
0, 0
0, 0
0, 0
0, 0
0, 0
0, 0
0, 0
0, 0
0, 0
0, 0
0, 0
0, 0
0, 0
0, 0
0, 0
0, 0
0, 0
#ENDOFDATA     end of spectrum data

File: ps__0852shot_2382.msa
#FORMAT      : EMSA/MAS spectral data file
#VERSION     : TC202v2.0 PIXL
#TITLE       : N/A
#DATE        :       Date in the format DD-MMM-YYYY, for example 07-JUL-2010
#TIME        :             The time of day at which the spectrum was recorded, in 24-hour format
#OWNER       : PIXL Flight Model       (PIXL will use this to indicate which instrument took the data.)
#NPOINTS     : 4096     Number of data points in the spectrum (This can be zero for configuration only files)
#NCOLUMNS    : 2     Number of data columns in the spectrum (This can be zero for configuration only files)
#XUNITS      : eV
#YUNITS      : COUNTS
#DATATYPE    : YY
#XPERCHAN    : 7.862, 7.881   eV per channel (separate by commas if more than one detector)
#OFFSET      : 18.5, -22.4         eV of first channel  (separate by commas if more than one detector
#SIGNALTYPE  : XRF
#YP_TEMP     : 2.3
#LIVETIME    : 8.55989, 8.56315   seconds (separate by commas if more than one detector)
#REALTIME    : 10, 10.0   seconds (separate by commas if more than one detector)
#SPECTRUM    : start of spectrum data
0, 0
0, 0
0, 0
0, 0
0, 0
0, 0
0, 0
1, 0
3, 1
0, 2
1, 0
55, 49
85, 51
5, 3
5, 2
100, 76
482, 407
113, 86
2, 3
1, 3
3, 0
5, 5
4, 1
6, 6
53, 24
76, 25
37, 27
24, 17
2, 7
3, 3
1, 2
0, 4
7, 4
23, 13
15, 10
12, 7
5, 4
5, 5
2, 13
2, 3
4, 13
17, 14
17, 21
23, 10
5, 5
4, 4
8, 8
11, 4
27, 17
25, 6
22, 16
10, 29
9, 84
52, 76
66, 57
27, 25
34, 42
523, 580
2377, 2193
1742, 1381
249, 137
38, 16
25, 27
121, 108
373, 352
267, 207
44, 19
7, 22
15, 28
6, 9
3, 6
2, 4
14, 4
10, 9
6, 5
11, 3
7, 5
2, 3
3, 4
5, 5
7, 7
8, 4
5, 3
5, 4
11, 2
20, 4
6, 2
4, 11
3, 2
3, 6
3, 3
5, 6
4, 13
1, 8
3, 7
2, 2
6, 0
1, 2
6, 0
7, 2
3, 3
4, 4
3, 0
4, 4
5, 3
3, 2
1, 0
2, 4
1, 0
0, 1
4, 3
2, 1
5, 1
4, 1
2, 5
1, 1
3, 1
7, 3
3, 2
1, 2
2, 0
3, 0
0, 2
2, 3
2, 1
3, 1
2, 1
0, 0
0, 2
0, 0
0, 3
0, 1
1, 0
0, 2
1, 2
0, 0
1, 0
3, 1
0, 0
1, 1
1, 1
0, 1
1, 0
1, 0
1, 1
0, 0
0, 1
0, 0
0, 0
0, 0
0, 1
0, 0
0, 2
0, 1
1, 0
1, 1
0, 0
0, 0
0, 1
0, 0
1, 0
0, 0
1, 0
0, 0
1, 0
0, 0
0, 0
0, 1
0, 0
0, 0
0, 2
0, 0
0, 1
0, 1
0, 0
0, 0
0, 0
0, 0
0, 0
0, 0
0, 1
0, 0
0, 0
0, 0
1, 0
0, 0
0, 0
0, 0
0, 0
0, 0
0, 1
0, 0
1, 0
0, 0
1, 0
0, 0
0, 0
0, 0
0, 0
0, 0
0, 0
0, 0
0, 0
0, 0
0, 0
0, 0
0, 0
0, 0
0, 0
0, 0
0, 0
0, 0
0, 0
0, 0
0, 0
0, 0
0, 0
0, 0
0, 0
0, 0
0, 0
0, 0
0, 0
0, 0
0, 0
0, 0
0, 0
0, 0
0, 0
0, 0
0, 0
0, 0
0, 0
0, 0
0, 0
0, 0
0, 0
0, 0
0, 0
0, 0
0, 0
0, 0
0, 0
0, 0
0, 0
0, 0
0, 0
0, 0
0, 0
0, 0
0, 0
0, 0
0, 0
0, 0
0, 0
0, 0
0, 0
0, 0
0, 0
0, 0
0, 0
0, 0
0, 0
0, 0
0, 0
0, 0
0, 0
0, 0
0, 0
0, 0
0, 0
0, 0
0, 0
0, 0
0, 0
0, 0
0, 0
0, 0
0, 0
0, 0
0, 0
0, 0
0, 0
0, 0
0, 0
0, 0
0, 0
0, 0
0, 0
0, 0
0, 0
0, 0
0, 0
0, 0
#ENDOFDATA     end of spectrum data