Folder: data-repository/host_upload/06-09-2024/ps_0852/dump3 (part 20)

File: ps__0852shot_2173.msa
#FORMAT      : EMSA/MAS spectral data file
#VERSION     : TC202v2.0 PIXL
#TITLE       : N/A
#DATE        :       Date in the format DD-MMM-YYYY, for example 07-JUL-2010
#TIME        :             The time of day at which the spectrum was recorded, in 24-hour format
#OWNER       : PIXL Flight Model       (PIXL will use this to indicate which instrument took the data.)
#NPOINTS     : 4096     Number of data points in the spectrum (This can be zero for configuration only files)
#NCOLUMNS    : 2     Number of data columns in the spectrum (This can be zero for configuration only files)
#XUNITS      : eV
#YUNITS      : COUNTS
#DATATYPE    : YY
#XPERCHAN    : 7.862, 7.881   eV per channel (separate by commas if more than one detector)
#OFFSET      : 18.5, -22.4         eV of first channel  (separate by commas if more than one detector
#SIGNALTYPE  : XRF
#YP_TEMP     : 2.46
#LIVETIME    : 8.56642, 8.54998   seconds (separate by commas if more than one detector)
#REALTIME    : 10, 10.0   seconds (separate by commas if more than one detector)
#SPECTRUM    : start of spectrum data
0, 0
0, 0
0, 0
0, 0
0, 0
0, 0
0, 0
0, 1
1, 0
1, 0
3, 2
25, 42
42, 58
5, 9
6, 6
73, 84
365, 417
113, 90
3, 4
1, 2
18, 14
62, 78
33, 33
12, 15
41, 51
41, 46
12, 22
16, 17
4, 8
1, 1
3, 1
2, 6
2, 5
8, 11
11, 11
5, 12
4, 4
2, 6
4, 2
6, 3
17, 1
55, 9
24, 9
42, 15
16, 2
4, 7
1, 6
5, 3
6, 11
12, 23
14, 23
17, 22
12, 34
45, 71
50, 70
23, 23
45, 37
413, 630
1924, 2355
1381, 1396
168, 137
18, 30
13, 26
101, 135
318, 337
221, 215
36, 27
4, 11
13, 20
10, 14
6, 7
5, 4
1, 3
3, 2
8, 7
3, 4
3, 5
6, 5
4, 3
3, 0
3, 2
5, 6
1, 3
7, 3
13, 3
8, 6
8, 7
6, 7
4, 5
4, 2
6, 5
6, 7
5, 5
6, 2
4, 1
6, 4
1, 3
3, 4
2, 1
3, 3
2, 2
3, 6
0, 5
2, 1
2, 2
0, 1
4, 4
2, 6
3, 8
2, 2
2, 2
0, 3
3, 1
1, 2
4, 0
1, 2
3, 3
6, 4
0, 1
0, 2
1, 2
1, 1
0, 2
3, 4
0, 0
0, 2
1, 1
1, 0
1, 1
3, 2
1, 0
0, 0
0, 2
2, 1
0, 1
2, 1
1, 2
1, 0
0, 0
0, 1
0, 1
1, 0
0, 0
0, 2
0, 1
0, 0
0, 0
0, 1
1, 3
0, 0
0, 0
0, 0
1, 1
0, 0
2, 0
0, 0
1, 1
0, 0
0, 1
0, 0
0, 1
0, 0
0, 1
0, 0
1, 0
0, 1
2, 0
1, 0
1, 0
0, 1
0, 0
1, 0
0, 0
0, 0
0, 0
0, 0
0, 0
0, 0
0, 0
0, 0
0, 0
0, 0
0, 0
0, 2
0, 1
0, 0
0, 0
0, 1
0, 0
0, 0
0, 0
1, 0
0, 0
0, 0
0, 0
0, 0
0, 0
0, 0
0, 0
0, 0
0, 0
0, 0
0, 1
0, 0
0, 0
0, 0
0, 0
0, 0
0, 0
0, 0
0, 0
0, 0
0, 0
0, 0
0, 0
0, 0
0, 0
0, 0
0, 0
0, 0
0, 0
0, 0
0, 0
0, 0
0, 0
0, 0
0, 0
0, 0
0, 0
0, 0
0, 0
0, 0
0, 0
0, 0
0, 0
0, 0
0, 0
0, 0
0, 0
0, 0
0, 0
0, 0
0, 0
0, 0
0, 0
0, 0
0, 0
0, 0
0, 0
0, 0
0, 0
0, 0
0, 0
0, 0
0, 0
0, 0
0, 0
0, 0
0, 0
0, 0
0, 0
0, 0
0, 0
0, 0
0, 0
0, 0
0, 0
0, 0
0, 0
0, 0
0, 0
0, 0
0, 0
0, 0
0, 0
0, 0
0, 0
0, 0
0, 0
0, 0
0, 0
0, 0
0, 0
0, 0
0, 0
0, 0
0, 0
0, 0
0, 0
0, 0
0, 0
0, 0
0, 0
0, 0
#ENDOFDATA     end of spectrum data

File: ps__0852shot_2174.msa
#FORMAT      : EMSA/MAS spectral data file
#VERSION     : TC202v2.0 PIXL
#TITLE       : N/A
#DATE        :       Date in the format DD-MMM-YYYY, for example 07-JUL-2010
#TIME        :             The time of day at which the spectrum was recorded, in 24-hour format
#OWNER       : PIXL Flight Model       (PIXL will use this to indicate which instrument took the data.)
#NPOINTS     : 4096     Number of data points in the spectrum (This can be zero for configuration only files)
#NCOLUMNS    : 2     Number of data columns in the spectrum (This can be zero for configuration only files)
#XUNITS      : eV
#YUNITS      : COUNTS
#DATATYPE    : YY
#XPERCHAN    : 7.862, 7.881   eV per channel (separate by commas if more than one detector)
#OFFSET      : 18.5, -22.4         eV of first channel  (separate by commas if more than one detector
#SIGNALTYPE  : XRF
#YP_TEMP     : 2.235
#LIVETIME    : 8.55632, 8.37787   seconds (separate by commas if more than one detector)
#REALTIME    : 10, 10.0   seconds (separate by commas if more than one detector)
#SPECTRUM    : start of spectrum data
0, 0
0, 0
0, 0
0, 0
0, 0
0, 0
0, 0
0, 0
1, 3
3, 2
2, 2
24, 43
46, 58
3, 4
3, 9
54, 105
277, 398
83, 115
7, 4
3, 5
27, 35
104, 153
49, 70
13, 19
35, 55
47, 48
17, 20
13, 9
4, 6
2, 4
2, 1
2, 5
2, 1
6, 12
9, 13
6, 6
2, 3
3, 5
4, 6
2, 2
8, 2
42, 11
33, 11
24, 11
7, 8
3, 6
3, 7
2, 6
4, 8
10, 12
7, 13
4, 6
7, 19
31, 75
40, 72
18, 20
27, 49
339, 626
1416, 2593
1108, 1617
114, 173
10, 39
16, 48
83, 126
217, 387
167, 227
27, 25
5, 8
11, 15
12, 17
7, 12
1, 2
0, 7
1, 2
2, 6
5, 5
7, 1
1, 1
3, 4
2, 3
4, 6
2, 5
4, 7
13, 5
10, 9
3, 9
3, 12
3, 7
5, 2
3, 2
5, 7
9, 17
7, 5
5, 4
4, 4
1, 4
3, 3
1, 3
1, 3
0, 4
1, 2
2, 8
2, 4
1, 3
0, 1
2, 6
2, 5
1, 3
0, 5
0, 2
2, 2
1, 2
1, 3
2, 1
1, 2
2, 3
4, 5
2, 2
1, 4
0, 1
2, 1
0, 2
4, 3
1, 3
3, 0
1, 1
3, 2
0, 1
0, 2
0, 1
0, 2
2, 0
2, 0
1, 1
1, 2
1, 3
2, 0
0, 0
0, 1
0, 1
0, 0
0, 0
2, 0
1, 0
0, 1
0, 0
2, 1
1, 0
1, 0
1, 1
0, 1
0, 0
0, 0
0, 1
0, 1
0, 0
0, 1
0, 0
0, 0
0, 1
1, 0
0, 0
0, 1
1, 0
1, 0
1, 0
0, 1
2, 0
0, 0
0, 0
0, 0
0, 0
0, 0
0, 0
0, 0
0, 0
0, 0
1, 0
0, 0
0, 0
0, 0
0, 0
0, 0
0, 0
1, 0
2, 1
0, 1
0, 0
0, 0
0, 0
0, 1
0, 0
0, 0
0, 0
0, 0
0, 0
0, 0
0, 0
0, 0
0, 0
0, 0
0, 0
0, 0
0, 0
0, 0
0, 0
0, 0
0, 0
0, 0
0, 0
0, 0
0, 0
0, 0
0, 0
0, 0
0, 0
0, 0
0, 0
0, 0
0, 0
0, 0
0, 0
0, 0
0, 0
0, 0
0, 0
0, 0
0, 0
0, 0
0, 0
0, 0
0, 0
0, 0
0, 0
0, 0
0, 0
0, 0
1, 0
0, 0
0, 0
0, 0
0, 0
0, 0
0, 0
0, 0
0, 0
0, 0
0, 0
0, 0
0, 0
0, 0
0, 0
0, 0
0, 0
0, 0
0, 0
0, 0
0, 0
0, 0
0, 0
0, 0
0, 0
0, 0
0, 0
0, 0
0, 0
0, 0
0, 0
0, 0
0, 0
0, 0
0, 0
0, 0
0, 0
0, 0
0, 0
0, 0
0, 0
0, 0
0, 0
0, 0
0, 0
0, 0
0, 0
0, 0
0, 0
0, 0
0, 0
0, 0
0, 0
0, 0
0, 0
0, 0
0, 0
#ENDOFDATA     end of spectrum data

File: ps__0852shot_2175.msa
#FORMAT      : EMSA/MAS spectral data file
#VERSION     : TC202v2.0 PIXL
#TITLE       : N/A
#DATE        :       Date in the format DD-MMM-YYYY, for example 07-JUL-2010
#TIME        :             The time of day at which the spectrum was recorded, in 24-hour format
#OWNER       : PIXL Flight Model       (PIXL will use this to indicate which instrument took the data.)
#NPOINTS     : 4096     Number of data points in the spectrum (This can be zero for configuration only files)
#NCOLUMNS    : 2     Number of data columns in the spectrum (This can be zero for configuration only files)
#XUNITS      : eV
#YUNITS      : COUNTS
#DATATYPE    : YY
#XPERCHAN    : 7.862, 7.881   eV per channel (separate by commas if more than one detector)
#OFFSET      : 18.5, -22.4         eV of first channel  (separate by commas if more than one detector
#SIGNALTYPE  : XRF
#YP_TEMP     : 2.235
#LIVETIME    : 8.54674, 8.56011   seconds (separate by commas if more than one detector)
#REALTIME    : 10, 10.0   seconds (separate by commas if more than one detector)
#SPECTRUM    : start of spectrum data
0, 0
0, 0
0, 0
0, 0
0, 0
0, 0
0, 0
0, 0
0, 0
3, 1
0, 3
23, 46
32, 64
4, 6
3, 6
67, 98
295, 459
67, 113
5, 7
1, 4
22, 37
161, 168
70, 70
19, 34
53, 75
34, 47
15, 29
9, 19
8, 11
2, 2
3, 6
2, 2
0, 2
6, 15
9, 12
2, 12
4, 22
4, 10
8, 7
2, 7
1, 8
19, 16
16, 32
16, 28
5, 16
7, 7
6, 9
9, 8
7, 14
10, 15
8, 9
5, 8
9, 13
30, 38
45, 71
30, 29
22, 44
375, 697
1495, 2658
1088, 1592
139, 174
11, 19
16, 24
76, 135
240, 378
143, 221
24, 28
12, 6
18, 18
5, 7
3, 13
6, 16
9, 10
4, 9
5, 6
4, 11
5, 4
0, 2
7, 2
2, 6
2, 11
0, 2
5, 4
0, 7
8, 11
2, 14
9, 5
1, 7
7, 4
2, 7
1, 3
3, 4
0, 5
0, 1
0, 3
1, 3
0, 4
5, 6
3, 1
1, 2
1, 7
2, 2
2, 5
3, 3
2, 11
2, 6
1, 2
2, 6
1, 2
2, 3
0, 2
0, 6
2, 3
3, 1
2, 5
2, 4
1, 3
1, 5
0, 3
1, 2
2, 2
0, 3
1, 4
2, 2
0, 1
0, 1
2, 2
1, 2
0, 2
0, 0
2, 1
0, 2
1, 0
1, 1
0, 0
0, 1
1, 2
0, 1
0, 0
0, 1
0, 0
0, 1
0, 0
0, 0
0, 0
0, 0
1, 1
0, 0
0, 0
1, 2
0, 1
0, 1
1, 1
0, 1
0, 1
0, 0
0, 0
0, 0
1, 2
0, 0
0, 0
1, 0
1, 0
0, 1
0, 0
0, 0
0, 0
0, 1
0, 0
1, 0
1, 0
0, 1
0, 0
0, 2
0, 0
0, 0
0, 0
0, 0
0, 0
0, 0
0, 0
0, 0
0, 0
0, 1
0, 0
0, 0
0, 0
0, 0
0, 1
0, 0
0, 0
0, 0
0, 0
0, 0
0, 0
0, 0
0, 0
0, 0
0, 0
0, 0
0, 0
0, 0
0, 0
0, 0
0, 0
0, 0
0, 0
0, 0
0, 0
0, 0
0, 0
0, 0
0, 0
0, 0
0, 0
0, 0
0, 0
0, 1
0, 0
0, 0
0, 0
0, 0
0, 0
0, 0
0, 0
0, 0
0, 0
0, 0
0, 0
0, 0
0, 0
0, 0
0, 0
0, 0
0, 0
0, 0
0, 0
0, 0
0, 0
0, 0
0, 0
0, 0
0, 0
0, 0
0, 0
0, 0
0, 0
0, 0
0, 0
0, 0
0, 0
0, 0
0, 0
0, 0
0, 0
0, 0
0, 0
0, 0
0, 0
0, 0
0, 0
0, 0
0, 0
0, 0
0, 0
0, 0
0, 0
0, 0
0, 0
0, 0
0, 0
0, 0
0, 0
0, 0
0, 0
0, 0
0, 0
0, 0
0, 0
0, 0
0, 0
0, 0
0, 0
0, 0
0, 0
0, 0
0, 0
0, 0
0, 0
0, 0
0, 0
0, 0
0, 0
0, 0
#ENDOFDATA     end of spectrum data

File: ps__0852shot_2176.msa
#FORMAT      : EMSA/MAS spectral data file
#VERSION     : TC202v2.0 PIXL
#TITLE       : N/A
#DATE        :       Date in the format DD-MMM-YYYY, for example 07-JUL-2010
#TIME        :             The time of day at which the spectrum was recorded, in 24-hour format
#OWNER       : PIXL Flight Model       (PIXL will use this to indicate which instrument took the data.)
#NPOINTS     : 4096     Number of data points in the spectrum (This can be zero for configuration only files)
#NCOLUMNS    : 2     Number of data columns in the spectrum (This can be zero for configuration only files)
#XUNITS      : eV
#YUNITS      : COUNTS
#DATATYPE    : YY
#XPERCHAN    : 7.862, 7.881   eV per channel (separate by commas if more than one detector)
#OFFSET      : 18.5, -22.4         eV of first channel  (separate by commas if more than one detector
#SIGNALTYPE  : XRF
#YP_TEMP     : 2.235
#LIVETIME    : 8.55726, 8.57399   seconds (separate by commas if more than one detector)
#REALTIME    : 10, 10.0   seconds (separate by commas if more than one detector)
#SPECTRUM    : start of spectrum data
0, 0
0, 0
0, 0
0, 0
0, 0
0, 0
0, 0
0, 0
2, 0
1, 4
2, 1
30, 35
45, 57
7, 7
6, 3
89, 100
347, 396
83, 80
1, 2
2, 4
21, 31
117, 151
55, 63
13, 17
65, 43
55, 58
19, 24
13, 17
9, 6
5, 2
3, 5
1, 0
2, 2
11, 9
13, 22
14, 100
8, 102
8, 18
3, 8
6, 6
2, 7
5, 6
19, 14
8, 19
3, 8
8, 7
14, 7
5, 8
9, 7
11, 7
12, 9
9, 9
10, 9
38, 39
61, 54
95, 24
96, 41
437, 576
1811, 2263
1295, 1301
179, 157
20, 24
22, 20
93, 131
299, 338
184, 186
22, 32
9, 5
13, 12
6, 8
5, 12
3, 22
11, 9
7, 4
5, 7
7, 5
6, 2
2, 6
3, 2
4, 4
2, 3
4, 2
2, 3
3, 2
6, 7
1, 5
3, 6
8, 6
18, 1
9, 6
5, 2
4, 5
0, 12
4, 9
6, 11
5, 3
3, 8
2, 3
2, 1
3, 2
3, 3
2, 0
1, 3
3, 3
1, 1
2, 2
1, 1
3, 3
1, 1
0, 2
6, 2
6, 2
5, 5
0, 6
2, 9
1, 6
0, 4
3, 3
0, 1
2, 1
3, 3
0, 1
0, 2
3, 4
2, 1
1, 1
1, 1
0, 0
1, 1
2, 0
0, 1
0, 1
1, 3
0, 0
0, 1
0, 1
0, 0
0, 0
0, 2
0, 1
0, 0
0, 0
0, 0
0, 1
0, 0
0, 0
0, 1
0, 0
1, 2
1, 0
0, 0
1, 0
0, 1
0, 1
0, 0
0, 1
0, 0
0, 0
0, 0
0, 0
0, 0
0, 0
2, 0
0, 0
0, 0
0, 0
0, 0
1, 0
0, 0
0, 0
0, 0
1, 0
0, 1
0, 0
0, 0
0, 0
0, 1
1, 0
1, 0
1, 0
0, 0
0, 0
0, 0
0, 0
0, 0
0, 0
0, 0
0, 0
1, 0
0, 0
2, 0
0, 0
0, 0
0, 0
0, 0
0, 1
0, 0
0, 0
0, 0
0, 0
0, 0
0, 0
0, 0
0, 0
0, 0
0, 0
0, 0
0, 0
0, 0
0, 0
0, 0
0, 0
0, 0
0, 0
0, 0
0, 0
0, 0
0, 0
0, 0
0, 0
0, 0
0, 0
0, 0
0, 0
0, 0
0, 0
0, 0
0, 0
0, 0
0, 0
0, 0
0, 0
0, 0
0, 0
0, 0
0, 0
0, 0
0, 0
0, 0
0, 0
0, 0
0, 0
0, 0
0, 0
0, 0
0, 0
0, 0
0, 0
0, 0
0, 0
0, 0
0, 0
0, 0
0, 0
0, 0
0, 0
0, 0
0, 0
0, 0
0, 0
0, 0
0, 0
0, 0
0, 0
0, 0
0, 0
0, 0
0, 0
0, 0
0, 0
0, 0
0, 0
0, 0
0, 0
0, 0
0, 0
0, 0
0, 0
0, 0
0, 0
0, 0
0, 0
0, 0
0, 0
0, 0
0, 0
0, 0
0, 0
0, 0
0, 0
0, 0
0, 0
0, 0
0, 0
#ENDOFDATA     end of spectrum data

File: ps__0852shot_2177.msa
#FORMAT      : EMSA/MAS spectral data file
#VERSION     : TC202v2.0 PIXL
#TITLE       : N/A
#DATE        :       Date in the format DD-MMM-YYYY, for example 07-JUL-2010
#TIME        :             The time of day at which the spectrum was recorded, in 24-hour format
#OWNER       : PIXL Flight Model       (PIXL will use this to indicate which instrument took the data.)
#NPOINTS     : 4096     Number of data points in the spectrum (This can be zero for configuration only files)
#NCOLUMNS    : 2     Number of data columns in the spectrum (This can be zero for configuration only files)
#XUNITS      : eV
#YUNITS      : COUNTS
#DATATYPE    : YY
#XPERCHAN    : 7.862, 7.881   eV per channel (separate by commas if more than one detector)
#OFFSET      : 18.5, -22.4         eV of first channel  (separate by commas if more than one detector
#SIGNALTYPE  : XRF
#YP_TEMP     : 2.235
#LIVETIME    : 8.56004, 8.58436   seconds (separate by commas if more than one detector)
#REALTIME    : 10, 10.0   seconds (separate by commas if more than one detector)
#SPECTRUM    : start of spectrum data
0, 0
0, 0
0, 0
0, 0
0, 0
0, 0
0, 0
0, 0
2, 1
1, 0
0, 2
45, 38
50, 44
7, 2
4, 4
90, 77
478, 329
125, 61
5, 4
1, 2
12, 9
57, 46
20, 20
13, 14
39, 26
57, 22
20, 19
10, 12
8, 6
5, 1
2, 3
3, 0
3, 2
13, 7
11, 15
23, 29
28, 24
10, 9
5, 5
7, 2
6, 8
7, 4
14, 10
10, 10
8, 16
13, 7
15, 5
8, 8
8, 7
12, 14
20, 5
5, 3
11, 9
31, 31
83, 36
48, 16
53, 26
525, 457
2358, 1912
1802, 1125
223, 105
12, 10
27, 22
110, 106
328, 292
247, 163
33, 28
6, 3
16, 15
9, 6
2, 5
3, 8
4, 4
8, 7
5, 6
4, 7
9, 0
12, 8
8, 2
5, 5
6, 4
4, 1
4, 3
3, 3
2, 1
2, 0
4, 4
10, 0
9, 6
10, 0
3, 2
5, 5
2, 4
2, 4
3, 3
3, 0
5, 0
3, 1
1, 2
1, 4
5, 3
0, 2
2, 3
5, 1
2, 0
1, 1
2, 0
2, 2
1, 3
5, 0
5, 0
2, 4
4, 0
2, 0
3, 3
4, 3
3, 1
3, 2
5, 1
3, 0
0, 0
2, 1
3, 1
0, 2
0, 1
2, 1
2, 1
2, 1
1, 2
4, 1
2, 1
0, 1
1, 0
0, 1
2, 1
0, 1
1, 0
0, 0
1, 2
0, 0
0, 0
0, 1
1, 1
1, 0
0, 2
0, 0
0, 0
2, 0
1, 0
0, 1
0, 0
0, 0
0, 0
0, 0
1, 0
0, 0
0, 0
1, 0
1, 0
1, 0
3, 0
0, 1
0, 0
0, 0
0, 1
1, 0
0, 0
0, 0
0, 1
0, 0
0, 0
0, 0
0, 0
0, 0
0, 0
0, 0
0, 1
0, 0
0, 0
0, 0
0, 0
0, 0
0, 1
0, 0
1, 0
1, 0
0, 0
0, 0
0, 0
0, 0
0, 0
0, 0
0, 0
0, 0
0, 0
0, 0
0, 0
0, 0
0, 0
0, 0
0, 0
0, 0
0, 0
0, 0
0, 0
0, 0
0, 0
0, 0
0, 0
1, 0
0, 0
0, 0
0, 0
0, 0
0, 0
0, 0
0, 0
0, 0
0, 0
0, 0
0, 0
0, 0
0, 0
0, 0
0, 0
0, 0
0, 0
0, 0
0, 0
0, 0
0, 0
0, 0
0, 0
0, 0
0, 0
0, 0
0, 0
0, 0
0, 0
0, 0
0, 0
0, 0
0, 0
0, 0
0, 0
0, 0
0, 0
0, 0
0, 0
0, 0
0, 0
0, 0
0, 0
0, 0
0, 0
0, 0
0, 0
0, 0
0, 0
0, 0
0, 0
0, 0
0, 0
0, 0
0, 0
0, 0
0, 0
0, 0
0, 0
0, 0
0, 0
0, 0
0, 0
0, 0
0, 0
0, 0
0, 0
0, 0
0, 0
0, 0
0, 0
0, 0
0, 0
0, 0
0, 0
0, 0
0, 0
0, 0
0, 0
0, 0
0, 0
0, 0
0, 0
0, 0
#ENDOFDATA     end of spectrum data

File: ps__0852shot_2178.msa
#FORMAT      : EMSA/MAS spectral data file
#VERSION     : TC202v2.0 PIXL
#TITLE       : N/A
#DATE        :       Date in the format DD-MMM-YYYY, for example 07-JUL-2010
#TIME        :             The time of day at which the spectrum was recorded, in 24-hour format
#OWNER       : PIXL Flight Model       (PIXL will use this to indicate which instrument took the data.)
#NPOINTS     : 4096     Number of data points in the spectrum (This can be zero for configuration only files)
#NCOLUMNS    : 2     Number of data columns in the spectrum (This can be zero for configuration only files)
#XUNITS      : eV
#YUNITS      : COUNTS
#DATATYPE    : YY
#XPERCHAN    : 7.862, 7.881   eV per channel (separate by commas if more than one detector)
#OFFSET      : 18.5, -22.4         eV of first channel  (separate by commas if more than one detector
#SIGNALTYPE  : XRF
#YP_TEMP     : 2.428
#LIVETIME    : 8.56457, 8.55304   seconds (separate by commas if more than one detector)
#REALTIME    : 10, 10.0   seconds (separate by commas if more than one detector)
#SPECTRUM    : start of spectrum data
0, 0
0, 0
0, 0
0, 0
0, 0
0, 0
0, 0
0, 0
1, 0
1, 0
2, 1
45, 27
72, 25
6, 1
8, 1
110, 61
448, 266
123, 65
2, 3
3, 0
1, 3
9, 1
4, 5
9, 5
31, 18
27, 36
29, 16
17, 8
5, 10
3, 1
3, 4
9, 1
5, 2
7, 11
24, 11
12, 5
9, 6
4, 5
5, 11
6, 14
3, 2
10, 10
13, 8
14, 26
11, 35
8, 17
13, 9
11, 3
14, 7
42, 15
34, 7
10, 7
17, 8
51, 40
67, 47
36, 18
52, 39
618, 467
2469, 1791
1778, 1041
223, 103
23, 13
24, 16
121, 108
387, 253
246, 132
42, 18
12, 11
19, 5
9, 9
10, 3
5, 2
3, 5
5, 11
4, 10
7, 6
6, 8
9, 2
10, 4
7, 2
3, 4
6, 5
3, 5
6, 3
5, 6
4, 4
1, 2
7, 2
6, 3
2, 3
4, 2
3, 2
6, 2
4, 5
4, 3
4, 4
4, 2
1, 2
4, 1
3, 5
4, 3
5, 2
1, 1
2, 2
3, 2
4, 5
0, 3
1, 1
2, 3
1, 1
2, 0
1, 1
0, 0
6, 2
1, 1
1, 2
2, 2
7, 1
2, 2
2, 1
2, 2
2, 0
0, 2
1, 1
1, 0
1, 0
0, 1
0, 3
3, 1
3, 1
1, 0
0, 1
1, 0
1, 0
2, 1
0, 0
0, 1
1, 0
1, 0
0, 0
0, 1
1, 1
0, 0
2, 0
0, 0
0, 1
1, 1
1, 0
2, 0
0, 0
1, 1
1, 1
0, 1
1, 0
1, 0
0, 0
0, 1
0, 0
0, 0
0, 1
1, 0
0, 0
0, 0
0, 0
1, 0
0, 0
0, 0
1, 0
0, 1
1, 0
1, 0
0, 0
0, 1
1, 0
0, 0
0, 1
0, 0
0, 0
1, 0
0, 0
0, 0
0, 0
0, 1
1, 1
0, 1
0, 1
0, 0
0, 0
0, 0
0, 0
0, 0
0, 0
0, 0
0, 0
0, 0
0, 0
0, 0
0, 0
0, 0
0, 0
0, 0
1, 0
0, 0
0, 0
0, 0
0, 0
0, 0
0, 0
0, 0
0, 0
0, 0
0, 0
0, 0
0, 0
0, 0
0, 0
0, 0
0, 0
0, 0
0, 0
0, 0
0, 0
0, 0
0, 0
0, 0
0, 0
0, 0
0, 0
0, 0
0, 0
0, 0
0, 0
0, 0
0, 0
0, 0
0, 0
0, 0
0, 0
0, 0
0, 0
0, 0
0, 0
0, 0
0, 0
0, 0
0, 0
0, 0
0, 0
0, 0
0, 0
0, 0
0, 0
0, 0
0, 0
0, 0
0, 0
0, 0
0, 0
0, 0
0, 0
0, 0
0, 0
0, 0
0, 0
0, 0
0, 0
0, 0
0, 0
0, 0
0, 0
0, 0
0, 0
0, 0
0, 0
0, 0
0, 0
0, 0
0, 0
0, 0
0, 0
0, 0
0, 0
0, 0
0, 0
0, 0
0, 0
0, 0
0, 0
0, 0
0, 0
0, 0
0, 0
0, 0
0, 0
#ENDOFDATA     end of spectrum data

File: ps__0852shot_2179.msa
#FORMAT      : EMSA/MAS spectral data file
#VERSION     : TC202v2.0 PIXL
#TITLE       : N/A
#DATE        :       Date in the format DD-MMM-YYYY, for example 07-JUL-2010
#TIME        :             The time of day at which the spectrum was recorded, in 24-hour format
#OWNER       : PIXL Flight Model       (PIXL will use this to indicate which instrument took the data.)
#NPOINTS     : 4096     Number of data points in the spectrum (This can be zero for configuration only files)
#NCOLUMNS    : 2     Number of data columns in the spectrum (This can be zero for configuration only files)
#XUNITS      : eV
#YUNITS      : COUNTS
#DATATYPE    : YY
#XPERCHAN    : 7.862, 7.881   eV per channel (separate by commas if more than one detector)
#OFFSET      : 18.5, -22.4         eV of first channel  (separate by commas if more than one detector
#SIGNALTYPE  : XRF
#YP_TEMP     : 2.492
#LIVETIME    : 8.54828, 8.55132   seconds (separate by commas if more than one detector)
#REALTIME    : 10, 10.0   seconds (separate by commas if more than one detector)
#SPECTRUM    : start of spectrum data
0, 0
0, 0
0, 0
0, 0
0, 0
0, 0
0, 0
0, 0
0, 2
2, 0
0, 2
56, 35
78, 67
5, 1
5, 4
118, 82
421, 350
109, 84
6, 5
2, 0
0, 3
2, 4
3, 1
6, 12
35, 58
38, 70
31, 25
13, 2
1, 6
1, 3
2, 6
0, 1
3, 4
13, 8
14, 20
9, 4
4, 3
5, 3
7, 11
9, 24
9, 3
7, 7
18, 11
12, 16
8, 35
7, 16
5, 7
7, 3
9, 3
29, 19
21, 16
12, 10
13, 11
41, 46
78, 59
29, 20
40, 46
509, 561
2357, 2218
1738, 1280
225, 120
18, 14
19, 18
96, 118
381, 338
235, 160
34, 27
3, 7
20, 19
12, 6
5, 2
6, 4
4, 9
10, 10
8, 10
6, 5
6, 4
18, 9
15, 8
11, 5
5, 1
1, 2
2, 4
3, 5
1, 6
1, 5
2, 4
6, 5
5, 2
4, 4
1, 0
6, 6
2, 3
3, 7
0, 4
3, 9
3, 3
4, 1
3, 6
2, 4
2, 5
3, 3
1, 1
3, 3
1, 1
1, 0
1, 4
1, 0
3, 3
2, 1
2, 3
2, 1
4, 3
1, 0
1, 1
1, 4
5, 5
4, 3
3, 2
2, 0
3, 1
2, 2
3, 1
3, 2
3, 1
0, 0
0, 1
1, 0
0, 1
0, 0
0, 0
0, 1
1, 0
1, 0
1, 0
0, 1
0, 0
0, 0
0, 0
0, 0
1, 0
0, 0
0, 0
1, 0
1, 0
0, 1
0, 0
0, 1
0, 0
0, 0
0, 1
0, 0
0, 1
0, 1
0, 0
1, 0
1, 0
0, 1
0, 0
0, 0
0, 0
1, 0
0, 0
0, 1
0, 0
0, 0
1, 0
0, 0
0, 1
0, 0
0, 0
0, 0
1, 0
0, 0
0, 0
0, 0
1, 0
0, 0
0, 0
0, 0
0, 1
0, 0
0, 1
0, 0
0, 0
0, 0
0, 0
0, 0
0, 0
0, 0
0, 0
0, 0
0, 0
0, 0
0, 0
0, 0
0, 0
0, 0
0, 0
0, 1
0, 0
0, 0
0, 0
1, 0
0, 0
0, 0
0, 0
0, 0
0, 0
0, 0
0, 0
0, 0
0, 0
0, 0
0, 0
0, 0
0, 0
0, 0
0, 0
0, 0
0, 0
0, 0
0, 0
0, 0
0, 0
0, 0
0, 0
0, 0
0, 0
0, 0
0, 0
0, 0
0, 0
0, 0
0, 0
0, 0
0, 0
0, 0
0, 0
0, 0
0, 0
0, 0
0, 0
0, 0
0, 0
0, 0
0, 0
0, 0
0, 0
0, 0
0, 0
0, 0
0, 0
0, 0
0, 0
0, 0
0, 0
0, 0
0, 0
0, 0
0, 0
0, 0
0, 0
0, 0
0, 0
0, 0
0, 0
0, 0
0, 0
0, 0
0, 0
0, 0
0, 0
0, 0
0, 0
0, 0
0, 0
0, 0
0, 0
0, 0
0, 0
0, 0
0, 0
0, 0
0, 0
0, 0
0, 0
0, 0
0, 0
0, 0
0, 0
0, 0
0, 0
0, 0
#ENDOFDATA     end of spectrum data

File: ps__0852shot_2180.msa
#FORMAT      : EMSA/MAS spectral data file
#VERSION     : TC202v2.0 PIXL
#TITLE       : N/A
#DATE        :       Date in the format DD-MMM-YYYY, for example 07-JUL-2010
#TIME        :             The time of day at which the spectrum was recorded, in 24-hour format
#OWNER       : PIXL Flight Model       (PIXL will use this to indicate which instrument took the data.)
#NPOINTS     : 4096     Number of data points in the spectrum (This can be zero for configuration only files)
#NCOLUMNS    : 2     Number of data columns in the spectrum (This can be zero for configuration only files)
#XUNITS      : eV
#YUNITS      : COUNTS
#DATATYPE    : YY
#XPERCHAN    : 7.862, 7.881   eV per channel (separate by commas if more than one detector)
#OFFSET      : 18.5, -22.4         eV of first channel  (separate by commas if more than one detector
#SIGNALTYPE  : XRF
#YP_TEMP     : 2.107
#LIVETIME    : 8.54938, 8.5515   seconds (separate by commas if more than one detector)
#REALTIME    : 10, 10.0   seconds (separate by commas if more than one detector)
#SPECTRUM    : start of spectrum data
0, 0
0, 0
0, 0
0, 0
0, 0
0, 0
0, 0
0, 0
1, 0
0, 0
2, 1
50, 55
73, 51
6, 4
4, 2
101, 85
439, 406
112, 106
9, 5
0, 0
1, 0
4, 2
2, 2
4, 5
41, 44
58, 57
16, 23
9, 11
4, 3
2, 7
3, 5
4, 0
3, 4
12, 13
23, 11
7, 8
9, 2
13, 9
8, 14
9, 27
8, 10
11, 13
8, 13
12, 20
13, 107
9, 42
6, 16
6, 5
11, 8
47, 16
16, 12
8, 6
12, 14
37, 42
52, 67
20, 36
43, 30
500, 628
2208, 2193
1712, 1303
219, 114
18, 19
21, 32
116, 128
362, 373
230, 203
36, 28
5, 10
12, 16
10, 10
5, 5
6, 0
6, 10
6, 14
8, 13
6, 8
8, 3
6, 5
7, 4
4, 1
4, 4
2, 6
6, 4
6, 6
7, 5
3, 6
2, 4
2, 4
2, 9
5, 4
5, 3
2, 1
6, 2
5, 3
4, 3
3, 4
1, 3
4, 0
3, 6
2, 7
2, 4
1, 1
4, 3
4, 1
2, 1
2, 6
0, 5
4, 2
3, 1
2, 1
0, 1
2, 2
0, 4
5, 3
5, 5
3, 1
4, 4
4, 3
1, 2
2, 1
1, 1
2, 2
0, 1
2, 0
1, 1
0, 0
2, 0
1, 1
1, 2
0, 2
0, 1
2, 2
0, 1
3, 1
0, 0
0, 0
0, 0
0, 1
1, 0
0, 0
0, 1
1, 0
1, 0
0, 1
0, 0
2, 0
0, 0
0, 0
1, 0
0, 0
0, 0
0, 0
0, 1
0, 0
0, 0
0, 0
0, 0
1, 0
1, 0
0, 2
1, 0
0, 1
0, 0
0, 0
1, 2
0, 0
0, 1
0, 0
1, 1
1, 0
0, 0
1, 0
1, 0
1, 0
1, 0
1, 0
0, 0
0, 0
0, 0
0, 0
0, 0
0, 0
1, 1
1, 0
0, 0
0, 0
0, 0
0, 0
0, 0
0, 0
0, 0
0, 0
0, 0
0, 0
0, 0
0, 0
0, 0
0, 0
0, 0
0, 0
0, 0
0, 0
0, 0
0, 0
0, 0
0, 0
0, 0
0, 0
0, 0
0, 0
0, 0
0, 0
0, 0
0, 0
0, 0
0, 0
0, 0
0, 0
0, 0
0, 0
0, 0
0, 0
0, 0
0, 0
0, 0
0, 0
0, 0
0, 0
0, 0
0, 0
0, 0
0, 0
0, 0
0, 0
0, 0
0, 0
0, 0
0, 0
0, 0
0, 0
0, 0
0, 0
0, 0
0, 0
0, 0
0, 0
0, 0
0, 0
0, 0
0, 0
0, 0
0, 0
0, 0
0, 0
0, 0
0, 0
0, 0
0, 0
0, 0
0, 0
0, 0
0, 0
0, 0
0, 0
0, 0
0, 0
0, 0
0, 0
0, 0
0, 0
0, 0
0, 0
0, 0
0, 0
0, 0
0, 0
0, 0
0, 0
0, 0
0, 0
0, 0
0, 0
0, 0
0, 0
0, 0
0, 0
0, 0
0, 0
0, 0
0, 0
0, 0
0, 0
0, 0
0, 0
#ENDOFDATA     end of spectrum data

File: ps__0852shot_2181.msa
#FORMAT      : EMSA/MAS spectral data file
#VERSION     : TC202v2.0 PIXL
#TITLE       : N/A
#DATE        :       Date in the format DD-MMM-YYYY, for example 07-JUL-2010
#TIME        :             The time of day at which the spectrum was recorded, in 24-hour format
#OWNER       : PIXL Flight Model       (PIXL will use this to indicate which instrument took the data.)
#NPOINTS     : 4096     Number of data points in the spectrum (This can be zero for configuration only files)
#NCOLUMNS    : 2     Number of data columns in the spectrum (This can be zero for configuration only files)
#XUNITS      : eV
#YUNITS      : COUNTS
#DATATYPE    : YY
#XPERCHAN    : 7.862, 7.881   eV per channel (separate by commas if more than one detector)
#OFFSET      : 18.5, -22.4         eV of first channel  (separate by commas if more than one detector
#SIGNALTYPE  : XRF
#YP_TEMP     : 2.492
#LIVETIME    : 8.5368, 8.56375   seconds (separate by commas if more than one detector)
#REALTIME    : 10, 10.0   seconds (separate by commas if more than one detector)
#SPECTRUM    : start of spectrum data
0, 0
0, 0
0, 0
0, 0
0, 0
0, 0
0, 0
0, 0
0, 1
3, 0
0, 5
53, 49
72, 56
6, 3
3, 4
113, 78
470, 455
132, 109
7, 3
1, 2
0, 0
4, 1
3, 2
9, 7
34, 39
31, 52
20, 17
8, 13
6, 6
5, 8
10, 7
4, 2
2, 4
21, 25
28, 19
5, 7
5, 27
4, 10
1, 4
4, 5
8, 5
9, 5
13, 16
30, 29
114, 72
59, 29
11, 10
7, 6
13, 7
20, 20
10, 15
5, 11
12, 10
33, 50
59, 52
17, 20
32, 39
507, 573
2265, 2226
1643, 1311
214, 149
30, 15
28, 25
123, 114
323, 310
244, 189
36, 9
9, 8
7, 15
3, 4
9, 6
5, 18
9, 16
19, 11
22, 12
7, 4
6, 4
3, 1
4, 7
3, 1
1, 3
4, 1
2, 4
4, 2
3, 3
3, 2
6, 3
3, 3
6, 3
7, 5
7, 1
4, 0
5, 5
3, 4
3, 3
10, 4
11, 3
1, 0
1, 3
3, 1
4, 2
3, 2
2, 0
5, 2
3, 4
1, 2
6, 4
2, 3
2, 3
2, 4
4, 1
3, 0
3, 0
0, 2
1, 4
3, 3
3, 3
6, 1
5, 1
2, 1
1, 1
1, 2
3, 0
1, 1
0, 1
0, 1
2, 0
2, 0
0, 0
1, 0
2, 0
0, 2
0, 2
2, 1
1, 0
1, 0
2, 2
1, 1
0, 0
0, 0
1, 0
0, 1
0, 0
0, 1
0, 2
0, 0
2, 0
0, 0
0, 0
0, 0
0, 1
0, 0
0, 0
0, 1
0, 0
1, 0
1, 2
0, 0
0, 0
0, 1
1, 0
0, 0
0, 1
0, 0
0, 0
0, 0
0, 0
0, 0
1, 2
0, 0
0, 0
0, 0
0, 0
1, 0
0, 0
0, 0
0, 0
0, 1
2, 0
0, 0
1, 0
0, 0
1, 0
0, 0
0, 0
0, 0
0, 0
0, 1
0, 0
0, 2
0, 0
0, 0
0, 0
1, 0
0, 1
0, 0
0, 0
0, 0
0, 0
0, 0
0, 0
0, 0
0, 0
0, 0
0, 0
0, 0
0, 0
0, 0
0, 0
0, 0
0, 0
0, 0
0, 0
0, 0
0, 0
0, 0
0, 0
0, 0
0, 0
0, 0
0, 0
0, 0
0, 0
0, 0
0, 0
0, 0
0, 0
0, 0
0, 0
0, 0
0, 0
0, 0
0, 0
0, 0
0, 0
0, 0
0, 0
0, 0
0, 0
0, 0
0, 0
0, 0
0, 0
0, 0
0, 0
0, 0
0, 0
0, 0
0, 0
0, 0
0, 0
0, 0
0, 0
0, 0
0, 0
0, 0
0, 0
0, 0
0, 0
0, 0
0, 0
0, 0
0, 0
0, 0
0, 0
0, 0
0, 0
0, 0
0, 0
0, 0
0, 0
0, 0
0, 0
0, 0
0, 0
0, 0
0, 0
0, 0
0, 0
0, 0
0, 0
0, 0
0, 0
0, 0
0, 0
0, 0
0, 0
0, 0
0, 0
0, 0
0, 0
0, 0
0, 0
0, 0
#ENDOFDATA     end of spectrum data