Folder: data-repository/host_upload/06-09-2024/ps_0852/dump3 (part 32)

File: ps__0852shot_2282.msa
#FORMAT      : EMSA/MAS spectral data file
#VERSION     : TC202v2.0 PIXL
#TITLE       : N/A
#DATE        :       Date in the format DD-MMM-YYYY, for example 07-JUL-2010
#TIME        :             The time of day at which the spectrum was recorded, in 24-hour format
#OWNER       : PIXL Flight Model       (PIXL will use this to indicate which instrument took the data.)
#NPOINTS     : 4096     Number of data points in the spectrum (This can be zero for configuration only files)
#NCOLUMNS    : 2     Number of data columns in the spectrum (This can be zero for configuration only files)
#XUNITS      : eV
#YUNITS      : COUNTS
#DATATYPE    : YY
#XPERCHAN    : 7.862, 7.881   eV per channel (separate by commas if more than one detector)
#OFFSET      : 18.5, -22.4         eV of first channel  (separate by commas if more than one detector
#SIGNALTYPE  : XRF
#YP_TEMP     : 2.107
#LIVETIME    : 8.56432, 8.5279   seconds (separate by commas if more than one detector)
#REALTIME    : 10, 10.0   seconds (separate by commas if more than one detector)
#SPECTRUM    : start of spectrum data
0, 0
0, 0
0, 0
0, 0
0, 0
0, 0
0, 0
0, 0
1, 0
0, 0
2, 2
50, 47
65, 51
1, 2
6, 3
82, 98
446, 420
110, 112
3, 3
0, 4
1, 3
4, 5
3, 2
3, 4
23, 23
19, 16
13, 16
12, 5
4, 1
4, 3
1, 1
0, 1
3, 3
17, 23
26, 33
5, 4
1, 3
5, 2
2, 3
5, 5
4, 3
7, 11
10, 11
13, 9
4, 2
9, 5
7, 5
4, 3
11, 9
44, 7
96, 6
43, 8
13, 3
49, 32
112, 58
44, 21
30, 23
499, 568
2196, 2230
1597, 1354
196, 139
18, 17
20, 13
111, 128
339, 368
210, 219
34, 16
12, 15
15, 16
11, 8
7, 4
2, 9
9, 11
10, 8
9, 4
8, 4
4, 0
5, 3
2, 7
8, 6
13, 2
33, 10
17, 4
8, 6
3, 3
3, 3
2, 2
3, 3
3, 3
0, 5
4, 2
2, 1
1, 1
1, 3
4, 3
1, 2
0, 3
1, 1
2, 0
4, 4
6, 4
6, 1
0, 1
4, 0
2, 2
2, 3
4, 1
3, 3
0, 4
4, 1
4, 5
3, 0
5, 3
0, 2
0, 1
4, 3
3, 5
1, 1
1, 1
2, 0
1, 3
1, 2
2, 3
1, 4
0, 2
0, 0
1, 1
2, 0
0, 2
1, 1
2, 1
1, 2
0, 1
1, 2
0, 1
1, 0
0, 1
0, 1
1, 0
0, 1
3, 1
1, 3
0, 0
0, 2
0, 0
0, 1
1, 0
0, 0
1, 0
1, 0
0, 1
0, 0
0, 0
1, 1
1, 0
0, 0
0, 0
1, 1
0, 0
0, 1
0, 1
0, 0
0, 0
2, 0
0, 0
0, 0
0, 0
0, 0
0, 1
0, 0
0, 1
0, 1
0, 2
0, 0
0, 0
0, 1
0, 0
2, 0
0, 0
0, 0
0, 1
0, 1
0, 0
0, 0
1, 1
0, 0
0, 0
1, 0
0, 0
0, 0
0, 0
0, 0
0, 0
0, 0
0, 0
0, 0
0, 0
0, 0
0, 0
1, 0
0, 0
0, 1
0, 0
0, 0
0, 0
0, 0
0, 0
0, 0
0, 0
0, 0
0, 0
0, 0
0, 0
0, 0
0, 0
0, 0
0, 0
0, 0
0, 0
0, 0
0, 0
0, 0
0, 0
0, 0
0, 0
0, 0
0, 0
0, 0
0, 0
0, 0
0, 0
0, 0
0, 0
0, 0
0, 0
0, 0
0, 0
0, 0
0, 0
0, 0
0, 0
0, 0
0, 0
0, 0
0, 0
0, 0
0, 0
0, 0
0, 0
0, 0
0, 0
0, 0
0, 0
0, 0
0, 0
0, 0
0, 0
0, 0
0, 0
0, 0
0, 0
0, 0
0, 0
0, 0
0, 0
0, 0
0, 0
0, 0
0, 0
0, 0
0, 0
0, 0
0, 0
0, 0
0, 0
0, 0
0, 0
0, 0
0, 0
0, 0
0, 0
0, 0
0, 0
0, 0
0, 0
0, 0
0, 0
0, 0
0, 0
0, 0
0, 0
0, 0
0, 0
0, 0
#ENDOFDATA     end of spectrum data

File: ps__0852shot_2283.msa
#FORMAT      : EMSA/MAS spectral data file
#VERSION     : TC202v2.0 PIXL
#TITLE       : N/A
#DATE        :       Date in the format DD-MMM-YYYY, for example 07-JUL-2010
#TIME        :             The time of day at which the spectrum was recorded, in 24-hour format
#OWNER       : PIXL Flight Model       (PIXL will use this to indicate which instrument took the data.)
#NPOINTS     : 4096     Number of data points in the spectrum (This can be zero for configuration only files)
#NCOLUMNS    : 2     Number of data columns in the spectrum (This can be zero for configuration only files)
#XUNITS      : eV
#YUNITS      : COUNTS
#DATATYPE    : YY
#XPERCHAN    : 7.862, 7.881   eV per channel (separate by commas if more than one detector)
#OFFSET      : 18.5, -22.4         eV of first channel  (separate by commas if more than one detector
#SIGNALTYPE  : XRF
#YP_TEMP     : 2.396
#LIVETIME    : 8.55992, 8.52522   seconds (separate by commas if more than one detector)
#REALTIME    : 10, 10.0   seconds (separate by commas if more than one detector)
#SPECTRUM    : start of spectrum data
0, 0
0, 0
0, 0
0, 0
0, 0
0, 0
0, 0
0, 0
0, 0
0, 2
1, 1
39, 36
55, 55
7, 8
7, 4
108, 135
476, 501
140, 126
7, 7
1, 4
12, 7
39, 50
25, 19
12, 8
35, 28
26, 37
13, 16
13, 17
5, 3
3, 4
3, 3
2, 5
9, 12
156, 177
232, 286
55, 27
24, 39
38, 36
12, 3
7, 4
4, 3
8, 11
7, 11
7, 7
8, 3
9, 4
6, 14
6, 16
9, 16
53, 42
64, 17
22, 6
14, 9
61, 44
89, 50
30, 16
26, 34
371, 454
1591, 1755
1129, 1073
119, 113
10, 13
12, 20
61, 103
245, 313
173, 144
45, 13
17, 11
11, 9
7, 12
3, 6
3, 4
3, 7
1, 7
6, 5
4, 5
9, 5
7, 4
1, 4
4, 5
3, 6
11, 10
11, 5
2, 7
6, 9
5, 0
5, 3
3, 5
3, 1
8, 4
5, 5
4, 1
2, 3
1, 3
1, 3
4, 4
1, 6
5, 5
1, 3
2, 5
2, 2
3, 4
5, 0
3, 4
6, 1
3, 3
3, 3
5, 2
4, 1
5, 2
2, 4
3, 3
5, 4
3, 2
0, 2
5, 3
1, 2
4, 3
1, 1
2, 1
3, 2
0, 0
1, 2
1, 1
2, 1
1, 0
1, 0
0, 2
2, 1
0, 1
1, 1
1, 0
2, 1
1, 3
0, 1
2, 0
1, 1
0, 0
0, 0
0, 0
0, 0
0, 0
0, 0
0, 1
0, 2
0, 0
0, 0
0, 1
0, 0
1, 1
0, 0
0, 1
0, 0
0, 0
0, 0
0, 2
0, 0
1, 1
0, 0
0, 0
0, 0
0, 0
0, 0
0, 0
0, 0
0, 0
1, 1
1, 0
0, 1
0, 1
1, 0
0, 0
0, 0
0, 0
0, 0
0, 1
0, 0
0, 1
0, 0
0, 0
0, 0
0, 0
0, 0
0, 0
0, 1
0, 0
0, 0
0, 0
0, 0
0, 0
0, 0
0, 1
0, 0
0, 0
0, 0
0, 0
0, 0
0, 0
0, 0
0, 0
0, 0
0, 0
0, 0
0, 0
0, 0
0, 0
0, 0
0, 0
0, 0
0, 0
0, 0
0, 0
0, 0
0, 0
0, 0
0, 0
0, 0
0, 0
0, 0
0, 0
0, 0
0, 0
0, 0
0, 0
0, 0
0, 0
0, 0
0, 0
0, 0
0, 0
0, 0
0, 0
0, 0
0, 0
0, 0
0, 0
0, 0
0, 0
0, 0
0, 0
0, 0
0, 0
0, 0
0, 0
0, 0
0, 0
0, 0
0, 0
0, 0
0, 0
0, 0
0, 0
0, 0
0, 0
0, 0
0, 0
0, 0
0, 0
0, 0
0, 0
0, 0
0, 0
0, 0
0, 0
0, 0
0, 0
0, 0
0, 0
0, 0
0, 0
0, 0
0, 0
0, 0
0, 0
0, 0
0, 0
0, 0
0, 0
0, 0
0, 0
0, 0
0, 0
0, 0
0, 0
0, 0
0, 0
0, 0
0, 0
0, 0
0, 0
0, 0
0, 0
0, 0
0, 0
#ENDOFDATA     end of spectrum data

File: ps__0852shot_2284.msa
#FORMAT      : EMSA/MAS spectral data file
#VERSION     : TC202v2.0 PIXL
#TITLE       : N/A
#DATE        :       Date in the format DD-MMM-YYYY, for example 07-JUL-2010
#TIME        :             The time of day at which the spectrum was recorded, in 24-hour format
#OWNER       : PIXL Flight Model       (PIXL will use this to indicate which instrument took the data.)
#NPOINTS     : 4096     Number of data points in the spectrum (This can be zero for configuration only files)
#NCOLUMNS    : 2     Number of data columns in the spectrum (This can be zero for configuration only files)
#XUNITS      : eV
#YUNITS      : COUNTS
#DATATYPE    : YY
#XPERCHAN    : 7.862, 7.881   eV per channel (separate by commas if more than one detector)
#OFFSET      : 18.5, -22.4         eV of first channel  (separate by commas if more than one detector
#SIGNALTYPE  : XRF
#YP_TEMP     : 2.492
#LIVETIME    : 8.56822, 8.5382   seconds (separate by commas if more than one detector)
#REALTIME    : 10, 10.0   seconds (separate by commas if more than one detector)
#SPECTRUM    : start of spectrum data
0, 0
0, 0
0, 0
0, 0
0, 0
0, 0
0, 0
0, 0
0, 1
2, 0
2, 3
28, 55
55, 70
5, 1
2, 4
95, 87
400, 426
85, 90
2, 4
2, 5
33, 48
243, 275
108, 90
25, 26
41, 49
39, 45
19, 20
8, 14
7, 4
2, 5
3, 8
5, 4
8, 7
55, 59
93, 86
16, 14
11, 13
13, 20
22, 3
16, 3
6, 11
8, 16
16, 11
14, 12
5, 4
11, 4
6, 10
3, 8
9, 10
13, 19
16, 7
8, 13
41, 18
110, 46
90, 49
30, 23
33, 34
392, 576
1847, 2175
1383, 1309
160, 118
10, 12
21, 21
74, 121
269, 352
209, 209
29, 27
9, 27
9, 20
7, 8
6, 5
3, 4
4, 3
0, 7
6, 3
11, 2
16, 6
11, 2
4, 4
8, 6
3, 6
4, 9
5, 8
7, 5
2, 2
7, 6
7, 2
1, 3
1, 5
9, 5
14, 4
3, 2
4, 7
3, 7
1, 3
2, 3
2, 8
3, 4
5, 5
1, 1
5, 5
3, 2
3, 2
2, 5
1, 1
3, 4
1, 1
7, 5
2, 2
3, 3
2, 1
1, 0
0, 6
4, 2
0, 2
4, 1
9, 5
0, 1
0, 1
3, 3
1, 2
0, 1
3, 4
3, 2
1, 0
2, 1
0, 0
1, 0
0, 3
0, 0
2, 0
1, 0
1, 0
0, 0
0, 2
1, 0
0, 1
0, 2
0, 1
0, 1
0, 0
1, 1
1, 1
1, 0
0, 0
0, 0
0, 0
0, 0
0, 0
1, 1
0, 0
0, 0
0, 1
1, 0
0, 0
1, 0
0, 0
0, 0
1, 0
0, 0
1, 0
0, 1
1, 0
0, 1
0, 0
0, 0
0, 1
1, 1
0, 2
0, 0
0, 0
0, 0
0, 0
0, 0
0, 0
0, 0
0, 0
0, 0
0, 0
0, 0
0, 0
0, 0
0, 0
0, 0
0, 0
0, 0
0, 0
0, 0
0, 0
0, 1
0, 1
0, 0
0, 0
0, 0
0, 0
0, 0
0, 0
0, 0
0, 0
0, 0
0, 0
0, 0
0, 0
0, 0
0, 0
0, 0
0, 0
0, 0
0, 0
0, 0
0, 0
0, 0
0, 0
0, 0
0, 0
0, 0
0, 0
0, 0
0, 0
0, 0
0, 0
0, 0
0, 0
0, 0
0, 0
0, 0
0, 0
0, 0
0, 0
0, 0
0, 0
0, 0
0, 0
0, 0
0, 0
0, 0
0, 0
0, 0
0, 0
0, 0
0, 0
0, 0
0, 0
0, 0
0, 0
0, 0
0, 0
0, 0
0, 0
0, 0
0, 0
0, 0
0, 0
0, 0
0, 0
0, 0
0, 0
0, 0
0, 0
0, 0
0, 0
0, 0
0, 0
0, 0
0, 0
0, 0
0, 0
0, 0
0, 0
0, 0
0, 0
0, 0
0, 0
0, 0
0, 0
0, 0
0, 0
0, 0
0, 0
0, 0
0, 0
0, 0
0, 0
0, 0
0, 0
0, 0
0, 0
0, 0
0, 0
0, 0
0, 0
0, 0
0, 0
0, 0
#ENDOFDATA     end of spectrum data

File: ps__0852shot_2285.msa
#FORMAT      : EMSA/MAS spectral data file
#VERSION     : TC202v2.0 PIXL
#TITLE       : N/A
#DATE        :       Date in the format DD-MMM-YYYY, for example 07-JUL-2010
#TIME        :             The time of day at which the spectrum was recorded, in 24-hour format
#OWNER       : PIXL Flight Model       (PIXL will use this to indicate which instrument took the data.)
#NPOINTS     : 4096     Number of data points in the spectrum (This can be zero for configuration only files)
#NCOLUMNS    : 2     Number of data columns in the spectrum (This can be zero for configuration only files)
#XUNITS      : eV
#YUNITS      : COUNTS
#DATATYPE    : YY
#XPERCHAN    : 7.862, 7.881   eV per channel (separate by commas if more than one detector)
#OFFSET      : 18.5, -22.4         eV of first channel  (separate by commas if more than one detector
#SIGNALTYPE  : XRF
#YP_TEMP     : 2.332
#LIVETIME    : 8.54297, 8.52211   seconds (separate by commas if more than one detector)
#REALTIME    : 10, 10.0   seconds (separate by commas if more than one detector)
#SPECTRUM    : start of spectrum data
0, 0
0, 0
0, 0
0, 0
0, 0
0, 0
0, 0
1, 0
0, 2
1, 1
3, 4
36, 46
56, 68
6, 5
1, 9
76, 84
333, 412
76, 88
1, 8
1, 3
50, 50
285, 319
137, 99
28, 28
63, 61
44, 44
30, 28
14, 8
3, 3
6, 2
11, 20
11, 11
4, 6
27, 22
22, 30
5, 6
8, 4
10, 8
9, 9
3, 7
6, 7
16, 10
16, 13
9, 8
5, 5
4, 14
5, 14
2, 9
6, 9
18, 15
28, 19
20, 8
26, 11
139, 47
117, 70
21, 29
24, 41
420, 585
1914, 2498
1355, 1494
178, 144
11, 18
17, 20
93, 126
343, 391
197, 183
34, 30
7, 14
17, 14
14, 13
7, 7
3, 4
2, 4
4, 4
8, 5
5, 8
6, 3
1, 1
4, 4
3, 9
3, 6
4, 4
2, 9
4, 4
5, 4
10, 6
8, 5
6, 3
1, 1
8, 1
8, 5
4, 8
3, 8
2, 8
0, 6
3, 3
3, 5
6, 3
3, 3
0, 2
3, 2
1, 1
1, 5
0, 2
5, 3
2, 4
8, 2
8, 5
3, 1
1, 6
2, 1
5, 2
1, 2
0, 2
1, 5
2, 4
4, 3
1, 2
4, 1
2, 1
1, 0
2, 3
3, 2
3, 4
1, 0
1, 1
0, 1
2, 2
2, 1
0, 0
2, 0
0, 2
2, 0
2, 0
1, 0
0, 0
1, 0
0, 1
0, 0
1, 0
0, 1
2, 1
2, 1
0, 0
0, 0
4, 0
1, 0
0, 0
0, 0
0, 0
0, 3
2, 0
0, 0
1, 0
1, 0
0, 0
0, 0
0, 0
0, 0
0, 2
0, 0
0, 1
0, 1
0, 0
0, 0
1, 0
1, 1
0, 0
1, 0
0, 0
0, 0
0, 0
0, 0
0, 0
0, 0
0, 0
0, 2
0, 0
0, 0
0, 1
0, 0
0, 1
1, 1
1, 0
1, 0
1, 0
0, 0
1, 0
1, 0
0, 0
0, 0
0, 1
0, 0
0, 0
0, 0
0, 0
0, 0
0, 0
0, 0
0, 0
0, 0
0, 0
0, 0
0, 1
0, 0
0, 0
0, 0
0, 0
0, 0
0, 0
0, 0
0, 0
0, 0
0, 0
0, 0
0, 0
0, 0
0, 0
0, 0
0, 0
0, 0
0, 0
0, 0
0, 0
0, 0
0, 0
0, 0
0, 0
0, 0
0, 0
0, 0
0, 0
0, 0
0, 0
0, 0
0, 0
0, 0
0, 0
0, 0
0, 0
0, 0
0, 0
0, 0
0, 0
0, 0
0, 0
0, 0
0, 0
0, 0
0, 0
0, 0
0, 0
0, 0
0, 0
0, 0
0, 0
0, 0
0, 0
0, 0
0, 0
0, 0
0, 0
0, 0
0, 0
0, 0
0, 0
0, 0
0, 0
0, 0
0, 0
0, 0
0, 0
0, 0
0, 0
0, 0
0, 0
0, 0
0, 0
0, 0
0, 0
0, 0
0, 0
0, 0
0, 0
0, 0
0, 0
0, 0
0, 0
0, 0
0, 0
0, 0
0, 0
0, 0
0, 0
#ENDOFDATA     end of spectrum data

File: ps__0852shot_2286.msa
#FORMAT      : EMSA/MAS spectral data file
#VERSION     : TC202v2.0 PIXL
#TITLE       : N/A
#DATE        :       Date in the format DD-MMM-YYYY, for example 07-JUL-2010
#TIME        :             The time of day at which the spectrum was recorded, in 24-hour format
#OWNER       : PIXL Flight Model       (PIXL will use this to indicate which instrument took the data.)
#NPOINTS     : 4096     Number of data points in the spectrum (This can be zero for configuration only files)
#NCOLUMNS    : 2     Number of data columns in the spectrum (This can be zero for configuration only files)
#XUNITS      : eV
#YUNITS      : COUNTS
#DATATYPE    : YY
#XPERCHAN    : 7.862, 7.881   eV per channel (separate by commas if more than one detector)
#OFFSET      : 18.5, -22.4         eV of first channel  (separate by commas if more than one detector
#SIGNALTYPE  : XRF
#YP_TEMP     : 2.107
#LIVETIME    : 8.52153, 8.52513   seconds (separate by commas if more than one detector)
#REALTIME    : 10, 10.0   seconds (separate by commas if more than one detector)
#SPECTRUM    : start of spectrum data
0, 0
0, 0
0, 0
0, 0
0, 0
0, 0
0, 0
0, 0
3, 4
4, 1
2, 5
39, 39
55, 52
3, 6
2, 2
76, 77
256, 317
61, 77
12, 3
5, 6
79, 96
529, 501
213, 210
61, 71
113, 111
65, 70
32, 36
23, 16
3, 3
5, 3
11, 17
15, 14
5, 7
12, 14
20, 17
5, 11
6, 4
9, 8
4, 6
5, 3
6, 2
4, 11
14, 18
12, 13
6, 21
7, 31
8, 16
4, 6
6, 9
21, 24
54, 24
41, 33
20, 16
58, 46
71, 74
19, 16
29, 42
443, 618
2109, 2391
1493, 1401
194, 141
19, 17
23, 19
89, 134
356, 357
213, 171
22, 22
7, 9
13, 7
54, 7
48, 4
13, 5
6, 3
9, 4
5, 4
5, 4
5, 5
3, 6
1, 5
6, 4
6, 5
9, 6
8, 3
3, 5
3, 8
2, 3
3, 4
4, 6
8, 3
5, 7
4, 16
4, 16
7, 5
4, 5
1, 4
1, 6
3, 2
2, 6
2, 2
4, 3
7, 6
4, 1
5, 2
2, 3
2, 3
1, 1
0, 0
3, 1
2, 2
0, 3
7, 1
1, 5
1, 1
2, 2
1, 0
1, 3
2, 6
3, 3
0, 4
0, 3
2, 1
2, 2
3, 1
2, 2
0, 1
1, 1
1, 5
2, 1
1, 1
0, 3
0, 0
3, 0
0, 1
0, 1
3, 0
1, 0
1, 1
1, 0
0, 0
0, 1
0, 0
0, 0
1, 0
0, 0
0, 2
0, 0
1, 0
1, 1
0, 0
2, 0
0, 0
0, 0
1, 0
0, 0
1, 0
1, 0
0, 1
1, 0
0, 0
2, 0
1, 0
1, 0
0, 0
1, 0
2, 2
1, 0
0, 0
1, 2
0, 0
0, 0
0, 0
0, 0
1, 0
0, 0
0, 0
0, 0
0, 1
0, 0
0, 0
0, 0
0, 0
0, 0
0, 0
0, 0
0, 0
0, 0
0, 0
0, 0
1, 0
0, 0
0, 0
0, 0
0, 0
0, 0
0, 0
0, 0
0, 0
0, 0
0, 0
0, 0
0, 0
0, 0
0, 0
0, 0
0, 0
0, 0
0, 0
0, 0
0, 0
0, 0
0, 0
0, 0
0, 0
0, 0
0, 0
0, 0
0, 0
0, 0
0, 0
0, 0
0, 0
0, 0
0, 0
0, 0
0, 0
0, 0
0, 0
0, 0
0, 0
0, 0
0, 0
0, 0
0, 0
0, 0
0, 0
0, 0
0, 0
0, 0
0, 0
0, 0
0, 0
0, 0
0, 0
0, 0
0, 0
0, 0
0, 0
0, 0
0, 0
0, 0
0, 0
0, 0
0, 0
0, 0
0, 0
0, 0
0, 0
0, 0
0, 0
0, 0
0, 0
0, 0
0, 0
0, 0
0, 0
0, 0
0, 0
0, 0
0, 0
0, 0
0, 0
0, 0
0, 0
0, 0
0, 0
0, 0
0, 0
0, 0
0, 0
0, 0
0, 0
0, 0
0, 0
0, 0
0, 0
0, 0
0, 0
0, 0
0, 0
0, 0
0, 0
0, 0
0, 0
0, 0
#ENDOFDATA     end of spectrum data

File: ps__0852shot_2287.msa
#FORMAT      : EMSA/MAS spectral data file
#VERSION     : TC202v2.0 PIXL
#TITLE       : N/A
#DATE        :       Date in the format DD-MMM-YYYY, for example 07-JUL-2010
#TIME        :             The time of day at which the spectrum was recorded, in 24-hour format
#OWNER       : PIXL Flight Model       (PIXL will use this to indicate which instrument took the data.)
#NPOINTS     : 4096     Number of data points in the spectrum (This can be zero for configuration only files)
#NCOLUMNS    : 2     Number of data columns in the spectrum (This can be zero for configuration only files)
#XUNITS      : eV
#YUNITS      : COUNTS
#DATATYPE    : YY
#XPERCHAN    : 7.862, 7.881   eV per channel (separate by commas if more than one detector)
#OFFSET      : 18.5, -22.4         eV of first channel  (separate by commas if more than one detector
#SIGNALTYPE  : XRF
#YP_TEMP     : 2.107
#LIVETIME    : 8.54941, 8.54171   seconds (separate by commas if more than one detector)
#REALTIME    : 10, 10.0   seconds (separate by commas if more than one detector)
#SPECTRUM    : start of spectrum data
0, 0
0, 0
0, 0
0, 0
0, 0
0, 0
0, 0
0, 0
1, 1
0, 2
4, 2
40, 29
51, 43
6, 6
4, 3
48, 65
215, 265
52, 65
6, 7
8, 12
118, 119
652, 633
245, 260
79, 75
148, 152
68, 94
44, 44
19, 22
7, 11
9, 5
25, 29
11, 9
5, 13
19, 20
16, 35
4, 7
3, 6
3, 8
6, 6
3, 7
10, 7
7, 5
13, 16
10, 11
1, 8
10, 29
6, 14
3, 15
12, 9
18, 24
57, 27
45, 18
19, 12
42, 38
63, 57
29, 21
26, 41
418, 568
1939, 2316
1459, 1343
173, 139
13, 13
10, 15
93, 119
301, 343
240, 156
29, 23
6, 11
22, 7
48, 6
54, 5
20, 3
5, 1
8, 7
4, 3
8, 9
2, 2
4, 5
5, 3
8, 2
5, 4
7, 7
11, 2
6, 2
2, 6
5, 8
3, 7
7, 0
5, 6
5, 12
3, 16
10, 9
10, 8
3, 5
0, 3
0, 2
4, 4
3, 5
0, 0
7, 8
12, 5
9, 1
1, 3
2, 5
0, 2
1, 2
3, 4
2, 1
1, 1
1, 1
1, 2
0, 0
2, 1
1, 4
4, 2
1, 3
5, 4
3, 3
5, 3
4, 0
2, 1
1, 3
1, 5
1, 1
4, 2
1, 0
0, 1
4, 3
1, 2
1, 0
0, 1
0, 0
1, 0
1, 0
0, 1
0, 1
0, 1
1, 0
1, 1
2, 0
0, 0
1, 1
0, 1
0, 1
0, 1
1, 1
1, 2
1, 1
0, 0
0, 0
1, 0
0, 0
0, 0
1, 0
0, 0
0, 0
1, 0
0, 1
1, 0
0, 0
1, 0
1, 0
0, 0
0, 0
0, 0
0, 1
0, 0
0, 0
0, 0
0, 0
0, 0
0, 0
0, 0
0, 0
1, 0
0, 0
0, 0
0, 0
0, 0
0, 1
0, 0
0, 0
0, 0
1, 0
0, 0
0, 0
0, 0
0, 0
0, 0
0, 0
0, 0
0, 0
0, 0
0, 1
0, 0
0, 0
0, 0
0, 0
0, 0
0, 0
1, 0
0, 0
0, 0
0, 0
0, 0
0, 0
0, 0
0, 0
0, 0
0, 0
0, 0
0, 0
0, 0
0, 0
0, 0
0, 0
0, 0
0, 0
0, 0
0, 0
0, 0
0, 0
0, 0
0, 0
0, 0
0, 0
0, 0
0, 0
0, 0
0, 0
0, 0
0, 0
0, 0
0, 0
0, 0
0, 0
0, 0
0, 0
0, 0
0, 0
0, 0
0, 0
0, 0
0, 0
0, 0
0, 0
0, 0
0, 0
0, 0
0, 0
0, 0
0, 0
0, 0
0, 0
0, 0
0, 0
0, 0
0, 0
0, 0
0, 0
0, 0
0, 0
0, 0
0, 0
0, 0
0, 0
0, 0
0, 0
0, 0
0, 0
0, 0
0, 0
0, 0
0, 0
0, 0
0, 0
0, 0
0, 0
0, 0
0, 0
0, 0
0, 0
0, 0
0, 0
0, 0
0, 0
0, 0
0, 0
0, 0
0, 0
0, 0
0, 0
0, 0
0, 0
#ENDOFDATA     end of spectrum data

File: ps__0852shot_2288.msa
#FORMAT      : EMSA/MAS spectral data file
#VERSION     : TC202v2.0 PIXL
#TITLE       : N/A
#DATE        :       Date in the format DD-MMM-YYYY, for example 07-JUL-2010
#TIME        :             The time of day at which the spectrum was recorded, in 24-hour format
#OWNER       : PIXL Flight Model       (PIXL will use this to indicate which instrument took the data.)
#NPOINTS     : 4096     Number of data points in the spectrum (This can be zero for configuration only files)
#NCOLUMNS    : 2     Number of data columns in the spectrum (This can be zero for configuration only files)
#XUNITS      : eV
#YUNITS      : COUNTS
#DATATYPE    : YY
#XPERCHAN    : 7.862, 7.881   eV per channel (separate by commas if more than one detector)
#OFFSET      : 18.5, -22.4         eV of first channel  (separate by commas if more than one detector
#SIGNALTYPE  : XRF
#YP_TEMP     : 2.46
#LIVETIME    : 8.57486, 8.56363   seconds (separate by commas if more than one detector)
#REALTIME    : 10, 10.0   seconds (separate by commas if more than one detector)
#SPECTRUM    : start of spectrum data
0, 0
0, 0
0, 0
0, 0
0, 0
0, 0
0, 0
0, 0
4, 2
2, 5
0, 1
27, 25
31, 34
5, 9
4, 4
58, 45
241, 246
55, 52
7, 9
3, 4
83, 98
471, 543
189, 207
39, 59
89, 121
80, 97
35, 41
30, 27
5, 13
7, 8
8, 12
4, 5
6, 4
22, 20
29, 31
5, 12
10, 5
10, 7
7, 6
1, 4
3, 12
11, 8
20, 15
23, 16
13, 10
6, 21
6, 18
11, 9
10, 9
21, 22
47, 39
35, 24
13, 12
32, 48
44, 55
24, 20
25, 36
460, 609
2123, 2453
1451, 1439
200, 160
20, 19
17, 16
89, 107
312, 361
221, 192
26, 27
12, 11
23, 16
42, 10
39, 0
12, 8
3, 3
8, 4
4, 2
8, 4
7, 2
3, 5
5, 4
5, 9
5, 3
7, 1
3, 4
4, 3
6, 10
5, 3
5, 8
3, 7
8, 3
2, 10
1, 17
5, 11
10, 8
2, 2
0, 4
5, 4
3, 0
3, 3
2, 5
3, 4
6, 3
6, 5
1, 2
2, 0
2, 1
2, 4
1, 2
0, 0
3, 1
1, 0
1, 4
2, 0
6, 1
3, 2
1, 1
5, 2
1, 6
6, 3
6, 1
2, 1
1, 4
3, 2
4, 2
0, 0
0, 2
1, 1
2, 4
2, 3
0, 0
0, 1
0, 0
1, 2
2, 0
0, 2
2, 0
0, 0
0, 0
1, 2
0, 0
3, 1
0, 1
0, 1
0, 0
1, 1
0, 0
1, 0
2, 1
1, 0
0, 1
1, 0
0, 0
0, 0
0, 0
0, 1
0, 0
1, 2
1, 0
0, 1
0, 0
0, 0
1, 1
1, 0
1, 0
1, 0
0, 0
0, 1
0, 1
0, 0
0, 1
0, 0
1, 0
0, 0
1, 1
1, 0
0, 0
0, 0
0, 1
0, 0
0, 0
1, 0
0, 0
0, 0
0, 0
0, 0
0, 0
0, 0
0, 0
0, 0
0, 1
0, 0
0, 0
0, 0
0, 0
0, 0
0, 0
0, 0
0, 0
0, 0
0, 0
0, 0
0, 0
0, 1
0, 0
0, 0
0, 0
0, 0
0, 0
0, 0
0, 0
0, 0
0, 0
0, 0
0, 0
0, 0
0, 0
0, 0
0, 0
0, 0
0, 0
0, 0
0, 0
0, 0
0, 0
0, 0
0, 0
0, 0
0, 0
0, 0
0, 0
0, 0
0, 0
0, 0
0, 0
0, 0
0, 0
0, 0
0, 0
0, 0
0, 0
0, 0
0, 0
0, 0
0, 0
0, 0
0, 0
0, 0
0, 0
0, 0
0, 0
0, 0
0, 0
0, 0
0, 0
0, 0
0, 0
0, 0
0, 0
0, 0
0, 0
0, 0
0, 0
0, 0
0, 0
0, 0
0, 0
0, 0
0, 0
0, 0
0, 0
0, 0
0, 0
0, 0
0, 0
0, 0
0, 0
0, 0
0, 0
0, 0
0, 0
0, 0
0, 0
0, 0
0, 0
0, 0
0, 0
0, 0
0, 0
0, 0
0, 0
0, 0
0, 0
0, 0
0, 0
0, 0
#ENDOFDATA     end of spectrum data

File: ps__0852shot_2289.msa
#FORMAT      : EMSA/MAS spectral data file
#VERSION     : TC202v2.0 PIXL
#TITLE       : N/A
#DATE        :       Date in the format DD-MMM-YYYY, for example 07-JUL-2010
#TIME        :             The time of day at which the spectrum was recorded, in 24-hour format
#OWNER       : PIXL Flight Model       (PIXL will use this to indicate which instrument took the data.)
#NPOINTS     : 4096     Number of data points in the spectrum (This can be zero for configuration only files)
#NCOLUMNS    : 2     Number of data columns in the spectrum (This can be zero for configuration only files)
#XUNITS      : eV
#YUNITS      : COUNTS
#DATATYPE    : YY
#XPERCHAN    : 7.862, 7.881   eV per channel (separate by commas if more than one detector)
#OFFSET      : 18.5, -22.4         eV of first channel  (separate by commas if more than one detector
#SIGNALTYPE  : XRF
#YP_TEMP     : 2.3
#LIVETIME    : 8.57936, 8.58415   seconds (separate by commas if more than one detector)
#REALTIME    : 10, 10.0   seconds (separate by commas if more than one detector)
#SPECTRUM    : start of spectrum data
0, 0
0, 0
0, 0
0, 0
0, 0
0, 0
0, 0
0, 0
1, 1
0, 3
1, 4
38, 41
52, 48
4, 5
8, 9
88, 91
328, 353
75, 91
5, 9
2, 3
55, 55
250, 287
101, 137
35, 38
84, 90
59, 79
40, 37
12, 17
4, 7
0, 3
3, 7
4, 8
2, 4
13, 4
13, 16
7, 4
4, 3
3, 6
4, 11
4, 6
7, 5
11, 12
11, 14
13, 12
7, 7
8, 16
6, 12
7, 8
9, 14
9, 23
30, 14
16, 8
9, 15
35, 34
70, 74
23, 32
25, 32
449, 627
2143, 2366
1510, 1406
202, 138
23, 17
23, 26
109, 143
346, 370
236, 219
28, 23
8, 9
20, 10
16, 9
25, 5
9, 5
4, 3
4, 10
5, 18
3, 9
7, 21
5, 6
6, 4
13, 6
7, 0
8, 5
4, 3
4, 3
0, 10
1, 10
3, 3
3, 4
4, 4
4, 4
5, 8
1, 2
4, 3
7, 3
1, 5
2, 3
4, 2
1, 4
1, 2
3, 5
4, 3
2, 1
4, 2
3, 2
3, 0
0, 1
3, 3
4, 1
2, 2
3, 1
3, 5
4, 3
1, 5
1, 3
1, 2
3, 2
4, 6
4, 2
5, 2
6, 3
4, 3
1, 2
2, 3
1, 2
1, 0
1, 1
0, 3
0, 4
0, 0
1, 0
1, 1
0, 1
1, 2
0, 0
1, 0
2, 2
1, 0
0, 1
1, 0
2, 0
0, 1
0, 2
0, 0
1, 0
1, 1
0, 0
0, 1
0, 0
0, 1
0, 2
0, 0
0, 1
0, 0
0, 3
1, 0
0, 1
2, 0
0, 0
1, 0
0, 1
0, 1
1, 0
0, 0
0, 1
0, 1
1, 2
0, 0
0, 0
0, 0
0, 1
0, 1
1, 0
1, 0
1, 0
0, 0
1, 0
0, 0
0, 0
0, 0
0, 1
0, 0
0, 1
1, 0
0, 0
0, 0
0, 1
0, 0
0, 0
0, 0
0, 0
1, 0
0, 0
0, 0
0, 0
0, 0
0, 0
0, 0
0, 0
0, 0
0, 0
0, 0
0, 0
0, 0
0, 0
0, 0
0, 0
0, 1
0, 0
0, 0
0, 0
0, 0
0, 0
0, 0
0, 0
0, 0
0, 0
0, 0
0, 0
0, 0
0, 0
0, 0
0, 0
0, 0
0, 0
0, 0
0, 0
0, 0
0, 0
0, 0
0, 0
0, 0
0, 0
0, 0
0, 0
0, 0
0, 0
0, 0
0, 0
0, 0
0, 0
0, 0
0, 0
0, 0
0, 0
0, 0
0, 0
0, 0
0, 0
0, 0
0, 0
0, 0
0, 0
0, 0
0, 0
0, 0
0, 0
0, 0
0, 0
0, 0
0, 0
0, 0
0, 0
0, 0
0, 0
0, 0
0, 0
0, 0
0, 0
0, 0
0, 0
0, 0
0, 0
0, 0
0, 0
0, 0
0, 0
0, 0
0, 0
0, 0
0, 0
0, 0
0, 0
0, 0
0, 0
0, 0
0, 0
0, 0
0, 0
0, 0
0, 0
0, 0
0, 0
0, 0
0, 0
#ENDOFDATA     end of spectrum data

File: ps__0852shot_2290.msa
#FORMAT      : EMSA/MAS spectral data file
#VERSION     : TC202v2.0 PIXL
#TITLE       : N/A
#DATE        :       Date in the format DD-MMM-YYYY, for example 07-JUL-2010
#TIME        :             The time of day at which the spectrum was recorded, in 24-hour format
#OWNER       : PIXL Flight Model       (PIXL will use this to indicate which instrument took the data.)
#NPOINTS     : 4096     Number of data points in the spectrum (This can be zero for configuration only files)
#NCOLUMNS    : 2     Number of data columns in the spectrum (This can be zero for configuration only files)
#XUNITS      : eV
#YUNITS      : COUNTS
#DATATYPE    : YY
#XPERCHAN    : 7.862, 7.881   eV per channel (separate by commas if more than one detector)
#OFFSET      : 18.5, -22.4         eV of first channel  (separate by commas if more than one detector
#SIGNALTYPE  : XRF
#YP_TEMP     : 2.46
#LIVETIME    : 8.58614, 8.58661   seconds (separate by commas if more than one detector)
#REALTIME    : 10, 10.0   seconds (separate by commas if more than one detector)
#SPECTRUM    : start of spectrum data
0, 0
0, 0
0, 0
0, 0
0, 0
0, 0
0, 0
0, 0
1, 2
2, 1
1, 2
46, 39
49, 41
11, 6
4, 10
111, 82
417, 407
95, 99
5, 4
5, 1
31, 30
168, 154
63, 61
21, 32
61, 55
48, 56
20, 27
18, 16
12, 4
1, 2
7, 3
4, 1
3, 1
16, 13
18, 26
2, 3
2, 4
5, 4
3, 4
3, 3
10, 9
12, 14
17, 12
17, 9
4, 7
8, 33
4, 6
3, 5
8, 6
10, 12
11, 17
4, 4
7, 10
34, 66
48, 91
30, 32
29, 30
510, 599
2325, 2186
1639, 1339
245, 140
27, 15
26, 16
106, 122
323, 370
254, 168
29, 17
9, 8
22, 10
19, 7
26, 5
11, 2
1, 7
4, 3
5, 3
8, 20
3, 10
1, 6
7, 2
12, 3
8, 2
1, 0
7, 5
3, 4
1, 2
4, 5
4, 1
2, 0
8, 2
4, 4
1, 4
6, 5
3, 0
4, 2
1, 0
4, 4
3, 4
3, 2
3, 3
7, 0
0, 2
2, 2
2, 2
2, 4
2, 4
3, 4
3, 6
1, 3
1, 1
4, 2
1, 2
2, 2
2, 2
2, 4
0, 2
1, 0
5, 3
3, 2
3, 3
2, 2
1, 1
3, 2
4, 4
1, 1
0, 0
0, 0
2, 0
0, 0
1, 3
2, 1
1, 0
0, 1
0, 1
1, 0
0, 0
0, 1
0, 0
1, 1
0, 2
1, 0
0, 0
0, 0
2, 0
1, 1
0, 1
0, 0
1, 0
0, 1
0, 1
1, 0
2, 1
0, 1
0, 1
1, 0
1, 2
0, 0
0, 0
0, 1
0, 0
0, 0
0, 0
1, 0
0, 0
1, 0
0, 0
0, 0
0, 0
0, 0
1, 0
0, 0
1, 2
0, 1
0, 0
1, 1
0, 0
0, 0
0, 0
0, 0
0, 0
0, 0
1, 0
0, 0
0, 0
0, 0
0, 0
0, 0
0, 0
1, 1
1, 0
0, 0
1, 0
0, 0
0, 0
0, 0
0, 0
0, 0
0, 0
0, 0
0, 0
0, 0
0, 0
0, 0
0, 0
0, 0
0, 0
0, 0
0, 0
0, 0
0, 0
0, 0
0, 0
0, 0
0, 0
0, 0
0, 0
0, 0
0, 0
1, 0
0, 0
0, 0
0, 0
0, 0
0, 0
0, 0
0, 0
0, 0
0, 0
0, 0
0, 0
0, 0
0, 0
0, 0
0, 0
0, 0
0, 0
0, 0
0, 0
0, 0
0, 0
0, 0
0, 0
0, 0
0, 0
0, 0
0, 0
0, 0
0, 0
0, 0
0, 0
0, 0
0, 0
0, 0
0, 0
0, 0
0, 0
0, 0
0, 0
0, 0
0, 0
0, 0
0, 0
0, 0
0, 0
0, 0
0, 0
0, 0
0, 0
0, 0
0, 0
0, 0
0, 0
0, 0
0, 0
0, 0
0, 0
0, 0
0, 0
0, 0
0, 0
0, 0
0, 0
0, 0
0, 0
0, 0
0, 0
0, 0
0, 0
0, 0
0, 0
0, 0
0, 0
0, 0
0, 0
0, 0
#ENDOFDATA     end of spectrum data