Folder: data-repository/host_upload/06-09-2024/ps_0852/dump3 (part 59)

File: ps__0852shot_2528.msa
#FORMAT      : EMSA/MAS spectral data file
#VERSION     : TC202v2.0 PIXL
#TITLE       : N/A
#DATE        :       Date in the format DD-MMM-YYYY, for example 07-JUL-2010
#TIME        :             The time of day at which the spectrum was recorded, in 24-hour format
#OWNER       : PIXL Flight Model       (PIXL will use this to indicate which instrument took the data.)
#NPOINTS     : 4096     Number of data points in the spectrum (This can be zero for configuration only files)
#NCOLUMNS    : 2     Number of data columns in the spectrum (This can be zero for configuration only files)
#XUNITS      : eV
#YUNITS      : COUNTS
#DATATYPE    : YY
#XPERCHAN    : 7.862, 7.881   eV per channel (separate by commas if more than one detector)
#OFFSET      : 18.5, -22.4         eV of first channel  (separate by commas if more than one detector
#SIGNALTYPE  : XRF
#YP_TEMP     : 2.396
#LIVETIME    : 8.54978, 8.55157   seconds (separate by commas if more than one detector)
#REALTIME    : 10, 10.0   seconds (separate by commas if more than one detector)
#SPECTRUM    : start of spectrum data
0, 0
0, 0
0, 0
0, 0
0, 0
0, 0
0, 0
0, 0
2, 0
0, 0
1, 2
36, 29
51, 47
7, 3
3, 5
102, 99
484, 425
119, 88
4, 4
3, 4
17, 8
94, 89
34, 24
15, 4
41, 29
38, 33
15, 19
12, 13
4, 6
2, 2
4, 4
6, 3
4, 5
66, 44
121, 61
16, 16
9, 18
25, 14
5, 6
3, 1
9, 4
14, 6
16, 12
9, 13
1, 8
12, 8
6, 3
12, 7
7, 18
18, 49
25, 30
9, 16
21, 15
31, 48
61, 48
21, 24
31, 57
460, 547
2210, 2062
1559, 1183
177, 117
11, 13
13, 23
96, 95
324, 299
257, 162
35, 18
6, 26
16, 40
5, 9
4, 5
2, 7
6, 5
14, 3
19, 4
13, 6
11, 5
3, 1
8, 7
6, 13
8, 2
3, 6
5, 1
4, 3
4, 7
7, 1
6, 2
8, 1
4, 3
0, 4
5, 7
3, 2
6, 5
6, 4
5, 1
5, 3
2, 0
3, 3
6, 5
7, 5
5, 2
2, 4
1, 2
3, 4
2, 5
1, 3
3, 0
4, 2
2, 2
3, 1
2, 1
2, 3
3, 1
0, 5
0, 1
3, 6
5, 3
3, 2
2, 1
4, 2
5, 2
1, 2
2, 2
2, 1
2, 1
3, 2
1, 2
0, 0
0, 1
1, 1
2, 2
2, 0
0, 2
3, 0
0, 0
0, 1
1, 0
1, 0
1, 0
0, 1
0, 0
1, 1
0, 0
3, 1
0, 2
1, 1
1, 0
0, 0
1, 1
0, 0
1, 0
1, 1
0, 1
0, 0
0, 0
1, 0
0, 0
0, 0
0, 0
0, 0
0, 0
1, 0
0, 0
0, 0
0, 1
1, 1
0, 0
0, 1
1, 2
0, 0
0, 1
0, 0
0, 0
0, 1
2, 0
0, 0
0, 0
0, 0
0, 1
0, 0
0, 0
0, 0
0, 0
0, 0
0, 0
0, 0
0, 0
0, 0
0, 0
0, 0
1, 0
0, 0
0, 0
1, 0
0, 0
0, 0
0, 0
0, 0
0, 0
0, 0
0, 0
0, 0
0, 0
0, 0
0, 0
0, 0
0, 0
0, 0
0, 0
0, 0
0, 0
0, 0
0, 0
0, 0
0, 0
0, 0
0, 0
0, 0
0, 0
0, 0
0, 0
1, 0
0, 0
0, 0
0, 0
0, 0
0, 0
0, 0
0, 0
0, 0
0, 0
0, 0
0, 0
0, 0
0, 0
0, 0
0, 0
0, 0
0, 0
0, 0
0, 0
0, 0
0, 0
0, 0
0, 0
0, 0
0, 0
0, 0
0, 0
0, 0
0, 0
0, 0
0, 0
0, 0
0, 0
0, 0
0, 0
0, 0
0, 0
0, 0
0, 0
0, 0
0, 0
0, 0
0, 0
0, 0
0, 0
0, 0
0, 0
0, 0
0, 0
0, 0
0, 0
0, 0
0, 0
0, 0
0, 0
0, 0
0, 0
0, 0
0, 0
0, 0
0, 0
0, 0
0, 0
0, 0
0, 0
0, 0
0, 0
0, 0
0, 0
0, 0
0, 0
0, 0
#ENDOFDATA     end of spectrum data

File: ps__0852shot_2529.msa
#FORMAT      : EMSA/MAS spectral data file
#VERSION     : TC202v2.0 PIXL
#TITLE       : N/A
#DATE        :       Date in the format DD-MMM-YYYY, for example 07-JUL-2010
#TIME        :             The time of day at which the spectrum was recorded, in 24-hour format
#OWNER       : PIXL Flight Model       (PIXL will use this to indicate which instrument took the data.)
#NPOINTS     : 4096     Number of data points in the spectrum (This can be zero for configuration only files)
#NCOLUMNS    : 2     Number of data columns in the spectrum (This can be zero for configuration only files)
#XUNITS      : eV
#YUNITS      : COUNTS
#DATATYPE    : YY
#XPERCHAN    : 7.862, 7.881   eV per channel (separate by commas if more than one detector)
#OFFSET      : 18.5, -22.4         eV of first channel  (separate by commas if more than one detector
#SIGNALTYPE  : XRF
#YP_TEMP     : 2.139
#LIVETIME    : 8.54583, 8.56071   seconds (separate by commas if more than one detector)
#REALTIME    : 10, 10.0   seconds (separate by commas if more than one detector)
#SPECTRUM    : start of spectrum data
0, 0
0, 0
0, 0
0, 0
0, 0
0, 0
0, 0
0, 0
1, 1
2, 3
3, 2
42, 47
57, 40
8, 9
11, 8
70, 93
449, 431
109, 96
4, 4
3, 1
7, 6
31, 26
12, 9
10, 14
59, 55
54, 45
22, 22
11, 11
5, 7
2, 2
4, 7
1, 3
4, 5
21, 21
35, 19
13, 7
11, 4
7, 4
6, 4
1, 1
3, 10
15, 11
14, 18
9, 7
8, 15
10, 11
9, 10
5, 7
9, 5
10, 11
13, 10
19, 7
22, 17
54, 51
54, 50
23, 19
34, 44
429, 624
2045, 2309
1493, 1328
166, 124
15, 30
18, 31
103, 131
323, 365
201, 194
25, 20
7, 26
15, 55
10, 31
3, 2
2, 4
7, 2
8, 1
19, 8
13, 7
8, 5
5, 3
8, 12
5, 10
6, 5
6, 4
5, 3
6, 2
6, 4
6, 4
4, 0
5, 2
8, 3
6, 6
2, 5
2, 8
10, 3
7, 1
8, 2
4, 5
4, 3
2, 4
1, 3
2, 4
1, 2
1, 0
2, 3
3, 2
1, 3
2, 2
0, 1
3, 2
2, 0
3, 2
3, 3
2, 2
1, 0
2, 2
0, 1
1, 2
8, 5
3, 2
4, 2
2, 1
2, 2
1, 3
1, 2
0, 0
3, 3
1, 0
1, 2
3, 2
1, 1
0, 2
0, 1
1, 1
2, 1
0, 1
1, 0
0, 0
0, 0
0, 0
1, 0
0, 1
1, 0
0, 0
1, 0
0, 0
0, 1
0, 2
1, 2
0, 0
0, 0
1, 0
0, 0
0, 0
0, 0
1, 1
0, 0
0, 0
0, 1
0, 0
0, 0
0, 0
0, 0
0, 0
0, 0
0, 1
0, 0
2, 0
1, 0
0, 0
0, 0
0, 0
0, 1
0, 0
1, 0
0, 0
0, 0
0, 0
0, 0
0, 0
0, 0
0, 0
0, 0
0, 0
0, 0
0, 0
0, 1
1, 0
0, 0
0, 0
0, 0
0, 0
0, 0
0, 0
0, 0
0, 0
1, 0
0, 0
0, 0
0, 0
0, 0
0, 0
0, 0
0, 0
0, 0
0, 0
0, 0
0, 0
0, 0
0, 0
0, 0
0, 0
0, 0
0, 0
0, 0
0, 0
0, 0
0, 0
0, 0
0, 0
0, 0
0, 0
0, 0
0, 0
0, 0
0, 0
0, 0
0, 0
0, 0
0, 0
0, 0
0, 0
0, 0
0, 0
0, 0
0, 0
0, 0
0, 0
0, 0
0, 0
0, 0
0, 0
0, 0
0, 0
0, 0
0, 0
0, 0
0, 0
0, 0
0, 0
0, 0
0, 0
0, 0
0, 0
0, 0
0, 0
0, 0
0, 0
0, 0
0, 0
0, 0
0, 0
0, 0
0, 0
0, 0
0, 0
0, 0
0, 0
0, 0
0, 0
0, 0
0, 0
0, 0
0, 0
0, 0
0, 0
0, 0
0, 0
0, 0
0, 0
0, 0
0, 0
0, 0
0, 0
0, 0
0, 0
0, 0
0, 0
0, 0
0, 0
0, 0
0, 0
0, 0
0, 0
0, 0
0, 0
#ENDOFDATA     end of spectrum data

File: ps__0852shot_2530.msa
#FORMAT      : EMSA/MAS spectral data file
#VERSION     : TC202v2.0 PIXL
#TITLE       : N/A
#DATE        :       Date in the format DD-MMM-YYYY, for example 07-JUL-2010
#TIME        :             The time of day at which the spectrum was recorded, in 24-hour format
#OWNER       : PIXL Flight Model       (PIXL will use this to indicate which instrument took the data.)
#NPOINTS     : 4096     Number of data points in the spectrum (This can be zero for configuration only files)
#NCOLUMNS    : 2     Number of data columns in the spectrum (This can be zero for configuration only files)
#XUNITS      : eV
#YUNITS      : COUNTS
#DATATYPE    : YY
#XPERCHAN    : 7.862, 7.881   eV per channel (separate by commas if more than one detector)
#OFFSET      : 18.5, -22.4         eV of first channel  (separate by commas if more than one detector
#SIGNALTYPE  : XRF
#YP_TEMP     : 2.524
#LIVETIME    : 8.548, 8.51804   seconds (separate by commas if more than one detector)
#REALTIME    : 10, 10.0   seconds (separate by commas if more than one detector)
#SPECTRUM    : start of spectrum data
0, 0
0, 0
0, 0
0, 0
0, 0
0, 0
0, 0
0, 0
0, 0
1, 3
3, 2
41, 39
73, 67
4, 9
8, 3
108, 85
478, 421
126, 97
8, 5
2, 1
5, 5
25, 15
7, 5
21, 13
105, 54
95, 40
30, 19
11, 9
2, 1
4, 4
2, 2
4, 3
3, 4
10, 6
18, 8
3, 21
6, 5
6, 8
10, 8
5, 3
6, 8
10, 7
16, 26
12, 17
8, 11
7, 16
2, 11
8, 5
10, 6
8, 12
20, 8
16, 4
19, 11
40, 46
66, 53
16, 22
27, 38
481, 502
2399, 2086
1762, 1242
200, 99
11, 13
25, 19
132, 121
365, 356
270, 164
40, 12
21, 6
37, 19
20, 7
3, 2
5, 3
14, 4
9, 2
5, 9
10, 4
5, 4
4, 1
4, 5
6, 7
2, 2
3, 1
3, 1
3, 8
2, 8
3, 5
3, 3
6, 1
8, 2
1, 2
5, 1
2, 1
7, 7
4, 4
3, 5
6, 3
0, 5
4, 4
5, 1
10, 2
4, 1
5, 1
3, 2
6, 6
7, 0
2, 4
1, 6
1, 1
2, 2
3, 2
5, 4
1, 3
1, 1
6, 0
3, 2
4, 2
2, 3
6, 5
3, 1
1, 2
1, 3
2, 0
4, 2
5, 1
1, 0
1, 2
0, 0
2, 0
3, 4
2, 1
2, 2
2, 0
0, 0
0, 1
0, 0
0, 1
1, 2
0, 1
0, 0
0, 0
3, 0
1, 0
0, 1
1, 0
0, 1
0, 0
0, 0
1, 1
0, 1
2, 0
0, 1
0, 0
1, 1
0, 0
0, 1
0, 0
0, 0
2, 1
0, 0
0, 0
0, 1
0, 0
1, 0
0, 0
0, 0
0, 0
0, 1
0, 0
0, 1
0, 0
0, 0
0, 0
1, 1
0, 0
0, 0
0, 0
0, 0
0, 0
0, 0
0, 0
0, 0
0, 0
0, 0
0, 0
0, 1
0, 0
2, 0
0, 0
0, 0
0, 0
0, 0
0, 0
0, 0
0, 0
1, 0
0, 0
0, 0
0, 0
0, 0
0, 0
0, 0
0, 0
0, 0
0, 0
0, 0
0, 0
0, 0
0, 0
0, 0
0, 0
0, 0
0, 0
0, 0
0, 0
0, 0
0, 0
0, 0
0, 0
0, 0
0, 0
0, 1
0, 0
0, 0
0, 0
0, 0
0, 0
0, 0
0, 0
0, 0
0, 0
0, 0
0, 0
0, 0
0, 0
0, 0
0, 0
0, 0
0, 0
0, 0
0, 0
0, 0
0, 0
0, 0
0, 0
0, 0
0, 0
0, 0
0, 0
0, 0
0, 0
0, 0
0, 0
0, 0
0, 0
0, 0
0, 0
0, 0
0, 0
0, 0
0, 0
0, 0
0, 0
0, 0
0, 0
0, 0
0, 0
0, 0
0, 0
0, 0
0, 0
0, 0
0, 0
0, 0
0, 0
0, 0
0, 0
0, 0
0, 0
0, 0
0, 0
0, 0
0, 0
0, 0
0, 0
0, 0
0, 0
0, 0
0, 0
0, 0
0, 0
0, 0
0, 0
0, 0
0, 0
#ENDOFDATA     end of spectrum data

File: ps__0852shot_2531.msa
#FORMAT      : EMSA/MAS spectral data file
#VERSION     : TC202v2.0 PIXL
#TITLE       : N/A
#DATE        :       Date in the format DD-MMM-YYYY, for example 07-JUL-2010
#TIME        :             The time of day at which the spectrum was recorded, in 24-hour format
#OWNER       : PIXL Flight Model       (PIXL will use this to indicate which instrument took the data.)
#NPOINTS     : 4096     Number of data points in the spectrum (This can be zero for configuration only files)
#NCOLUMNS    : 2     Number of data columns in the spectrum (This can be zero for configuration only files)
#XUNITS      : eV
#YUNITS      : COUNTS
#DATATYPE    : YY
#XPERCHAN    : 7.862, 7.881   eV per channel (separate by commas if more than one detector)
#OFFSET      : 18.5, -22.4         eV of first channel  (separate by commas if more than one detector
#SIGNALTYPE  : XRF
#YP_TEMP     : 2.171
#LIVETIME    : 8.53328, 8.33858   seconds (separate by commas if more than one detector)
#REALTIME    : 10, 10.0   seconds (separate by commas if more than one detector)
#SPECTRUM    : start of spectrum data
0, 0
0, 0
0, 0
0, 0
0, 0
0, 0
0, 0
1, 0
0, 2
1, 1
1, 2
49, 40
66, 71
12, 7
5, 4
77, 98
396, 441
83, 83
2, 5
2, 0
13, 8
57, 66
29, 13
16, 16
34, 54
38, 47
27, 18
15, 12
4, 5
2, 0
1, 4
1, 1
6, 2
6, 9
9, 11
7, 20
8, 13
13, 10
25, 8
5, 4
3, 1
11, 8
22, 25
24, 14
10, 5
9, 15
9, 10
4, 9
5, 7
11, 12
10, 12
7, 8
3, 11
44, 47
50, 71
23, 21
28, 41
422, 664
2073, 2593
1489, 1428
155, 170
13, 68
26, 72
89, 147
319, 374
233, 210
30, 14
16, 6
18, 12
6, 9
9, 5
3, 7
5, 2
6, 4
4, 9
6, 6
7, 3
2, 8
5, 6
2, 4
2, 1
2, 3
5, 8
2, 11
6, 7
17, 9
13, 5
1, 2
3, 8
3, 17
3, 22
2, 14
6, 6
3, 2
7, 1
4, 2
5, 5
4, 7
2, 4
2, 1
1, 3
2, 2
3, 5
3, 2
4, 1
3, 2
2, 4
4, 3
4, 2
2, 2
0, 0
1, 1
2, 4
1, 2
1, 3
2, 4
7, 3
1, 2
1, 2
4, 2
1, 2
0, 4
0, 2
2, 2
0, 0
1, 0
2, 1
0, 0
2, 2
2, 2
1, 1
2, 2
0, 2
1, 1
2, 1
0, 1
0, 1
0, 0
1, 1
0, 2
1, 2
2, 0
0, 0
0, 0
1, 2
0, 1
0, 0
0, 0
2, 1
0, 1
0, 0
1, 1
0, 0
0, 0
0, 1
0, 0
0, 0
1, 0
0, 0
0, 0
0, 0
0, 0
1, 1
0, 0
1, 0
0, 0
0, 0
0, 1
1, 0
0, 0
0, 1
1, 1
0, 1
0, 0
0, 0
0, 0
0, 1
1, 0
0, 1
0, 0
0, 0
0, 0
0, 0
0, 0
1, 0
0, 0
0, 0
0, 0
0, 0
0, 0
0, 0
0, 0
0, 0
0, 0
0, 0
0, 0
0, 0
0, 0
0, 0
0, 0
0, 0
0, 0
0, 0
0, 0
0, 0
0, 0
0, 0
0, 0
0, 0
0, 0
0, 0
0, 0
0, 0
0, 0
0, 0
0, 0
0, 0
0, 0
0, 0
0, 0
0, 0
0, 0
0, 0
0, 0
0, 0
0, 0
0, 0
0, 0
0, 0
0, 0
0, 0
0, 0
0, 0
0, 0
0, 0
0, 0
0, 0
0, 0
0, 0
0, 0
0, 0
0, 0
0, 0
0, 0
0, 0
0, 0
0, 0
0, 0
0, 0
0, 0
0, 0
0, 0
0, 0
0, 0
0, 0
0, 0
0, 0
0, 0
0, 0
0, 0
0, 0
0, 0
0, 0
0, 0
0, 0
0, 0
0, 0
0, 0
0, 0
0, 0
0, 0
0, 0
0, 0
0, 0
0, 0
0, 0
0, 0
0, 0
0, 0
0, 0
0, 0
0, 0
0, 0
0, 0
0, 0
0, 0
0, 0
0, 0
0, 0
0, 0
0, 0
0, 0
0, 0
0, 0
#ENDOFDATA     end of spectrum data

File: ps__0852shot_2532.msa
#FORMAT      : EMSA/MAS spectral data file
#VERSION     : TC202v2.0 PIXL
#TITLE       : N/A
#DATE        :       Date in the format DD-MMM-YYYY, for example 07-JUL-2010
#TIME        :             The time of day at which the spectrum was recorded, in 24-hour format
#OWNER       : PIXL Flight Model       (PIXL will use this to indicate which instrument took the data.)
#NPOINTS     : 4096     Number of data points in the spectrum (This can be zero for configuration only files)
#NCOLUMNS    : 2     Number of data columns in the spectrum (This can be zero for configuration only files)
#XUNITS      : eV
#YUNITS      : COUNTS
#DATATYPE    : YY
#XPERCHAN    : 7.862, 7.881   eV per channel (separate by commas if more than one detector)
#OFFSET      : 18.5, -22.4         eV of first channel  (separate by commas if more than one detector
#SIGNALTYPE  : XRF
#YP_TEMP     : 2.171
#LIVETIME    : 8.54546, 8.51402   seconds (separate by commas if more than one detector)
#REALTIME    : 10, 10.0   seconds (separate by commas if more than one detector)
#SPECTRUM    : start of spectrum data
0, 0
0, 0
0, 0
0, 0
0, 0
0, 0
0, 0
0, 0
0, 0
1, 1
2, 1
43, 42
51, 63
3, 6
1, 6
109, 110
439, 463
109, 92
3, 3
3, 1
10, 18
64, 69
32, 21
13, 10
46, 30
43, 48
16, 29
13, 15
5, 8
2, 1
1, 3
0, 0
2, 1
5, 4
13, 7
4, 24
2, 10
23, 8
33, 5
12, 6
11, 4
6, 6
13, 19
19, 18
5, 4
7, 5
6, 9
9, 3
4, 7
5, 15
6, 5
6, 10
8, 10
38, 46
56, 69
35, 22
35, 38
467, 563
2172, 2382
1636, 1395
173, 138
13, 49
25, 44
97, 128
352, 382
250, 220
29, 23
4, 10
12, 11
11, 9
5, 7
6, 3
2, 3
7, 2
16, 4
28, 3
22, 6
2, 6
6, 8
5, 7
3, 9
4, 5
1, 4
3, 2
6, 3
6, 3
2, 2
4, 0
4, 4
6, 8
1, 12
1, 3
0, 3
3, 6
1, 1
3, 0
3, 3
3, 3
1, 1
4, 4
5, 2
2, 0
2, 1
2, 1
1, 2
1, 3
4, 9
0, 3
3, 4
3, 3
4, 1
2, 2
6, 2
5, 2
1, 3
3, 6
5, 5
2, 3
2, 2
3, 1
2, 1
0, 0
0, 2
1, 1
1, 0
1, 2
0, 0
5, 1
1, 3
2, 0
1, 3
2, 1
0, 3
1, 1
1, 0
1, 0
0, 1
0, 2
0, 0
0, 1
0, 0
2, 2
0, 0
2, 0
0, 1
0, 1
1, 0
0, 0
0, 0
0, 0
0, 1
0, 0
0, 0
0, 0
1, 0
0, 1
0, 0
0, 0
0, 0
1, 0
0, 0
1, 1
0, 0
0, 0
0, 0
0, 0
0, 0
0, 0
0, 0
1, 0
0, 0
0, 0
0, 1
0, 0
0, 0
0, 1
0, 0
0, 1
0, 1
0, 0
0, 1
0, 0
0, 1
0, 1
0, 0
0, 0
0, 1
0, 0
0, 0
0, 0
0, 0
1, 0
0, 0
0, 0
0, 0
0, 0
0, 0
0, 0
0, 0
0, 0
0, 0
0, 0
0, 0
0, 0
0, 0
0, 0
0, 0
0, 0
0, 0
0, 0
0, 0
0, 0
0, 0
0, 0
0, 0
0, 0
0, 0
0, 0
0, 0
0, 0
0, 0
0, 0
0, 0
0, 0
0, 0
0, 0
0, 0
0, 0
0, 0
0, 0
0, 0
0, 0
0, 0
0, 0
0, 0
0, 0
0, 0
0, 0
0, 0
0, 0
0, 0
0, 0
0, 0
0, 0
0, 0
0, 0
0, 0
0, 0
0, 0
0, 0
0, 0
0, 0
0, 0
0, 0
0, 0
0, 0
0, 0
0, 0
0, 0
0, 0
0, 0
0, 0
0, 0
0, 0
0, 0
0, 0
0, 0
0, 0
0, 0
0, 0
0, 0
0, 0
0, 0
0, 0
0, 0
0, 0
0, 0
0, 0
0, 0
0, 0
0, 0
0, 0
0, 0
0, 0
0, 0
0, 0
0, 0
0, 0
0, 0
0, 0
0, 0
0, 0
0, 0
0, 0
#ENDOFDATA     end of spectrum data

File: ps__0852shot_2533.msa
#FORMAT      : EMSA/MAS spectral data file
#VERSION     : TC202v2.0 PIXL
#TITLE       : N/A
#DATE        :       Date in the format DD-MMM-YYYY, for example 07-JUL-2010
#TIME        :             The time of day at which the spectrum was recorded, in 24-hour format
#OWNER       : PIXL Flight Model       (PIXL will use this to indicate which instrument took the data.)
#NPOINTS     : 4096     Number of data points in the spectrum (This can be zero for configuration only files)
#NCOLUMNS    : 2     Number of data columns in the spectrum (This can be zero for configuration only files)
#XUNITS      : eV
#YUNITS      : COUNTS
#DATATYPE    : YY
#XPERCHAN    : 7.862, 7.881   eV per channel (separate by commas if more than one detector)
#OFFSET      : 18.5, -22.4         eV of first channel  (separate by commas if more than one detector
#SIGNALTYPE  : XRF
#YP_TEMP     : 2.203
#LIVETIME    : 8.55839, 8.55984   seconds (separate by commas if more than one detector)
#REALTIME    : 10, 10.0   seconds (separate by commas if more than one detector)
#SPECTRUM    : start of spectrum data
0, 0
0, 0
0, 0
0, 0
0, 0
0, 0
0, 0
0, 1
0, 3
1, 1
1, 3
33, 47
79, 50
7, 3
1, 6
86, 107
478, 446
85, 85
6, 3
0, 0
3, 6
14, 22
8, 8
10, 10
30, 43
53, 29
21, 20
13, 11
2, 1
3, 5
2, 1
0, 4
2, 1
7, 4
12, 9
7, 3
2, 9
7, 12
12, 6
2, 4
6, 5
4, 9
17, 19
8, 11
11, 9
9, 4
3, 2
10, 5
5, 8
18, 11
12, 11
8, 9
11, 10
42, 54
60, 52
21, 38
38, 80
477, 607
2271, 2220
1649, 1393
182, 110
19, 16
21, 19
115, 126
354, 324
214, 181
40, 29
16, 5
12, 13
8, 9
3, 4
5, 2
11, 2
4, 4
6, 3
19, 4
5, 5
3, 5
5, 5
4, 5
5, 3
5, 2
2, 1
3, 2
6, 4
3, 2
3, 3
6, 4
13, 5
3, 4
1, 6
2, 2
4, 3
0, 4
1, 5
4, 1
2, 2
5, 0
2, 2
1, 2
5, 2
7, 3
3, 5
4, 3
0, 2
3, 5
2, 2
3, 1
2, 1
3, 0
4, 1
2, 0
4, 2
3, 1
2, 0
4, 6
5, 4
1, 3
7, 4
2, 1
1, 1
1, 4
1, 1
1, 4
0, 2
1, 0
0, 1
5, 0
0, 2
0, 1
1, 1
1, 0
1, 1
2, 1
0, 0
1, 0
1, 0
1, 1
0, 1
3, 0
1, 1
0, 0
0, 0
1, 0
0, 1
0, 1
1, 1
0, 0
0, 0
0, 0
0, 0
0, 0
0, 0
0, 0
0, 0
0, 0
1, 0
0, 0
0, 1
1, 0
0, 1
0, 0
2, 0
0, 1
0, 0
0, 1
0, 0
1, 0
0, 0
0, 1
0, 1
0, 0
0, 0
0, 1
0, 0
0, 0
1, 0
0, 1
0, 1
0, 0
0, 0
0, 0
0, 0
0, 0
0, 0
1, 0
1, 0
0, 0
0, 0
0, 0
0, 0
0, 0
0, 0
0, 0
0, 0
0, 0
0, 0
0, 0
0, 0
0, 0
0, 0
0, 0
0, 0
0, 0
0, 0
0, 0
0, 0
0, 0
0, 0
0, 0
0, 0
0, 0
0, 1
0, 0
0, 0
0, 0
0, 0
0, 0
0, 0
0, 0
0, 0
0, 0
0, 0
0, 0
0, 0
0, 0
0, 0
0, 0
0, 0
0, 0
0, 0
0, 0
0, 0
0, 0
0, 0
0, 0
0, 0
0, 0
0, 0
0, 0
0, 0
0, 0
0, 0
0, 0
0, 0
0, 0
0, 0
0, 0
0, 0
0, 0
0, 0
0, 0
0, 0
0, 0
0, 0
0, 0
0, 0
0, 0
0, 0
0, 0
0, 0
0, 0
0, 0
0, 0
0, 0
0, 0
0, 0
0, 0
0, 0
0, 0
0, 0
0, 0
0, 0
0, 0
0, 0
0, 0
0, 0
0, 0
0, 0
0, 0
0, 0
0, 0
0, 0
0, 0
0, 0
0, 0
0, 0
0, 0
0, 0
0, 0
0, 0
0, 0
0, 0
0, 0
#ENDOFDATA     end of spectrum data

File: ps__0852shot_2534.msa
#FORMAT      : EMSA/MAS spectral data file
#VERSION     : TC202v2.0 PIXL
#TITLE       : N/A
#DATE        :       Date in the format DD-MMM-YYYY, for example 07-JUL-2010
#TIME        :             The time of day at which the spectrum was recorded, in 24-hour format
#OWNER       : PIXL Flight Model       (PIXL will use this to indicate which instrument took the data.)
#NPOINTS     : 4096     Number of data points in the spectrum (This can be zero for configuration only files)
#NCOLUMNS    : 2     Number of data columns in the spectrum (This can be zero for configuration only files)
#XUNITS      : eV
#YUNITS      : COUNTS
#DATATYPE    : YY
#XPERCHAN    : 7.862, 7.881   eV per channel (separate by commas if more than one detector)
#OFFSET      : 18.5, -22.4         eV of first channel  (separate by commas if more than one detector
#SIGNALTYPE  : XRF
#YP_TEMP     : 2.332
#LIVETIME    : 8.56205, 8.55898   seconds (separate by commas if more than one detector)
#REALTIME    : 10, 10.0   seconds (separate by commas if more than one detector)
#SPECTRUM    : start of spectrum data
0, 0
0, 0
0, 0
0, 0
0, 0
0, 0
0, 0
1, 0
0, 0
2, 1
3, 2
33, 48
54, 60
3, 4
5, 3
92, 101
360, 428
93, 88
6, 4
3, 3
9, 13
101, 109
43, 40
15, 18
48, 52
41, 62
30, 27
18, 14
2, 6
1, 3
2, 3
1, 2
3, 2
11, 15
12, 14
9, 10
2, 5
9, 7
8, 4
2, 5
3, 5
8, 7
11, 11
17, 9
15, 11
9, 6
14, 5
6, 2
8, 6
12, 21
11, 23
5, 22
8, 12
30, 36
55, 55
26, 84
37, 195
483, 717
2133, 2444
1520, 1365
189, 156
17, 13
18, 14
106, 123
321, 378
207, 211
49, 34
14, 10
18, 15
7, 12
5, 12
4, 6
5, 4
7, 11
8, 5
4, 10
5, 7
1, 2
3, 1
3, 7
8, 2
2, 1
3, 3
4, 6
4, 5
7, 5
4, 1
1, 3
5, 2
6, 4
1, 3
7, 1
1, 5
4, 3
8, 3
2, 3
1, 2
2, 3
2, 2
2, 2
4, 4
2, 6
5, 2
1, 1
4, 1
1, 1
4, 3
2, 2
3, 0
2, 3
3, 1
1, 2
0, 4
1, 0
3, 2
1, 7
1, 10
4, 4
4, 3
1, 0
2, 1
2, 2
1, 0
4, 2
1, 1
1, 2
1, 3
1, 1
2, 1
0, 1
1, 0
1, 1
1, 3
2, 0
0, 1
0, 0
0, 2
0, 1
0, 1
1, 0
0, 1
0, 0
0, 3
0, 1
0, 2
0, 0
2, 0
0, 0
0, 0
0, 1
0, 0
0, 0
1, 0
0, 0
0, 0
0, 0
1, 0
0, 0
0, 1
1, 0
0, 0
0, 1
1, 0
1, 0
0, 0
0, 0
0, 0
1, 1
0, 0
0, 0
0, 0
1, 0
0, 1
0, 1
0, 0
0, 0
0, 0
0, 1
1, 0
1, 0
0, 0
1, 0
2, 1
0, 0
0, 0
0, 0
0, 0
0, 0
0, 0
0, 0
0, 0
0, 0
0, 1
0, 1
0, 0
0, 0
0, 0
0, 0
0, 0
0, 0
0, 0
0, 0
0, 0
0, 0
0, 0
0, 1
0, 0
0, 0
0, 0
0, 0
1, 0
0, 1
0, 0
0, 0
0, 0
0, 0
0, 0
0, 0
0, 0
0, 0
0, 0
0, 0
0, 0
0, 0
0, 0
0, 0
0, 0
0, 0
0, 0
0, 0
0, 0
0, 0
0, 0
0, 0
0, 0
0, 0
0, 0
0, 0
0, 0
0, 0
0, 0
0, 0
0, 0
0, 0
0, 0
0, 0
0, 0
0, 0
0, 0
0, 0
0, 0
0, 0
0, 0
0, 0
0, 0
0, 0
0, 0
0, 0
0, 0
0, 0
0, 0
0, 0
0, 0
0, 0
0, 0
0, 0
0, 0
0, 0
0, 0
0, 0
0, 0
0, 0
0, 0
0, 0
0, 0
0, 0
0, 0
0, 0
0, 0
0, 0
0, 0
0, 0
0, 0
0, 0
0, 0
0, 0
0, 0
0, 0
0, 0
0, 0
0, 0
0, 0
0, 0
0, 0
#ENDOFDATA     end of spectrum data

File: ps__0852shot_2535.msa
#FORMAT      : EMSA/MAS spectral data file
#VERSION     : TC202v2.0 PIXL
#TITLE       : N/A
#DATE        :       Date in the format DD-MMM-YYYY, for example 07-JUL-2010
#TIME        :             The time of day at which the spectrum was recorded, in 24-hour format
#OWNER       : PIXL Flight Model       (PIXL will use this to indicate which instrument took the data.)
#NPOINTS     : 4096     Number of data points in the spectrum (This can be zero for configuration only files)
#NCOLUMNS    : 2     Number of data columns in the spectrum (This can be zero for configuration only files)
#XUNITS      : eV
#YUNITS      : COUNTS
#DATATYPE    : YY
#XPERCHAN    : 7.862, 7.881   eV per channel (separate by commas if more than one detector)
#OFFSET      : 18.5, -22.4         eV of first channel  (separate by commas if more than one detector
#SIGNALTYPE  : XRF
#YP_TEMP     : 2.3
#LIVETIME    : 8.54871, 8.55627   seconds (separate by commas if more than one detector)
#REALTIME    : 10, 10.0   seconds (separate by commas if more than one detector)
#SPECTRUM    : start of spectrum data
0, 0
0, 0
0, 0
0, 0
0, 0
0, 0
0, 0
0, 0
0, 1
0, 2
2, 1
43, 41
58, 56
11, 3
5, 3
104, 82
414, 291
114, 71
11, 4
3, 5
22, 33
161, 161
68, 46
25, 14
54, 56
58, 41
24, 34
18, 16
5, 3
1, 4
3, 3
4, 2
3, 2
20, 11
33, 22
3, 9
6, 16
8, 13
2, 10
3, 9
2, 6
11, 9
13, 8
9, 20
9, 25
9, 11
8, 11
6, 8
9, 7
22, 22
26, 45
9, 35
17, 14
20, 35
65, 52
18, 17
42, 55
531, 538
2243, 2002
1724, 1223
227, 103
32, 13
21, 19
102, 111
369, 291
253, 171
35, 24
6, 9
9, 11
10, 12
7, 9
5, 12
6, 2
10, 10
6, 6
5, 6
1, 3
4, 5
2, 9
4, 2
4, 2
4, 1
6, 2
8, 2
11, 2
16, 3
13, 6
6, 9
4, 2
10, 4
6, 5
4, 2
5, 2
3, 1
4, 1
4, 3
1, 4
4, 2
4, 4
1, 5
4, 4
2, 5
0, 2
5, 1
4, 2
1, 2
3, 2
1, 3
1, 2
2, 3
2, 4
5, 3
1, 0
5, 4
1, 3
3, 5
7, 2
3, 2
2, 2
0, 2
3, 1
2, 5
3, 0
2, 0
0, 0
1, 0
0, 1
1, 1
0, 2
2, 1
1, 1
0, 1
1, 2
0, 0
2, 1
0, 1
1, 1
1, 0
1, 0
3, 1
1, 0
0, 0
1, 1
0, 0
1, 2
0, 1
0, 0
1, 0
0, 3
0, 1
0, 0
0, 1
0, 0
0, 0
0, 2
0, 0
0, 1
1, 0
0, 0
0, 0
1, 1
0, 0
1, 1
0, 0
0, 0
0, 1
0, 0
0, 1
0, 1
1, 1
0, 1
0, 0
1, 2
0, 0
0, 0
0, 0
0, 0
1, 0
0, 0
0, 0
0, 1
0, 0
0, 0
0, 0
0, 0
0, 0
0, 0
0, 0
0, 0
0, 0
0, 0
0, 0
0, 0
0, 0
0, 0
0, 0
0, 0
0, 0
0, 0
0, 0
0, 0
0, 1
0, 0
0, 2
0, 0
0, 0
0, 0
0, 0
0, 0
0, 0
0, 0
0, 0
0, 0
0, 0
0, 0
0, 0
0, 0
0, 0
0, 0
0, 0
0, 0
0, 0
0, 0
0, 0
0, 0
0, 0
0, 0
0, 0
0, 0
0, 0
0, 0
0, 0
0, 0
0, 0
0, 0
0, 0
0, 0
0, 0
0, 0
0, 0
0, 0
0, 0
0, 0
0, 0
0, 0
0, 0
0, 0
0, 0
0, 0
0, 0
0, 0
0, 0
0, 0
0, 0
0, 0
0, 0
0, 0
0, 0
0, 0
0, 0
0, 0
0, 0
0, 0
0, 0
0, 0
0, 0
0, 0
0, 0
0, 0
0, 0
0, 0
0, 0
0, 0
0, 0
0, 0
0, 0
0, 0
0, 0
0, 0
0, 0
0, 0
0, 0
0, 0
0, 0
0, 0
0, 0
0, 0
0, 0
0, 0
0, 0
0, 0
0, 0
0, 0
0, 0
#ENDOFDATA     end of spectrum data

File: ps__0852shot_2536.msa
#FORMAT      : EMSA/MAS spectral data file
#VERSION     : TC202v2.0 PIXL
#TITLE       : N/A
#DATE        :       Date in the format DD-MMM-YYYY, for example 07-JUL-2010
#TIME        :             The time of day at which the spectrum was recorded, in 24-hour format
#OWNER       : PIXL Flight Model       (PIXL will use this to indicate which instrument took the data.)
#NPOINTS     : 4096     Number of data points in the spectrum (This can be zero for configuration only files)
#NCOLUMNS    : 2     Number of data columns in the spectrum (This can be zero for configuration only files)
#XUNITS      : eV
#YUNITS      : COUNTS
#DATATYPE    : YY
#XPERCHAN    : 7.862, 7.881   eV per channel (separate by commas if more than one detector)
#OFFSET      : 18.5, -22.4         eV of first channel  (separate by commas if more than one detector
#SIGNALTYPE  : XRF
#YP_TEMP     : 2.203
#LIVETIME    : 8.55739, 8.55782   seconds (separate by commas if more than one detector)
#REALTIME    : 10, 10.0   seconds (separate by commas if more than one detector)
#SPECTRUM    : start of spectrum data
0, 0
0, 0
0, 0
0, 0
0, 0
0, 0
0, 0
1, 0
1, 0
1, 2
1, 1
41, 52
73, 60
5, 5
3, 6
81, 83
427, 386
103, 93
6, 8
3, 0
6, 5
35, 32
22, 8
15, 20
45, 52
68, 79
29, 41
17, 23
3, 5
3, 3
3, 2
4, 3
7, 4
15, 17
20, 16
10, 8
6, 7
5, 7
19, 10
41, 20
13, 8
9, 16
15, 20
22, 19
41, 15
28, 16
12, 7
15, 5
9, 16
32, 8
30, 28
14, 11
13, 13
44, 45
54, 64
31, 29
32, 37
535, 559
2341, 2187
1661, 1274
201, 123
23, 19
23, 28
109, 115
342, 348
229, 188
37, 27
9, 17
15, 13
10, 17
5, 3
4, 5
4, 3
14, 6
8, 6
10, 8
7, 9
6, 4
5, 4
5, 5
0, 7
5, 2
7, 4
8, 3
1, 6
5, 0
6, 4
7, 6
7, 4
13, 2
6, 4
5, 5
6, 1
1, 0
5, 4
3, 1
5, 1
7, 2
2, 3
0, 1
2, 6
3, 5
3, 3
4, 1
4, 1
1, 2
2, 1
1, 3
1, 4
1, 0
2, 1
0, 0
0, 2
1, 0
3, 1
5, 3
5, 3
4, 5
1, 5
1, 2
5, 4
3, 2
1, 3
4, 1
2, 1
1, 0
1, 1
0, 0
3, 2
2, 0
1, 3
1, 0
1, 1
0, 2
1, 1
0, 1
2, 1
0, 1
0, 0
1, 3
1, 0
2, 0
1, 1
1, 0
0, 0
1, 1
0, 0
1, 0
1, 0
0, 1
0, 0
0, 0
1, 0
0, 0
0, 2
1, 3
0, 0
1, 0
0, 0
0, 0
1, 1
0, 0
1, 0
0, 0
1, 0
0, 0
1, 0
0, 0
0, 0
1, 1
3, 0
1, 0
0, 0
0, 1
0, 1
0, 1
0, 0
0, 0
0, 0
0, 0
0, 0
1, 0
0, 1
1, 0
0, 0
1, 0
0, 0
0, 0
0, 0
0, 0
0, 0
0, 0
0, 0
0, 1
0, 0
0, 0
0, 0
0, 0
0, 0
0, 0
0, 0
0, 0
0, 0
0, 0
0, 0
0, 0
0, 0
0, 0
0, 0
0, 0
0, 0
0, 0
0, 0
0, 0
0, 0
0, 0
0, 0
0, 0
0, 0
0, 0
0, 0
0, 0
0, 0
0, 0
0, 0
0, 0
0, 0
0, 0
0, 0
0, 0
0, 0
0, 0
0, 0
0, 0
0, 0
0, 0
0, 0
0, 0
0, 0
0, 0
0, 0
0, 0
0, 0
0, 0
0, 0
0, 0
0, 0
0, 0
0, 0
0, 0
0, 0
0, 0
0, 0
0, 0
0, 0
0, 0
0, 0
0, 0
0, 0
0, 0
0, 0
0, 0
0, 0
0, 0
0, 0
0, 0
0, 0
0, 0
0, 0
0, 0
0, 0
0, 0
0, 0
0, 0
0, 0
0, 0
0, 0
0, 0
0, 0
0, 0
0, 0
0, 0
0, 0
0, 0
0, 0
0, 0
0, 0
0, 0
0, 0
0, 0
0, 0
0, 0
0, 0
0, 0
#ENDOFDATA     end of spectrum data