Folder: data-repository/host_upload/06-09-2024/ps_0852/dump3 (part 63)

File: ps__0852shot_2564.msa
#FORMAT      : EMSA/MAS spectral data file
#VERSION     : TC202v2.0 PIXL
#TITLE       : N/A
#DATE        :       Date in the format DD-MMM-YYYY, for example 07-JUL-2010
#TIME        :             The time of day at which the spectrum was recorded, in 24-hour format
#OWNER       : PIXL Flight Model       (PIXL will use this to indicate which instrument took the data.)
#NPOINTS     : 4096     Number of data points in the spectrum (This can be zero for configuration only files)
#NCOLUMNS    : 2     Number of data columns in the spectrum (This can be zero for configuration only files)
#XUNITS      : eV
#YUNITS      : COUNTS
#DATATYPE    : YY
#XPERCHAN    : 7.862, 7.881   eV per channel (separate by commas if more than one detector)
#OFFSET      : 18.5, -22.4         eV of first channel  (separate by commas if more than one detector
#SIGNALTYPE  : XRF
#YP_TEMP     : 2.203
#LIVETIME    : 8.54644, 8.54687   seconds (separate by commas if more than one detector)
#REALTIME    : 10, 10.0   seconds (separate by commas if more than one detector)
#SPECTRUM    : start of spectrum data
0, 0
0, 0
0, 0
0, 0
0, 0
0, 0
0, 0
1, 0
0, 0
1, 0
3, 2
44, 51
63, 66
7, 8
7, 4
92, 98
426, 496
90, 103
8, 3
0, 2
2, 1
4, 2
3, 2
7, 5
16, 29
29, 18
26, 13
26, 8
7, 3
3, 2
0, 1
7, 0
2, 2
9, 9
21, 25
3, 3
8, 3
5, 6
5, 5
79, 4
105, 4
21, 10
11, 10
15, 11
6, 4
4, 6
4, 11
3, 16
5, 3
10, 16
24, 20
31, 9
93, 9
176, 43
124, 52
34, 30
38, 36
481, 551
2289, 2460
1567, 1436
179, 123
12, 18
12, 25
101, 111
328, 358
218, 198
42, 22
6, 10
13, 13
12, 12
8, 1
7, 2
2, 2
3, 4
10, 3
2, 6
5, 9
11, 12
14, 13
18, 7
21, 14
5, 33
6, 18
2, 1
4, 1
4, 1
0, 2
1, 2
0, 3
3, 6
6, 6
10, 5
13, 15
11, 25
5, 7
1, 2
1, 5
2, 6
3, 3
1, 2
2, 1
3, 2
2, 0
0, 5
4, 1
0, 0
1, 1
3, 1
4, 3
3, 3
4, 1
2, 2
8, 3
1, 2
2, 1
3, 1
2, 2
5, 1
3, 1
1, 1
1, 2
2, 4
1, 3
3, 0
3, 0
1, 0
2, 1
2, 1
1, 2
2, 0
0, 1
0, 1
1, 1
2, 0
0, 0
0, 0
0, 0
0, 1
1, 1
0, 1
2, 0
0, 1
1, 1
0, 0
0, 3
1, 1
0, 0
0, 1
1, 0
1, 1
0, 0
1, 1
1, 2
1, 0
2, 2
0, 1
1, 0
0, 1
0, 1
0, 1
0, 0
0, 0
0, 2
0, 0
1, 0
0, 0
0, 0
1, 2
1, 0
0, 0
0, 1
0, 0
0, 0
0, 0
0, 0
0, 0
0, 0
0, 0
0, 0
2, 0
0, 0
0, 1
1, 0
0, 0
0, 0
0, 0
2, 0
0, 0
0, 0
0, 1
0, 0
0, 0
0, 0
0, 0
0, 0
0, 0
0, 0
0, 1
0, 0
0, 0
0, 0
0, 0
0, 0
0, 0
0, 0
0, 0
0, 0
0, 0
0, 0
0, 0
0, 0
0, 0
0, 0
0, 0
0, 0
0, 0
0, 0
0, 0
0, 0
0, 0
0, 0
0, 0
0, 0
0, 0
0, 0
0, 0
0, 0
0, 0
0, 0
0, 0
0, 0
0, 0
0, 0
0, 0
0, 0
0, 0
0, 0
0, 0
0, 0
0, 0
0, 0
0, 0
0, 0
0, 0
0, 0
0, 0
0, 0
0, 0
0, 0
0, 0
0, 0
0, 0
0, 0
0, 0
0, 0
0, 0
0, 0
0, 0
0, 0
0, 0
0, 0
0, 0
0, 0
0, 0
0, 0
0, 0
0, 0
0, 0
0, 0
0, 0
0, 0
0, 0
0, 0
0, 0
0, 0
0, 0
0, 0
0, 0
0, 0
0, 0
0, 0
0, 0
0, 0
0, 0
0, 0
0, 0
0, 0
0, 0
0, 0
0, 0
0, 0
0, 0
0, 0
0, 0
#ENDOFDATA     end of spectrum data

File: ps__0852shot_2565.msa
#FORMAT      : EMSA/MAS spectral data file
#VERSION     : TC202v2.0 PIXL
#TITLE       : N/A
#DATE        :       Date in the format DD-MMM-YYYY, for example 07-JUL-2010
#TIME        :             The time of day at which the spectrum was recorded, in 24-hour format
#OWNER       : PIXL Flight Model       (PIXL will use this to indicate which instrument took the data.)
#NPOINTS     : 4096     Number of data points in the spectrum (This can be zero for configuration only files)
#NCOLUMNS    : 2     Number of data columns in the spectrum (This can be zero for configuration only files)
#XUNITS      : eV
#YUNITS      : COUNTS
#DATATYPE    : YY
#XPERCHAN    : 7.862, 7.881   eV per channel (separate by commas if more than one detector)
#OFFSET      : 18.5, -22.4         eV of first channel  (separate by commas if more than one detector
#SIGNALTYPE  : XRF
#YP_TEMP     : 2.235
#LIVETIME    : 8.55434, 8.53847   seconds (separate by commas if more than one detector)
#REALTIME    : 10, 10.0   seconds (separate by commas if more than one detector)
#SPECTRUM    : start of spectrum data
0, 0
0, 0
0, 0
0, 0
0, 0
0, 0
0, 0
0, 0
0, 1
1, 0
3, 1
53, 53
74, 51
4, 5
6, 2
113, 100
431, 416
96, 86
8, 4
0, 0
2, 0
2, 2
3, 0
5, 4
30, 7
44, 23
26, 12
15, 6
5, 0
2, 5
0, 1
2, 1
1, 9
13, 15
22, 19
1, 3
9, 6
7, 2
6, 0
44, 0
72, 5
25, 4
14, 8
9, 11
2, 6
10, 7
6, 13
4, 9
8, 12
11, 26
17, 32
28, 18
63, 14
128, 36
95, 51
18, 20
29, 40
475, 556
2277, 2273
1599, 1353
186, 139
11, 18
22, 31
98, 108
329, 353
199, 187
38, 21
14, 11
14, 11
5, 4
2, 2
3, 3
5, 7
1, 2
11, 5
9, 10
8, 8
7, 13
13, 15
20, 5
10, 7
5, 15
0, 12
1, 4
4, 8
4, 2
4, 5
0, 2
1, 4
3, 3
5, 8
2, 7
9, 14
7, 14
4, 13
1, 4
3, 6
1, 3
2, 4
1, 2
2, 3
1, 2
5, 1
0, 2
2, 1
9, 0
2, 4
4, 3
1, 2
2, 1
3, 2
1, 3
3, 2
3, 3
0, 1
4, 1
5, 6
0, 3
2, 0
3, 1
4, 1
5, 0
1, 2
2, 4
2, 3
2, 0
1, 1
2, 1
1, 3
0, 0
2, 1
2, 1
1, 0
1, 0
0, 4
0, 1
0, 0
0, 1
0, 1
0, 1
0, 2
2, 1
0, 0
0, 0
0, 1
1, 1
0, 1
1, 1
0, 0
0, 2
1, 0
0, 0
0, 1
0, 0
0, 0
0, 1
0, 2
0, 0
0, 0
0, 0
0, 1
0, 0
1, 1
1, 0
0, 0
0, 1
0, 0
0, 0
0, 0
1, 1
0, 0
0, 0
0, 1
0, 0
0, 0
0, 0
0, 0
0, 0
0, 0
0, 0
0, 0
0, 0
0, 0
0, 0
0, 0
1, 1
0, 0
0, 0
1, 0
0, 0
0, 0
0, 0
0, 0
0, 0
0, 1
1, 0
0, 0
0, 0
0, 0
1, 0
0, 0
0, 0
0, 0
0, 0
0, 0
0, 0
0, 0
0, 0
0, 0
0, 0
0, 0
0, 0
0, 0
0, 0
0, 0
0, 0
0, 0
0, 0
0, 0
0, 0
0, 0
0, 0
0, 0
0, 0
0, 0
0, 0
0, 0
0, 0
0, 0
0, 0
0, 0
0, 0
0, 0
0, 0
0, 0
0, 0
0, 0
0, 0
0, 0
0, 0
0, 0
0, 0
0, 0
0, 0
0, 0
0, 0
0, 0
0, 0
0, 0
0, 0
0, 0
0, 0
0, 0
0, 0
0, 0
0, 0
0, 0
0, 0
0, 0
0, 0
0, 0
0, 0
0, 0
0, 0
0, 0
0, 0
0, 0
0, 0
0, 0
0, 0
0, 0
0, 0
0, 0
0, 0
0, 0
0, 0
0, 0
0, 0
0, 0
0, 0
0, 0
0, 0
0, 0
0, 0
0, 0
0, 0
0, 0
0, 0
0, 0
0, 0
0, 0
0, 0
0, 0
0, 0
#ENDOFDATA     end of spectrum data

File: ps__0852shot_2566.msa
#FORMAT      : EMSA/MAS spectral data file
#VERSION     : TC202v2.0 PIXL
#TITLE       : N/A
#DATE        :       Date in the format DD-MMM-YYYY, for example 07-JUL-2010
#TIME        :             The time of day at which the spectrum was recorded, in 24-hour format
#OWNER       : PIXL Flight Model       (PIXL will use this to indicate which instrument took the data.)
#NPOINTS     : 4096     Number of data points in the spectrum (This can be zero for configuration only files)
#NCOLUMNS    : 2     Number of data columns in the spectrum (This can be zero for configuration only files)
#XUNITS      : eV
#YUNITS      : COUNTS
#DATATYPE    : YY
#XPERCHAN    : 7.862, 7.881   eV per channel (separate by commas if more than one detector)
#OFFSET      : 18.5, -22.4         eV of first channel  (separate by commas if more than one detector
#SIGNALTYPE  : XRF
#YP_TEMP     : 2.3
#LIVETIME    : 8.56328, 8.54419   seconds (separate by commas if more than one detector)
#REALTIME    : 10, 10.0   seconds (separate by commas if more than one detector)
#SPECTRUM    : start of spectrum data
0, 0
0, 0
0, 0
0, 0
0, 0
0, 0
0, 1
1, 0
2, 2
2, 0
0, 2
57, 41
63, 66
8, 2
8, 4
118, 89
434, 409
107, 102
2, 3
1, 0
4, 0
2, 6
3, 1
6, 5
69, 16
94, 20
21, 12
21, 12
3, 4
5, 0
2, 1
3, 3
2, 5
9, 17
35, 25
7, 3
4, 1
11, 6
10, 4
9, 1
17, 2
21, 5
13, 5
6, 5
5, 7
4, 7
1, 29
4, 28
7, 12
9, 53
17, 49
15, 11
27, 15
67, 45
75, 72
27, 19
35, 44
514, 580
2350, 2250
1662, 1288
178, 126
19, 19
30, 20
96, 127
357, 334
215, 167
43, 18
12, 6
17, 10
9, 10
4, 2
5, 1
3, 1
3, 2
5, 9
14, 3
4, 4
4, 11
6, 9
10, 4
8, 6
5, 3
2, 7
7, 0
4, 4
2, 4
3, 3
5, 4
2, 3
5, 7
14, 5
12, 3
8, 9
5, 6
2, 11
2, 6
2, 4
0, 3
1, 2
1, 2
2, 3
2, 5
4, 3
5, 1
7, 1
5, 1
2, 2
4, 2
0, 5
0, 3
1, 5
4, 2
4, 4
3, 2
1, 0
4, 0
11, 1
9, 7
2, 1
2, 0
1, 0
2, 1
1, 3
4, 1
2, 1
1, 0
0, 1
0, 0
0, 1
3, 0
1, 0
1, 0
0, 1
0, 3
1, 0
0, 0
1, 0
0, 0
3, 0
1, 0
0, 1
1, 0
1, 1
0, 1
0, 4
0, 1
2, 1
0, 1
0, 0
0, 1
0, 1
1, 0
0, 0
1, 0
0, 0
0, 1
0, 1
0, 0
1, 0
0, 0
1, 0
0, 1
0, 1
0, 0
0, 0
0, 0
0, 0
0, 0
1, 0
1, 0
0, 1
0, 1
1, 0
0, 1
0, 0
0, 0
1, 0
1, 0
0, 0
1, 0
0, 0
0, 0
0, 0
0, 0
0, 0
0, 0
0, 0
0, 0
0, 0
0, 0
0, 0
0, 0
0, 0
0, 0
0, 0
0, 0
0, 0
0, 0
0, 0
0, 0
0, 0
0, 0
0, 0
0, 0
0, 0
0, 0
0, 0
0, 0
0, 0
0, 0
0, 0
0, 0
0, 0
0, 0
0, 0
0, 0
0, 0
0, 0
0, 0
0, 0
0, 0
0, 0
0, 0
0, 0
0, 0
0, 0
0, 0
0, 0
0, 0
0, 0
0, 0
0, 0
0, 0
0, 0
0, 0
0, 0
0, 0
0, 0
0, 0
0, 0
0, 0
0, 0
0, 0
0, 0
0, 0
0, 0
0, 0
0, 0
0, 0
0, 0
0, 0
0, 0
0, 0
0, 0
0, 0
0, 0
0, 0
0, 0
0, 0
0, 0
0, 0
0, 0
0, 0
0, 0
0, 0
0, 0
0, 0
0, 0
0, 0
0, 0
0, 0
0, 0
0, 0
0, 0
0, 0
0, 0
0, 0
0, 0
0, 0
0, 0
0, 0
0, 0
0, 0
0, 0
0, 0
0, 0
0, 0
0, 0
0, 0
0, 0
0, 0
0, 0
0, 0
0, 0
#ENDOFDATA     end of spectrum data

File: ps__0852shot_2567.msa
#FORMAT      : EMSA/MAS spectral data file
#VERSION     : TC202v2.0 PIXL
#TITLE       : N/A
#DATE        :       Date in the format DD-MMM-YYYY, for example 07-JUL-2010
#TIME        :             The time of day at which the spectrum was recorded, in 24-hour format
#OWNER       : PIXL Flight Model       (PIXL will use this to indicate which instrument took the data.)
#NPOINTS     : 4096     Number of data points in the spectrum (This can be zero for configuration only files)
#NCOLUMNS    : 2     Number of data columns in the spectrum (This can be zero for configuration only files)
#XUNITS      : eV
#YUNITS      : COUNTS
#DATATYPE    : YY
#XPERCHAN    : 7.862, 7.881   eV per channel (separate by commas if more than one detector)
#OFFSET      : 18.5, -22.4         eV of first channel  (separate by commas if more than one detector
#SIGNALTYPE  : XRF
#YP_TEMP     : 2.3
#LIVETIME    : 8.56082, 8.54171   seconds (separate by commas if more than one detector)
#REALTIME    : 10, 10.0   seconds (separate by commas if more than one detector)
#SPECTRUM    : start of spectrum data
0, 0
0, 0
0, 0
0, 0
0, 0
0, 0
0, 0
0, 0
0, 1
0, 0
2, 1
48, 38
50, 56
6, 6
12, 9
84, 109
482, 451
111, 87
7, 2
1, 3
1, 3
8, 3
7, 1
7, 7
53, 22
63, 22
31, 17
16, 15
2, 6
1, 4
4, 6
1, 2
7, 3
16, 17
22, 22
6, 4
4, 4
14, 5
13, 3
30, 3
34, 4
15, 14
9, 16
7, 10
6, 5
4, 8
3, 22
4, 15
7, 17
16, 34
10, 24
29, 10
47, 14
94, 42
82, 57
25, 23
21, 32
477, 550
2220, 2352
1582, 1384
167, 151
19, 21
14, 22
106, 131
352, 351
218, 192
32, 38
9, 7
14, 19
9, 8
7, 4
4, 5
3, 5
4, 6
4, 4
17, 2
11, 7
6, 24
10, 11
10, 10
6, 4
1, 14
2, 1
4, 1
1, 2
4, 4
3, 5
2, 7
9, 5
6, 2
13, 5
17, 4
8, 10
11, 21
2, 9
2, 2
1, 3
2, 3
3, 2
3, 1
1, 2
2, 1
6, 0
0, 1
4, 4
0, 1
5, 1
3, 0
0, 7
3, 2
3, 1
1, 3
0, 2
2, 0
2, 2
5, 2
4, 5
3, 2
4, 1
0, 2
3, 5
2, 2
4, 2
0, 0
0, 0
1, 1
0, 0
0, 1
0, 1
2, 0
0, 0
0, 0
1, 1
0, 0
0, 1
3, 0
0, 0
0, 3
0, 2
1, 1
1, 2
1, 0
3, 2
0, 3
1, 0
0, 0
0, 0
0, 0
0, 0
1, 0
0, 1
1, 2
0, 0
3, 1
0, 2
0, 0
0, 0
0, 0
0, 0
0, 0
2, 0
0, 0
0, 0
0, 0
0, 0
1, 1
0, 0
0, 0
0, 0
1, 0
0, 0
0, 0
2, 0
0, 0
0, 0
0, 1
0, 0
1, 0
0, 0
0, 1
0, 0
0, 0
0, 0
0, 1
0, 0
0, 0
0, 0
0, 0
0, 0
0, 0
0, 0
0, 0
0, 0
0, 0
0, 0
0, 0
0, 0
0, 0
0, 0
0, 0
0, 0
0, 0
0, 0
0, 0
0, 0
0, 0
0, 0
0, 0
0, 0
0, 0
0, 0
0, 0
0, 0
0, 0
0, 0
0, 0
0, 0
0, 0
0, 0
0, 0
0, 0
0, 0
0, 0
0, 0
0, 0
0, 0
0, 0
0, 0
0, 0
0, 0
0, 0
0, 0
0, 0
0, 0
0, 0
0, 0
0, 0
0, 0
0, 0
0, 0
0, 0
0, 0
0, 0
0, 0
0, 0
0, 0
0, 0
0, 0
0, 0
0, 0
0, 0
0, 0
0, 0
0, 0
0, 0
0, 0
0, 0
0, 0
0, 0
0, 0
0, 0
0, 0
0, 0
0, 0
0, 0
0, 0
0, 0
0, 0
0, 0
0, 0
0, 0
0, 0
0, 0
0, 0
0, 0
0, 0
0, 0
0, 0
0, 0
0, 0
0, 0
0, 0
0, 0
0, 0
0, 0
0, 0
0, 0
0, 0
0, 0
0, 0
0, 0
0, 0
0, 0
0, 0
#ENDOFDATA     end of spectrum data

File: ps__0852shot_2568.msa
#FORMAT      : EMSA/MAS spectral data file
#VERSION     : TC202v2.0 PIXL
#TITLE       : N/A
#DATE        :       Date in the format DD-MMM-YYYY, for example 07-JUL-2010
#TIME        :             The time of day at which the spectrum was recorded, in 24-hour format
#OWNER       : PIXL Flight Model       (PIXL will use this to indicate which instrument took the data.)
#NPOINTS     : 4096     Number of data points in the spectrum (This can be zero for configuration only files)
#NCOLUMNS    : 2     Number of data columns in the spectrum (This can be zero for configuration only files)
#XUNITS      : eV
#YUNITS      : COUNTS
#DATATYPE    : YY
#XPERCHAN    : 7.862, 7.881   eV per channel (separate by commas if more than one detector)
#OFFSET      : 18.5, -22.4         eV of first channel  (separate by commas if more than one detector
#SIGNALTYPE  : XRF
#YP_TEMP     : 2.235
#LIVETIME    : 8.53077, 8.54351   seconds (separate by commas if more than one detector)
#REALTIME    : 10, 10.0   seconds (separate by commas if more than one detector)
#SPECTRUM    : start of spectrum data
0, 0
0, 0
0, 0
0, 0
0, 0
0, 0
0, 0
0, 0
0, 0
1, 0
2, 2
49, 39
69, 51
4, 10
7, 6
110, 83
501, 409
131, 102
8, 4
2, 2
2, 2
6, 8
3, 1
2, 3
43, 21
47, 33
31, 14
15, 11
6, 3
2, 3
2, 4
2, 3
1, 2
5, 3
19, 14
4, 3
4, 2
7, 5
14, 3
44, 2
100, 1
31, 6
14, 12
6, 12
3, 11
3, 7
7, 9
4, 11
4, 15
21, 15
12, 11
41, 8
103, 9
156, 30
106, 54
32, 16
26, 31
543, 536
2334, 2099
1719, 1294
196, 125
13, 15
19, 27
109, 106
350, 315
245, 183
41, 22
11, 8
16, 11
6, 7
9, 6
5, 3
2, 2
4, 3
2, 3
7, 4
14, 8
8, 28
19, 17
15, 6
7, 19
2, 25
1, 9
3, 2
2, 2
2, 6
3, 4
4, 5
4, 4
5, 6
2, 2
13, 5
14, 10
10, 13
5, 10
3, 1
4, 1
1, 1
3, 2
0, 5
3, 4
2, 0
5, 3
2, 2
3, 2
3, 3
2, 1
1, 2
1, 5
4, 2
1, 2
0, 0
5, 2
1, 1
5, 1
4, 4
3, 1
4, 1
3, 0
0, 1
2, 1
2, 0
1, 4
2, 2
1, 1
0, 4
0, 4
1, 0
2, 0
2, 1
1, 0
2, 1
2, 1
1, 3
0, 0
1, 0
1, 0
0, 0
0, 0
0, 0
0, 2
0, 0
0, 0
2, 2
0, 1
0, 1
1, 2
0, 0
0, 0
1, 0
1, 0
0, 1
0, 0
0, 1
0, 0
1, 0
1, 0
0, 0
0, 0
0, 0
0, 1
0, 0
0, 0
0, 0
0, 1
0, 0
0, 0
0, 1
1, 0
0, 1
0, 0
1, 0
2, 1
1, 0
0, 0
1, 0
0, 0
0, 0
0, 0
0, 0
0, 0
0, 0
0, 0
0, 0
0, 2
1, 0
0, 0
0, 1
0, 0
0, 1
0, 0
0, 0
0, 0
0, 0
1, 0
0, 0
0, 0
0, 0
0, 0
0, 0
0, 0
0, 0
0, 0
0, 0
0, 0
0, 0
0, 0
0, 0
0, 0
0, 0
0, 0
0, 0
0, 0
0, 0
0, 0
0, 0
0, 0
0, 0
0, 0
0, 0
0, 0
0, 0
0, 0
0, 0
0, 0
0, 0
0, 0
0, 0
0, 0
0, 0
0, 1
0, 0
0, 0
0, 0
0, 0
0, 0
0, 0
0, 0
0, 0
0, 0
0, 0
0, 0
0, 0
0, 0
0, 0
0, 0
0, 0
0, 0
0, 0
0, 0
0, 0
0, 0
0, 0
0, 0
0, 0
0, 0
0, 0
0, 0
0, 0
0, 0
0, 0
0, 0
0, 0
0, 0
0, 0
0, 0
0, 0
0, 0
0, 0
0, 0
0, 0
0, 0
0, 0
0, 0
0, 0
0, 0
0, 0
0, 0
0, 0
0, 0
0, 0
0, 0
0, 0
0, 0
0, 0
0, 0
0, 0
0, 0
0, 0
0, 0
0, 0
0, 0
0, 0
0, 0
#ENDOFDATA     end of spectrum data

File: ps__0852shot_2569.msa
#FORMAT      : EMSA/MAS spectral data file
#VERSION     : TC202v2.0 PIXL
#TITLE       : N/A
#DATE        :       Date in the format DD-MMM-YYYY, for example 07-JUL-2010
#TIME        :             The time of day at which the spectrum was recorded, in 24-hour format
#OWNER       : PIXL Flight Model       (PIXL will use this to indicate which instrument took the data.)
#NPOINTS     : 4096     Number of data points in the spectrum (This can be zero for configuration only files)
#NCOLUMNS    : 2     Number of data columns in the spectrum (This can be zero for configuration only files)
#XUNITS      : eV
#YUNITS      : COUNTS
#DATATYPE    : YY
#XPERCHAN    : 7.862, 7.881   eV per channel (separate by commas if more than one detector)
#OFFSET      : 18.5, -22.4         eV of first channel  (separate by commas if more than one detector
#SIGNALTYPE  : XRF
#YP_TEMP     : 2.46
#LIVETIME    : 8.54763, 8.54899   seconds (separate by commas if more than one detector)
#REALTIME    : 10, 10.0   seconds (separate by commas if more than one detector)
#SPECTRUM    : start of spectrum data
0, 0
0, 0
0, 0
0, 0
0, 0
0, 0
0, 0
1, 0
1, 0
3, 1
1, 3
56, 44
60, 50
9, 4
8, 5
90, 85
494, 396
92, 85
2, 2
2, 1
2, 0
10, 8
3, 4
10, 9
52, 20
47, 35
31, 21
18, 9
6, 2
3, 2
3, 4
1, 8
3, 5
6, 8
15, 15
2, 2
3, 2
6, 3
8, 4
36, 1
42, 2
16, 6
10, 18
12, 24
5, 15
6, 20
4, 5
8, 7
7, 10
12, 9
16, 8
25, 10
46, 8
100, 28
88, 47
21, 17
28, 39
493, 550
2409, 2187
1735, 1295
165, 130
22, 15
17, 34
100, 111
406, 331
266, 178
42, 20
10, 8
12, 15
12, 6
7, 2
7, 3
6, 3
3, 4
4, 7
2, 6
6, 11
7, 14
12, 6
14, 7
18, 7
4, 12
4, 11
6, 6
3, 5
4, 6
5, 19
3, 18
7, 13
15, 5
5, 3
2, 3
4, 6
7, 5
6, 6
2, 4
5, 3
4, 3
4, 1
2, 2
2, 3
6, 0
5, 1
3, 3
4, 0
1, 3
3, 1
1, 1
2, 3
1, 7
1, 1
4, 3
2, 3
2, 0
1, 2
6, 1
9, 3
9, 1
5, 2
2, 0
2, 2
2, 0
1, 1
3, 0
1, 0
0, 0
1, 0
1, 2
0, 0
1, 0
2, 0
0, 1
2, 0
2, 0
0, 0
1, 3
2, 2
2, 3
0, 2
0, 0
2, 0
0, 0
0, 0
0, 1
1, 0
0, 1
1, 1
0, 0
0, 0
0, 0
1, 1
2, 1
0, 2
0, 1
0, 1
0, 0
0, 0
0, 1
1, 0
1, 1
1, 1
0, 1
0, 0
0, 0
0, 0
0, 1
0, 0
1, 0
0, 0
1, 1
0, 0
0, 0
0, 0
0, 0
0, 0
1, 0
1, 0
0, 0
0, 0
0, 1
0, 0
0, 1
0, 0
2, 0
0, 0
0, 0
0, 0
0, 0
0, 0
0, 0
0, 1
0, 0
0, 0
0, 0
1, 0
1, 0
0, 0
0, 1
0, 0
0, 0
0, 0
0, 0
0, 0
0, 1
0, 0
0, 0
0, 0
0, 0
0, 0
0, 0
0, 0
0, 0
0, 0
0, 0
0, 0
0, 0
0, 0
0, 0
0, 0
0, 0
0, 0
0, 0
0, 0
0, 0
0, 0
0, 0
0, 0
0, 0
0, 0
0, 0
0, 0
0, 0
0, 0
0, 0
0, 0
0, 0
0, 0
0, 0
0, 0
0, 0
0, 0
0, 0
0, 0
0, 0
0, 0
0, 0
0, 0
0, 0
0, 0
0, 0
0, 0
0, 0
0, 0
0, 0
0, 0
0, 0
0, 0
0, 0
0, 0
0, 0
0, 0
0, 0
0, 0
0, 0
0, 0
0, 0
0, 0
0, 0
0, 0
0, 0
0, 0
0, 0
0, 0
0, 0
0, 0
0, 0
0, 0
0, 0
0, 0
0, 0
0, 0
0, 0
0, 0
0, 0
0, 0
0, 0
0, 0
0, 0
0, 0
0, 0
0, 0
0, 0
0, 0
0, 0
#ENDOFDATA     end of spectrum data

File: ps__0852shot_2570.msa
#FORMAT      : EMSA/MAS spectral data file
#VERSION     : TC202v2.0 PIXL
#TITLE       : N/A
#DATE        :       Date in the format DD-MMM-YYYY, for example 07-JUL-2010
#TIME        :             The time of day at which the spectrum was recorded, in 24-hour format
#OWNER       : PIXL Flight Model       (PIXL will use this to indicate which instrument took the data.)
#NPOINTS     : 4096     Number of data points in the spectrum (This can be zero for configuration only files)
#NCOLUMNS    : 2     Number of data columns in the spectrum (This can be zero for configuration only files)
#XUNITS      : eV
#YUNITS      : COUNTS
#DATATYPE    : YY
#XPERCHAN    : 7.862, 7.881   eV per channel (separate by commas if more than one detector)
#OFFSET      : 18.5, -22.4         eV of first channel  (separate by commas if more than one detector
#SIGNALTYPE  : XRF
#YP_TEMP     : 2.235
#LIVETIME    : 8.57169, 8.36284   seconds (separate by commas if more than one detector)
#REALTIME    : 10, 10.0   seconds (separate by commas if more than one detector)
#SPECTRUM    : start of spectrum data
0, 0
0, 0
0, 0
0, 0
0, 0
0, 0
0, 0
0, 0
0, 1
1, 1
2, 3
60, 39
72, 48
9, 3
2, 4
100, 78
496, 394
103, 97
7, 9
3, 1
2, 3
2, 4
3, 4
9, 9
53, 40
38, 34
17, 15
12, 14
5, 7
4, 1
1, 0
4, 2
2, 2
10, 13
12, 17
5, 3
3, 3
5, 2
5, 6
4, 4
8, 6
6, 7
10, 9
11, 7
10, 9
2, 19
5, 41
7, 16
10, 5
28, 10
14, 10
7, 6
7, 10
58, 52
72, 53
19, 18
33, 29
531, 533
2417, 2285
1713, 1301
211, 120
15, 17
25, 16
101, 119
383, 368
252, 172
26, 18
8, 17
13, 18
16, 18
16, 7
8, 3
10, 6
4, 4
4, 6
5, 12
6, 5
3, 10
8, 3
11, 4
17, 2
7, 4
6, 4
3, 5
1, 6
4, 3
2, 14
3, 25
10, 10
15, 2
1, 6
1, 4
1, 1
3, 1
4, 2
2, 4
1, 5
4, 2
2, 2
2, 1
9, 1
3, 1
0, 2
5, 3
3, 2
1, 0
2, 1
4, 3
5, 5
2, 5
1, 3
2, 1
1, 0
0, 0
0, 4
1, 6
1, 1
0, 2
3, 0
1, 3
1, 0
2, 3
2, 2
3, 2
1, 0
1, 1
1, 2
1, 0
2, 1
0, 1
2, 1
3, 0
1, 1
0, 0
1, 0
2, 4
1, 1
1, 1
1, 0
3, 0
2, 0
0, 1
0, 1
0, 0
1, 1
1, 0
1, 0
1, 0
0, 0
1, 0
1, 0
0, 0
1, 0
0, 0
0, 0
0, 0
0, 0
3, 0
0, 0
0, 0
1, 2
0, 0
0, 0
0, 0
0, 0
0, 0
1, 0
0, 0
0, 0
2, 0
1, 0
0, 0
0, 0
0, 0
0, 0
1, 0
1, 0
0, 0
0, 1
0, 0
0, 0
1, 0
0, 0
1, 1
0, 0
0, 0
0, 0
0, 0
0, 0
0, 0
1, 0
0, 0
0, 0
0, 0
0, 0
0, 0
0, 0
0, 0
0, 0
0, 0
0, 0
0, 0
0, 0
0, 0
0, 0
0, 0
0, 0
0, 0
0, 0
0, 0
0, 0
0, 0
0, 0
0, 0
0, 0
0, 0
0, 0
0, 0
0, 0
0, 0
0, 0
0, 0
0, 0
0, 0
0, 0
0, 1
0, 0
0, 0
0, 0
0, 0
0, 0
0, 0
0, 0
0, 0
0, 0
0, 0
0, 0
0, 0
0, 0
0, 0
0, 0
0, 0
0, 0
0, 0
0, 0
0, 0
0, 0
0, 0
0, 0
0, 0
0, 0
0, 0
0, 0
0, 0
0, 0
0, 0
0, 0
0, 0
0, 0
0, 0
0, 0
0, 0
0, 0
0, 0
0, 0
0, 0
0, 0
0, 0
0, 0
0, 0
0, 0
0, 0
0, 0
0, 0
0, 0
0, 0
0, 0
0, 0
0, 0
0, 0
0, 0
0, 0
0, 0
0, 0
0, 0
0, 0
0, 0
0, 0
0, 0
0, 0
0, 0
0, 0
0, 0
0, 0
#ENDOFDATA     end of spectrum data

File: ps__0852shot_2571.msa
#FORMAT      : EMSA/MAS spectral data file
#VERSION     : TC202v2.0 PIXL
#TITLE       : N/A
#DATE        :       Date in the format DD-MMM-YYYY, for example 07-JUL-2010
#TIME        :             The time of day at which the spectrum was recorded, in 24-hour format
#OWNER       : PIXL Flight Model       (PIXL will use this to indicate which instrument took the data.)
#NPOINTS     : 4096     Number of data points in the spectrum (This can be zero for configuration only files)
#NCOLUMNS    : 2     Number of data columns in the spectrum (This can be zero for configuration only files)
#XUNITS      : eV
#YUNITS      : COUNTS
#DATATYPE    : YY
#XPERCHAN    : 7.862, 7.881   eV per channel (separate by commas if more than one detector)
#OFFSET      : 18.5, -22.4         eV of first channel  (separate by commas if more than one detector
#SIGNALTYPE  : XRF
#YP_TEMP     : 2.46
#LIVETIME    : 8.56097, 8.56555   seconds (separate by commas if more than one detector)
#REALTIME    : 10, 10.0   seconds (separate by commas if more than one detector)
#SPECTRUM    : start of spectrum data
0, 0
0, 0
0, 0
0, 0
0, 0
0, 0
0, 0
0, 0
0, 0
1, 2
1, 2
46, 41
49, 55
5, 6
3, 4
119, 89
459, 432
106, 91
6, 1
0, 0
3, 1
10, 7
3, 5
16, 10
41, 41
42, 53
26, 22
10, 19
7, 2
1, 2
2, 2
1, 1
5, 2
9, 21
11, 16
2, 10
5, 2
6, 4
1, 7
5, 6
3, 5
9, 10
14, 16
15, 9
5, 13
5, 23
12, 28
12, 15
7, 11
18, 22
23, 18
20, 13
25, 13
45, 38
60, 58
26, 22
24, 37
520, 587
2269, 2410
1659, 1428
202, 105
22, 9
20, 25
118, 139
352, 358
245, 200
24, 17
14, 21
17, 30
14, 37
3, 10
10, 2
7, 1
6, 4
5, 7
6, 7
5, 10
8, 3
3, 2
5, 5
7, 7
7, 3
4, 3
4, 8
11, 3
4, 3
2, 3
0, 4
3, 6
2, 4
2, 5
4, 1
5, 4
1, 10
3, 13
4, 6
2, 2
3, 1
6, 4
6, 1
3, 5
2, 0
5, 1
4, 5
5, 2
3, 2
2, 2
2, 1
4, 1
5, 4
2, 3
3, 3
0, 3
2, 2
2, 0
7, 3
3, 5
3, 7
1, 0
1, 1
1, 1
4, 2
1, 2
3, 1
2, 0
1, 3
1, 3
3, 1
1, 1
3, 0
2, 0
1, 1
1, 0
0, 1
1, 1
3, 1
1, 1
2, 1
1, 0
1, 0
0, 0
1, 0
3, 0
0, 1
0, 0
0, 1
0, 0
0, 0
0, 0
0, 0
2, 0
1, 2
0, 0
0, 0
0, 0
0, 0
0, 0
2, 0
0, 0
0, 0
0, 0
0, 0
0, 0
0, 0
1, 0
0, 0
0, 0
0, 0
0, 1
0, 0
1, 0
2, 0
0, 0
1, 0
1, 0
0, 0
0, 0
1, 0
0, 1
0, 0
0, 0
0, 0
0, 0
1, 0
0, 0
1, 0
0, 0
0, 0
0, 0
0, 0
0, 0
0, 0
0, 0
0, 0
0, 0
0, 0
0, 0
0, 0
0, 0
0, 0
0, 0
0, 0
0, 0
0, 0
0, 0
0, 0
0, 0
0, 0
0, 0
0, 0
0, 0
0, 0
0, 1
0, 0
0, 0
0, 0
0, 0
0, 0
0, 0
0, 0
0, 0
0, 0
0, 0
0, 0
0, 0
0, 0
0, 0
0, 0
0, 0
0, 0
0, 0
0, 0
0, 0
0, 0
0, 0
0, 0
0, 0
0, 0
0, 0
0, 0
0, 0
0, 0
0, 0
0, 0
0, 0
0, 0
0, 0
0, 0
0, 0
0, 0
0, 0
0, 0
0, 0
0, 0
0, 0
0, 0
0, 0
0, 0
0, 0
0, 0
0, 0
0, 0
0, 0
0, 0
0, 0
0, 0
0, 0
0, 0
0, 0
0, 0
0, 0
0, 0
0, 0
0, 0
0, 0
0, 0
0, 0
0, 0
0, 0
0, 0
0, 0
0, 0
0, 0
0, 0
0, 0
0, 0
0, 0
0, 0
0, 0
0, 0
0, 0
0, 0
0, 0
0, 0
#ENDOFDATA     end of spectrum data

File: ps__0852shot_2572.msa
#FORMAT      : EMSA/MAS spectral data file
#VERSION     : TC202v2.0 PIXL
#TITLE       : N/A
#DATE        :       Date in the format DD-MMM-YYYY, for example 07-JUL-2010
#TIME        :             The time of day at which the spectrum was recorded, in 24-hour format
#OWNER       : PIXL Flight Model       (PIXL will use this to indicate which instrument took the data.)
#NPOINTS     : 4096     Number of data points in the spectrum (This can be zero for configuration only files)
#NCOLUMNS    : 2     Number of data columns in the spectrum (This can be zero for configuration only files)
#XUNITS      : eV
#YUNITS      : COUNTS
#DATATYPE    : YY
#XPERCHAN    : 7.862, 7.881   eV per channel (separate by commas if more than one detector)
#OFFSET      : 18.5, -22.4         eV of first channel  (separate by commas if more than one detector
#SIGNALTYPE  : XRF
#YP_TEMP     : 2.46
#LIVETIME    : 8.55607, 8.56225   seconds (separate by commas if more than one detector)
#REALTIME    : 10, 10.0   seconds (separate by commas if more than one detector)
#SPECTRUM    : start of spectrum data
0, 0
0, 0
0, 0
0, 0
0, 0
0, 0
0, 0
1, 0
1, 2
1, 1
0, 4
37, 52
72, 56
3, 1
1, 4
103, 130
436, 413
105, 91
3, 6
1, 1
1, 2
10, 10
4, 1
5, 11
34, 41
51, 51
34, 24
12, 18
2, 5
5, 3
1, 4
1, 1
4, 3
15, 27
20, 35
7, 10
6, 3
8, 6
6, 15
4, 10
5, 4
11, 10
15, 23
14, 15
9, 6
10, 3
16, 4
11, 15
10, 16
18, 30
9, 37
16, 10
24, 17
34, 48
61, 77
17, 22
36, 53
486, 619
2148, 2466
1542, 1500
201, 131
15, 32
22, 32
94, 135
356, 371
218, 216
33, 20
14, 13
21, 14
10, 12
9, 7
6, 7
5, 7
1, 7
6, 2
5, 5
6, 7
7, 3
6, 7
1, 6
6, 4
3, 6
6, 2
7, 5
4, 6
8, 3
3, 4
2, 0
6, 8
1, 4
4, 2
3, 2
1, 7
1, 9
1, 13
1, 3
3, 7
2, 2
1, 3
4, 2
4, 2
2, 0
4, 5
7, 2
6, 2
3, 4
2, 1
3, 2
4, 0
2, 2
0, 5
2, 4
2, 3
8, 4
1, 4
2, 5
1, 3
2, 3
2, 1
2, 1
1, 2
1, 2
4, 2
2, 4
0, 2
1, 1
0, 1
2, 1
1, 4
2, 0
0, 1
3, 0
1, 1
3, 1
1, 2
1, 0
0, 0
0, 1
3, 1
1, 1
1, 1
0, 0
2, 0
0, 0
0, 0
0, 0
1, 0
1, 0
0, 1
2, 0
0, 1
1, 0
0, 0
1, 1
0, 1
0, 0
1, 1
0, 1
0, 1
0, 1
0, 0
0, 0
0, 0
0, 1
0, 0
2, 0
1, 0
0, 1
1, 0
1, 0
0, 0
1, 1
0, 0
0, 1
0, 0
0, 1
0, 0
0, 0
0, 1
0, 0
0, 0
0, 0
0, 0
1, 0
0, 0
0, 0
0, 0
0, 0
0, 0
1, 0
0, 0
1, 0
1, 0
0, 1
0, 0
0, 0
0, 0
0, 0
0, 0
0, 0
0, 0
0, 0
0, 0
0, 0
0, 0
0, 1
0, 0
0, 0
0, 0
0, 0
0, 0
0, 0
0, 0
0, 0
0, 0
0, 0
0, 0
0, 0
0, 0
0, 0
0, 0
0, 0
0, 0
0, 0
0, 0
0, 0
0, 0
0, 0
0, 0
0, 0
0, 0
0, 0
0, 0
0, 0
0, 0
0, 0
0, 0
0, 0
0, 0
0, 0
0, 0
0, 0
0, 0
0, 0
0, 0
0, 0
0, 0
0, 0
0, 0
0, 0
0, 0
0, 0
0, 0
0, 0
0, 0
0, 0
0, 0
0, 0
0, 0
0, 0
0, 0
0, 0
0, 0
0, 0
0, 0
0, 0
0, 0
0, 0
0, 0
0, 0
0, 0
0, 0
0, 0
0, 0
0, 0
0, 0
0, 0
0, 0
0, 0
0, 0
0, 0
0, 0
0, 0
0, 0
0, 0
0, 0
0, 0
0, 0
0, 0
0, 0
0, 0
0, 0
0, 0
0, 0
#ENDOFDATA     end of spectrum data