Folder: data-repository/host_upload/06-09-2024/ps_0852/dump3 (part 62)

File: ps__0852shot_2555.msa
#FORMAT      : EMSA/MAS spectral data file
#VERSION     : TC202v2.0 PIXL
#TITLE       : N/A
#DATE        :       Date in the format DD-MMM-YYYY, for example 07-JUL-2010
#TIME        :             The time of day at which the spectrum was recorded, in 24-hour format
#OWNER       : PIXL Flight Model       (PIXL will use this to indicate which instrument took the data.)
#NPOINTS     : 4096     Number of data points in the spectrum (This can be zero for configuration only files)
#NCOLUMNS    : 2     Number of data columns in the spectrum (This can be zero for configuration only files)
#XUNITS      : eV
#YUNITS      : COUNTS
#DATATYPE    : YY
#XPERCHAN    : 7.862, 7.881   eV per channel (separate by commas if more than one detector)
#OFFSET      : 18.5, -22.4         eV of first channel  (separate by commas if more than one detector
#SIGNALTYPE  : XRF
#YP_TEMP     : 2.492
#LIVETIME    : 8.54617, 8.56287   seconds (separate by commas if more than one detector)
#REALTIME    : 10, 10.0   seconds (separate by commas if more than one detector)
#SPECTRUM    : start of spectrum data
0, 0
0, 0
0, 0
0, 0
0, 0
0, 0
0, 0
0, 0
1, 0
1, 0
1, 3
46, 36
60, 56
4, 3
2, 3
102, 94
449, 430
87, 95
4, 2
1, 0
2, 2
2, 2
4, 2
1, 5
24, 30
25, 25
16, 9
10, 8
4, 2
3, 1
2, 2
2, 0
6, 1
29, 13
27, 20
9, 5
3, 4
5, 4
4, 4
1, 1
0, 2
10, 10
12, 7
7, 7
4, 6
2, 6
5, 4
6, 14
4, 53
8, 38
13, 22
15, 11
40, 11
49, 35
79, 55
43, 18
29, 24
474, 579
2263, 2198
1554, 1291
206, 149
12, 15
19, 16
100, 101
344, 300
233, 187
25, 25
17, 7
25, 14
7, 5
5, 3
2, 3
3, 4
3, 7
4, 10
3, 6
7, 3
4, 3
4, 4
5, 3
9, 4
18, 2
19, 4
6, 5
3, 5
7, 4
6, 3
2, 4
1, 5
5, 2
4, 2
4, 2
1, 3
6, 1
8, 4
7, 4
4, 2
5, 1
3, 3
3, 3
3, 1
4, 2
0, 3
2, 3
2, 3
2, 3
2, 0
0, 4
0, 4
1, 2
2, 1
3, 3
2, 1
2, 2
1, 2
4, 6
5, 5
1, 2
3, 2
0, 2
3, 1
1, 2
3, 2
0, 0
0, 1
0, 1
1, 3
3, 1
2, 0
2, 0
0, 0
0, 0
1, 0
2, 2
0, 1
0, 0
0, 1
0, 0
1, 1
1, 0
0, 0
0, 2
1, 0
0, 1
0, 1
0, 0
0, 0
0, 0
3, 1
0, 0
1, 2
1, 0
0, 0
0, 0
0, 0
0, 2
0, 0
0, 0
0, 1
0, 0
1, 0
0, 0
0, 0
1, 1
0, 0
0, 0
0, 0
0, 0
0, 0
0, 0
1, 0
0, 0
0, 0
0, 1
0, 0
0, 0
0, 0
0, 0
1, 0
0, 0
0, 0
0, 0
0, 0
0, 0
0, 0
0, 0
0, 0
0, 0
0, 0
0, 0
0, 0
1, 0
0, 1
0, 1
0, 0
0, 0
0, 0
0, 0
0, 0
0, 0
0, 0
0, 0
0, 0
0, 0
0, 1
0, 0
0, 0
0, 0
0, 0
0, 0
0, 0
0, 0
0, 0
0, 0
0, 0
0, 0
0, 0
0, 0
0, 0
0, 0
0, 0
0, 0
0, 0
0, 0
0, 0
0, 0
0, 0
0, 0
0, 0
0, 0
0, 0
0, 0
0, 0
0, 0
0, 0
0, 0
0, 0
0, 0
0, 0
0, 0
0, 0
0, 0
0, 0
0, 0
0, 0
0, 0
0, 0
0, 0
0, 0
0, 0
0, 0
0, 0
0, 0
0, 0
0, 0
0, 0
0, 0
0, 0
0, 0
0, 0
0, 0
0, 0
0, 0
0, 0
0, 0
0, 0
0, 0
0, 0
0, 0
0, 0
0, 0
0, 0
0, 0
0, 0
0, 0
0, 0
0, 0
0, 0
0, 0
0, 0
0, 0
0, 0
0, 0
0, 0
0, 0
0, 0
0, 0
0, 0
0, 0
0, 0
0, 0
0, 0
0, 0
0, 0
#ENDOFDATA     end of spectrum data

File: ps__0852shot_2556.msa
#FORMAT      : EMSA/MAS spectral data file
#VERSION     : TC202v2.0 PIXL
#TITLE       : N/A
#DATE        :       Date in the format DD-MMM-YYYY, for example 07-JUL-2010
#TIME        :             The time of day at which the spectrum was recorded, in 24-hour format
#OWNER       : PIXL Flight Model       (PIXL will use this to indicate which instrument took the data.)
#NPOINTS     : 4096     Number of data points in the spectrum (This can be zero for configuration only files)
#NCOLUMNS    : 2     Number of data columns in the spectrum (This can be zero for configuration only files)
#XUNITS      : eV
#YUNITS      : COUNTS
#DATATYPE    : YY
#XPERCHAN    : 7.862, 7.881   eV per channel (separate by commas if more than one detector)
#OFFSET      : 18.5, -22.4         eV of first channel  (separate by commas if more than one detector
#SIGNALTYPE  : XRF
#YP_TEMP     : 2.267
#LIVETIME    : 8.5562, 8.56505   seconds (separate by commas if more than one detector)
#REALTIME    : 10, 10.0   seconds (separate by commas if more than one detector)
#SPECTRUM    : start of spectrum data
0, 0
0, 0
0, 0
0, 0
0, 0
0, 0
0, 0
0, 0
1, 1
3, 0
5, 0
56, 48
60, 66
7, 5
5, 6
91, 116
439, 447
104, 82
10, 4
5, 1
2, 1
4, 3
1, 2
11, 8
48, 65
40, 86
25, 26
10, 12
5, 9
2, 1
2, 4
2, 4
3, 2
21, 14
27, 19
4, 0
2, 13
3, 2
9, 5
5, 3
3, 2
16, 13
21, 19
17, 17
4, 2
5, 7
3, 7
7, 34
12, 137
10, 78
21, 13
50, 6
115, 9
81, 39
67, 48
26, 15
28, 41
498, 542
2358, 2322
1646, 1346
204, 129
17, 20
18, 16
80, 110
334, 349
250, 205
41, 17
58, 2
62, 15
18, 4
5, 1
1, 11
0, 1
7, 6
1, 4
5, 5
9, 5
2, 2
7, 7
5, 6
5, 2
4, 2
4, 6
1, 3
4, 8
2, 3
3, 3
5, 2
2, 7
4, 2
2, 3
4, 3
10, 1
14, 4
14, 2
9, 5
2, 7
2, 2
2, 2
2, 1
7, 1
4, 2
0, 1
1, 2
3, 3
5, 2
1, 4
1, 3
7, 2
2, 4
1, 4
6, 3
1, 2
0, 1
0, 1
2, 1
4, 4
2, 2
3, 0
2, 1
1, 1
1, 2
1, 0
3, 1
4, 0
0, 2
1, 0
0, 3
3, 0
0, 0
0, 1
1, 2
1, 1
1, 1
1, 0
0, 0
0, 1
0, 0
0, 0
0, 0
2, 1
0, 0
1, 0
1, 2
0, 0
1, 1
2, 0
0, 2
0, 0
1, 0
0, 0
0, 0
2, 0
0, 0
0, 0
0, 0
0, 0
0, 1
1, 0
0, 0
0, 0
0, 0
0, 0
1, 0
1, 0
0, 0
0, 0
0, 0
1, 1
2, 0
0, 1
0, 0
1, 0
0, 0
0, 0
0, 0
1, 0
0, 0
0, 0
0, 0
0, 0
0, 0
0, 0
1, 0
0, 0
0, 0
0, 0
0, 0
0, 0
0, 0
0, 0
0, 0
0, 0
1, 0
0, 0
0, 0
1, 0
0, 0
0, 1
0, 0
0, 0
0, 0
0, 0
0, 0
0, 0
0, 0
0, 0
0, 0
0, 0
0, 0
0, 0
0, 0
0, 0
0, 0
0, 0
0, 0
0, 0
0, 0
0, 0
0, 0
0, 0
0, 0
0, 0
0, 0
0, 0
0, 0
0, 0
0, 0
0, 0
0, 0
0, 0
0, 0
0, 0
0, 0
0, 0
0, 0
0, 0
0, 0
0, 0
0, 0
0, 0
0, 0
0, 0
0, 0
0, 0
0, 0
0, 0
0, 0
0, 0
0, 0
0, 0
0, 0
0, 0
0, 0
0, 0
0, 0
0, 0
0, 0
0, 0
0, 0
0, 0
0, 0
0, 0
0, 0
0, 0
0, 0
0, 0
0, 0
0, 0
0, 0
0, 0
0, 0
0, 0
0, 0
0, 0
0, 0
0, 0
0, 0
0, 0
0, 0
0, 0
0, 0
0, 0
0, 0
0, 0
0, 0
0, 0
0, 0
0, 0
0, 0
0, 0
0, 0
0, 0
0, 0
#ENDOFDATA     end of spectrum data

File: ps__0852shot_2557.msa
#FORMAT      : EMSA/MAS spectral data file
#VERSION     : TC202v2.0 PIXL
#TITLE       : N/A
#DATE        :       Date in the format DD-MMM-YYYY, for example 07-JUL-2010
#TIME        :             The time of day at which the spectrum was recorded, in 24-hour format
#OWNER       : PIXL Flight Model       (PIXL will use this to indicate which instrument took the data.)
#NPOINTS     : 4096     Number of data points in the spectrum (This can be zero for configuration only files)
#NCOLUMNS    : 2     Number of data columns in the spectrum (This can be zero for configuration only files)
#XUNITS      : eV
#YUNITS      : COUNTS
#DATATYPE    : YY
#XPERCHAN    : 7.862, 7.881   eV per channel (separate by commas if more than one detector)
#OFFSET      : 18.5, -22.4         eV of first channel  (separate by commas if more than one detector
#SIGNALTYPE  : XRF
#YP_TEMP     : 2.332
#LIVETIME    : 8.55553, 8.54614   seconds (separate by commas if more than one detector)
#REALTIME    : 10, 10.0   seconds (separate by commas if more than one detector)
#SPECTRUM    : start of spectrum data
0, 0
0, 0
0, 0
0, 0
0, 0
0, 0
0, 0
0, 0
0, 1
0, 2
1, 5
50, 50
58, 59
5, 6
2, 4
98, 110
422, 449
124, 102
3, 5
3, 4
2, 1
3, 5
1, 1
8, 7
39, 98
59, 144
30, 43
13, 26
2, 0
4, 3
1, 1
3, 2
1, 5
15, 9
13, 11
3, 2
3, 4
2, 5
1, 5
2, 4
16, 6
38, 17
55, 21
11, 9
3, 6
1, 1
5, 3
9, 11
20, 39
23, 26
14, 17
24, 35
25, 68
53, 71
54, 52
23, 22
30, 49
502, 590
2115, 2539
1529, 1466
188, 153
13, 24
16, 27
104, 136
364, 367
212, 190
37, 31
24, 37
20, 33
4, 5
3, 4
4, 2
8, 5
7, 7
11, 5
5, 3
8, 8
4, 18
3, 8
4, 4
5, 3
3, 2
6, 4
4, 6
10, 6
9, 5
8, 4
5, 4
5, 11
2, 4
0, 3
5, 6
5, 6
11, 8
7, 2
1, 2
3, 4
4, 2
2, 3
3, 2
3, 2
5, 1
5, 1
1, 3
0, 6
1, 0
0, 3
2, 1
3, 5
6, 3
1, 3
3, 6
1, 2
3, 2
1, 1
2, 3
2, 7
1, 5
1, 1
0, 3
3, 0
1, 1
2, 3
2, 1
1, 2
1, 2
2, 0
1, 1
1, 2
1, 2
2, 0
3, 0
1, 1
1, 1
2, 0
0, 1
0, 0
1, 0
1, 1
1, 0
1, 2
2, 0
1, 1
0, 0
0, 0
1, 0
0, 1
1, 1
0, 0
0, 0
1, 0
0, 0
0, 1
1, 0
2, 1
0, 1
0, 0
1, 1
2, 0
0, 0
0, 0
1, 0
0, 0
0, 0
0, 0
0, 0
0, 0
1, 0
0, 0
0, 0
0, 0
0, 0
0, 0
0, 1
0, 1
0, 0
0, 0
0, 0
0, 0
0, 0
0, 1
0, 1
0, 0
0, 1
0, 1
0, 0
0, 0
0, 0
0, 0
0, 0
0, 0
0, 0
0, 0
0, 0
0, 0
1, 0
0, 0
0, 0
0, 0
0, 0
0, 0
1, 0
0, 0
0, 0
0, 0
0, 0
0, 0
0, 0
1, 0
0, 0
0, 0
0, 0
0, 0
0, 0
0, 0
0, 0
0, 0
0, 0
0, 0
0, 0
0, 0
0, 0
0, 0
0, 0
0, 0
0, 0
0, 0
0, 0
0, 0
0, 0
0, 0
0, 0
0, 0
0, 0
0, 0
0, 0
0, 0
0, 0
0, 0
0, 0
0, 0
0, 0
0, 0
0, 0
0, 0
0, 0
0, 0
0, 0
0, 0
0, 0
0, 0
0, 0
0, 0
0, 0
0, 0
0, 0
0, 0
0, 0
0, 0
0, 0
0, 0
0, 0
0, 0
0, 0
0, 0
0, 0
0, 0
0, 0
0, 0
0, 0
0, 0
0, 0
0, 0
0, 0
0, 0
0, 0
0, 0
0, 0
0, 0
0, 0
0, 0
0, 0
0, 0
0, 0
0, 0
0, 0
0, 0
0, 0
0, 0
0, 0
0, 0
0, 0
0, 0
0, 0
#ENDOFDATA     end of spectrum data

File: ps__0852shot_2558.msa
#FORMAT      : EMSA/MAS spectral data file
#VERSION     : TC202v2.0 PIXL
#TITLE       : N/A
#DATE        :       Date in the format DD-MMM-YYYY, for example 07-JUL-2010
#TIME        :             The time of day at which the spectrum was recorded, in 24-hour format
#OWNER       : PIXL Flight Model       (PIXL will use this to indicate which instrument took the data.)
#NPOINTS     : 4096     Number of data points in the spectrum (This can be zero for configuration only files)
#NCOLUMNS    : 2     Number of data columns in the spectrum (This can be zero for configuration only files)
#XUNITS      : eV
#YUNITS      : COUNTS
#DATATYPE    : YY
#XPERCHAN    : 7.862, 7.881   eV per channel (separate by commas if more than one detector)
#OFFSET      : 18.5, -22.4         eV of first channel  (separate by commas if more than one detector
#SIGNALTYPE  : XRF
#YP_TEMP     : 2.332
#LIVETIME    : 8.54696, 8.54465   seconds (separate by commas if more than one detector)
#REALTIME    : 10, 10.0   seconds (separate by commas if more than one detector)
#SPECTRUM    : start of spectrum data
0, 0
0, 0
0, 0
0, 0
0, 0
0, 0
0, 0
0, 1
2, 0
2, 1
4, 2
56, 49
73, 63
6, 4
4, 7
81, 95
403, 458
100, 85
2, 3
1, 1
1, 0
7, 2
3, 0
7, 10
40, 24
67, 31
16, 31
11, 21
2, 4
2, 0
0, 1
1, 2
3, 1
14, 14
11, 10
8, 5
3, 2
0, 5
4, 6
1, 5
2, 7
15, 27
24, 27
11, 8
1, 4
4, 3
3, 5
13, 3
26, 7
22, 6
11, 23
7, 88
5, 142
41, 75
57, 50
23, 21
28, 29
446, 606
2200, 2456
1536, 1396
212, 137
24, 24
24, 21
112, 138
347, 359
242, 211
24, 50
8, 49
19, 45
8, 9
2, 1
7, 2
7, 4
20, 4
4, 6
7, 4
7, 4
4, 22
4, 15
6, 9
4, 5
3, 4
1, 4
8, 4
15, 4
20, 5
5, 4
5, 3
4, 1
0, 3
3, 5
1, 7
3, 12
2, 10
2, 1
6, 2
3, 3
9, 2
4, 2
0, 5
1, 1
0, 2
2, 5
3, 1
3, 5
1, 1
4, 0
2, 1
10, 1
1, 1
2, 1
4, 1
0, 1
0, 3
1, 1
4, 2
1, 7
1, 2
4, 1
0, 3
2, 1
0, 5
1, 2
2, 3
1, 1
2, 1
0, 1
1, 0
1, 1
1, 0
2, 0
1, 1
2, 0
1, 0
2, 1
1, 1
1, 1
0, 0
2, 0
0, 0
0, 0
1, 0
0, 4
1, 0
0, 1
1, 2
0, 0
1, 0
0, 0
1, 1
1, 1
0, 1
0, 1
1, 0
0, 0
0, 2
0, 0
0, 1
0, 0
0, 0
0, 0
0, 1
0, 0
0, 1
0, 0
0, 0
0, 0
1, 0
0, 1
0, 0
1, 1
0, 1
0, 1
0, 0
0, 0
1, 0
0, 2
0, 1
0, 0
0, 0
0, 0
0, 0
0, 0
0, 0
1, 0
0, 0
0, 0
0, 0
0, 0
0, 0
0, 0
0, 0
0, 0
0, 0
0, 0
0, 0
0, 0
0, 0
0, 0
0, 0
0, 0
0, 0
0, 0
0, 0
0, 0
0, 0
0, 0
0, 0
0, 0
0, 0
0, 0
0, 0
0, 0
0, 0
0, 0
0, 0
0, 0
1, 0
0, 0
0, 0
0, 0
0, 0
0, 0
0, 0
0, 0
0, 0
0, 0
0, 0
0, 0
0, 0
0, 0
0, 0
0, 0
0, 0
0, 0
0, 0
0, 0
0, 0
0, 0
0, 0
0, 0
0, 0
0, 0
0, 0
0, 0
0, 0
0, 0
0, 0
0, 0
0, 0
0, 0
0, 0
0, 0
0, 0
0, 0
0, 0
0, 0
0, 0
0, 0
0, 0
0, 0
0, 0
0, 0
0, 0
0, 0
0, 0
0, 0
0, 0
0, 0
0, 0
0, 0
0, 0
0, 0
0, 0
0, 0
0, 0
0, 0
0, 0
0, 0
0, 0
0, 0
0, 0
0, 0
0, 0
0, 0
0, 0
0, 0
0, 0
0, 0
0, 0
0, 0
0, 0
0, 0
0, 0
#ENDOFDATA     end of spectrum data

File: ps__0852shot_2559.msa
#FORMAT      : EMSA/MAS spectral data file
#VERSION     : TC202v2.0 PIXL
#TITLE       : N/A
#DATE        :       Date in the format DD-MMM-YYYY, for example 07-JUL-2010
#TIME        :             The time of day at which the spectrum was recorded, in 24-hour format
#OWNER       : PIXL Flight Model       (PIXL will use this to indicate which instrument took the data.)
#NPOINTS     : 4096     Number of data points in the spectrum (This can be zero for configuration only files)
#NCOLUMNS    : 2     Number of data columns in the spectrum (This can be zero for configuration only files)
#XUNITS      : eV
#YUNITS      : COUNTS
#DATATYPE    : YY
#XPERCHAN    : 7.862, 7.881   eV per channel (separate by commas if more than one detector)
#OFFSET      : 18.5, -22.4         eV of first channel  (separate by commas if more than one detector
#SIGNALTYPE  : XRF
#YP_TEMP     : 2.011
#LIVETIME    : 8.55554, 8.54542   seconds (separate by commas if more than one detector)
#REALTIME    : 10, 10.0   seconds (separate by commas if more than one detector)
#SPECTRUM    : start of spectrum data
0, 0
0, 0
0, 0
0, 0
0, 0
0, 0
0, 0
0, 0
2, 1
3, 0
2, 0
51, 37
80, 59
6, 7
6, 4
106, 97
456, 428
118, 100
9, 5
1, 0
2, 0
4, 3
3, 0
4, 6
136, 20
148, 30
39, 23
17, 17
6, 1
0, 0
3, 6
3, 1
7, 4
21, 9
34, 11
31, 3
12, 2
5, 5
7, 3
5, 5
0, 8
15, 13
14, 26
14, 14
4, 5
9, 5
6, 4
7, 8
25, 10
29, 11
15, 9
10, 42
11, 88
34, 87
70, 61
29, 22
43, 33
534, 520
2392, 2132
1705, 1348
200, 105
30, 13
33, 24
110, 136
311, 350
238, 179
27, 37
11, 20
14, 15
14, 11
2, 3
9, 7
9, 11
12, 4
12, 4
8, 8
5, 4
3, 9
3, 12
5, 5
2, 2
2, 6
3, 3
5, 2
17, 3
18, 5
5, 5
10, 7
8, 0
4, 0
6, 5
4, 3
1, 6
4, 8
4, 9
8, 3
7, 4
5, 2
5, 1
0, 4
4, 2
5, 6
4, 1
0, 3
4, 1
5, 7
1, 4
5, 3
3, 0
3, 1
1, 1
1, 3
4, 3
1, 1
1, 4
1, 3
1, 3
4, 0
1, 5
3, 1
4, 0
2, 2
0, 0
2, 0
1, 1
1, 0
1, 1
2, 1
0, 1
2, 2
1, 0
3, 0
2, 2
0, 0
0, 3
0, 1
2, 2
1, 1
0, 1
0, 0
0, 0
0, 0
1, 0
2, 0
2, 0
0, 0
0, 0
1, 0
0, 1
0, 0
0, 0
0, 0
1, 1
1, 0
0, 0
0, 1
0, 2
0, 0
0, 0
2, 0
2, 1
0, 0
0, 0
0, 0
0, 0
0, 0
0, 2
0, 1
0, 0
0, 1
1, 1
1, 0
0, 0
0, 1
0, 0
0, 0
0, 0
0, 0
0, 0
0, 0
0, 0
0, 0
0, 0
0, 0
0, 0
0, 0
0, 0
0, 0
0, 0
0, 0
0, 0
0, 0
0, 0
0, 0
0, 1
0, 1
0, 0
0, 0
0, 0
0, 1
0, 0
0, 0
0, 0
0, 0
0, 0
0, 0
1, 0
0, 0
0, 0
0, 0
0, 0
0, 0
0, 0
0, 0
0, 0
0, 0
0, 0
0, 0
0, 0
0, 0
0, 0
0, 0
0, 0
0, 0
0, 0
0, 0
0, 0
0, 0
0, 0
0, 0
0, 0
0, 0
0, 0
0, 0
0, 0
0, 0
0, 0
0, 0
0, 0
0, 0
0, 0
0, 0
0, 0
0, 0
0, 0
0, 1
0, 0
0, 0
0, 0
0, 0
0, 0
0, 0
0, 0
0, 0
0, 0
0, 0
0, 0
0, 0
0, 0
0, 0
0, 0
0, 0
0, 0
0, 0
0, 0
0, 0
0, 0
0, 0
0, 0
0, 0
0, 0
0, 0
0, 0
0, 0
0, 0
0, 0
0, 0
0, 0
0, 0
0, 0
0, 0
0, 0
0, 0
0, 0
0, 0
0, 0
0, 0
0, 0
0, 0
0, 0
0, 0
0, 0
0, 0
0, 0
#ENDOFDATA     end of spectrum data

File: ps__0852shot_2560.msa
#FORMAT      : EMSA/MAS spectral data file
#VERSION     : TC202v2.0 PIXL
#TITLE       : N/A
#DATE        :       Date in the format DD-MMM-YYYY, for example 07-JUL-2010
#TIME        :             The time of day at which the spectrum was recorded, in 24-hour format
#OWNER       : PIXL Flight Model       (PIXL will use this to indicate which instrument took the data.)
#NPOINTS     : 4096     Number of data points in the spectrum (This can be zero for configuration only files)
#NCOLUMNS    : 2     Number of data columns in the spectrum (This can be zero for configuration only files)
#XUNITS      : eV
#YUNITS      : COUNTS
#DATATYPE    : YY
#XPERCHAN    : 7.862, 7.881   eV per channel (separate by commas if more than one detector)
#OFFSET      : 18.5, -22.4         eV of first channel  (separate by commas if more than one detector
#SIGNALTYPE  : XRF
#YP_TEMP     : 2.043
#LIVETIME    : 8.54258, 8.57455   seconds (separate by commas if more than one detector)
#REALTIME    : 10, 10.0   seconds (separate by commas if more than one detector)
#SPECTRUM    : start of spectrum data
0, 0
0, 0
0, 0
0, 0
0, 0
0, 0
0, 0
1, 0
0, 1
2, 2
2, 3
51, 43
86, 59
5, 3
6, 5
110, 106
483, 422
91, 108
6, 6
5, 4
4, 0
9, 2
4, 10
7, 23
56, 34
82, 39
43, 28
15, 17
0, 2
1, 3
1, 5
2, 2
12, 10
22, 15
25, 23
19, 6
12, 7
8, 4
6, 4
4, 6
9, 6
12, 16
16, 24
14, 16
13, 4
11, 9
7, 15
12, 9
16, 9
18, 19
20, 10
21, 8
11, 17
47, 40
58, 63
32, 18
39, 48
525, 542
2373, 2259
1578, 1352
214, 134
24, 11
28, 26
116, 139
322, 369
222, 183
27, 19
11, 7
24, 13
12, 13
5, 7
4, 9
6, 5
7, 12
7, 12
11, 10
3, 3
6, 2
4, 9
5, 2
4, 5
2, 8
6, 2
7, 3
6, 4
11, 4
4, 4
13, 6
6, 4
7, 4
5, 3
2, 5
3, 3
6, 3
2, 1
3, 2
5, 4
2, 5
2, 4
7, 3
4, 0
6, 4
2, 2
4, 3
2, 2
2, 4
4, 3
3, 2
2, 0
3, 4
4, 0
1, 2
3, 2
3, 1
2, 1
3, 4
4, 3
2, 3
5, 2
1, 1
0, 0
3, 1
4, 1
3, 3
5, 0
2, 0
3, 1
2, 0
0, 0
1, 2
5, 0
2, 0
3, 2
0, 2
0, 0
0, 0
1, 1
3, 0
0, 1
0, 2
0, 2
1, 1
1, 0
0, 2
0, 2
1, 0
0, 0
0, 1
0, 2
0, 0
1, 0
0, 1
2, 1
0, 0
0, 1
0, 0
1, 2
1, 0
0, 0
0, 0
0, 2
0, 0
1, 1
0, 0
0, 2
1, 0
0, 0
2, 0
1, 1
0, 0
0, 1
1, 0
0, 0
0, 0
0, 0
1, 0
0, 0
0, 0
0, 0
1, 0
0, 2
1, 0
0, 0
0, 0
2, 0
0, 0
0, 1
0, 0
0, 0
0, 0
0, 0
0, 0
0, 0
0, 0
0, 0
0, 0
0, 0
0, 0
0, 0
0, 0
0, 0
0, 0
0, 0
0, 0
0, 0
0, 0
0, 0
0, 0
0, 0
0, 0
0, 0
0, 0
0, 0
0, 0
0, 0
0, 0
0, 0
0, 0
0, 0
0, 0
0, 0
0, 0
0, 0
0, 0
0, 0
0, 0
0, 0
0, 0
0, 0
0, 0
0, 0
0, 0
0, 0
0, 0
0, 0
0, 0
0, 0
0, 0
0, 0
0, 0
0, 0
0, 0
0, 0
0, 0
0, 0
0, 0
0, 0
0, 0
0, 0
0, 0
0, 0
0, 0
0, 0
0, 0
0, 0
0, 0
0, 0
0, 0
0, 0
0, 0
0, 0
0, 0
0, 0
0, 0
0, 0
0, 0
0, 0
0, 0
0, 0
0, 0
0, 0
0, 0
0, 0
0, 0
0, 0
0, 0
0, 0
0, 0
0, 0
0, 0
0, 0
0, 0
0, 0
0, 0
0, 0
0, 0
0, 0
0, 0
0, 0
0, 0
0, 0
0, 0
0, 0
0, 0
#ENDOFDATA     end of spectrum data

File: ps__0852shot_2561.msa
#FORMAT      : EMSA/MAS spectral data file
#VERSION     : TC202v2.0 PIXL
#TITLE       : N/A
#DATE        :       Date in the format DD-MMM-YYYY, for example 07-JUL-2010
#TIME        :             The time of day at which the spectrum was recorded, in 24-hour format
#OWNER       : PIXL Flight Model       (PIXL will use this to indicate which instrument took the data.)
#NPOINTS     : 4096     Number of data points in the spectrum (This can be zero for configuration only files)
#NCOLUMNS    : 2     Number of data columns in the spectrum (This can be zero for configuration only files)
#XUNITS      : eV
#YUNITS      : COUNTS
#DATATYPE    : YY
#XPERCHAN    : 7.862, 7.881   eV per channel (separate by commas if more than one detector)
#OFFSET      : 18.5, -22.4         eV of first channel  (separate by commas if more than one detector
#SIGNALTYPE  : XRF
#YP_TEMP     : 2.075
#LIVETIME    : 8.54363, 8.56216   seconds (separate by commas if more than one detector)
#REALTIME    : 10, 10.0   seconds (separate by commas if more than one detector)
#SPECTRUM    : start of spectrum data
0, 0
0, 0
0, 0
0, 0
0, 0
0, 0
0, 0
0, 0
1, 0
1, 1
1, 3
34, 50
47, 50
4, 5
2, 7
96, 100
422, 481
109, 117
9, 8
5, 4
1, 4
3, 6
3, 16
11, 39
54, 52
40, 48
27, 17
13, 12
6, 6
4, 3
4, 2
3, 2
9, 2
12, 9
16, 14
4, 6
2, 2
5, 6
6, 4
3, 6
5, 7
8, 13
11, 15
30, 7
21, 7
8, 22
6, 16
4, 8
9, 9
15, 18
32, 10
19, 9
7, 6
32, 40
68, 61
22, 27
27, 64
429, 667
2182, 2412
1554, 1474
191, 143
23, 18
25, 23
96, 142
318, 389
224, 190
29, 17
8, 10
12, 11
18, 9
5, 5
1, 2
1, 5
6, 8
4, 8
2, 5
2, 5
3, 4
4, 4
3, 3
4, 7
8, 13
20, 6
15, 5
8, 3
3, 7
2, 3
8, 4
12, 6
7, 6
4, 4
3, 3
2, 5
2, 4
1, 4
3, 3
3, 2
1, 1
9, 1
6, 2
4, 2
3, 1
2, 4
2, 0
3, 2
1, 2
1, 2
5, 1
3, 4
3, 2
2, 2
1, 3
2, 2
3, 1
3, 1
2, 2
4, 6
6, 3
2, 3
1, 0
3, 1
0, 3
1, 0
1, 4
1, 0
3, 1
0, 1
0, 1
2, 1
1, 1
0, 1
1, 1
0, 1
0, 1
0, 1
0, 2
1, 0
1, 1
1, 2
0, 1
0, 2
0, 2
2, 0
1, 1
0, 1
0, 3
1, 0
1, 0
0, 0
1, 0
0, 0
0, 0
1, 0
1, 0
0, 0
1, 1
0, 1
1, 0
0, 0
0, 0
0, 0
0, 2
0, 0
0, 0
0, 0
0, 0
0, 0
0, 0
0, 0
0, 0
0, 0
1, 0
0, 0
0, 0
0, 1
0, 0
0, 0
0, 0
1, 0
0, 0
0, 0
0, 1
0, 0
1, 0
1, 0
0, 0
0, 0
0, 0
0, 0
0, 0
1, 0
0, 0
0, 0
0, 0
0, 0
0, 0
0, 0
0, 0
0, 0
0, 0
0, 0
0, 0
0, 0
0, 0
0, 0
0, 0
0, 0
0, 0
0, 0
0, 0
0, 0
0, 0
0, 0
0, 0
0, 0
0, 0
0, 0
0, 0
0, 0
0, 0
0, 0
0, 0
0, 0
0, 0
0, 0
0, 0
0, 0
0, 0
0, 0
0, 0
0, 0
0, 0
0, 0
0, 0
0, 0
0, 0
0, 0
0, 0
0, 0
0, 0
0, 0
0, 0
0, 0
0, 0
0, 0
0, 0
0, 0
0, 0
0, 0
0, 0
0, 0
0, 0
0, 0
0, 0
0, 0
0, 0
0, 0
0, 0
0, 0
0, 0
0, 0
0, 0
0, 0
0, 0
0, 0
0, 0
0, 0
0, 0
0, 0
0, 0
0, 0
0, 0
0, 0
0, 0
0, 0
0, 0
0, 0
0, 0
0, 0
0, 0
0, 0
0, 0
0, 0
0, 0
0, 0
0, 0
0, 0
0, 0
0, 0
0, 0
0, 0
0, 0
0, 0
0, 0
#ENDOFDATA     end of spectrum data

File: ps__0852shot_2562.msa
#FORMAT      : EMSA/MAS spectral data file
#VERSION     : TC202v2.0 PIXL
#TITLE       : N/A
#DATE        :       Date in the format DD-MMM-YYYY, for example 07-JUL-2010
#TIME        :             The time of day at which the spectrum was recorded, in 24-hour format
#OWNER       : PIXL Flight Model       (PIXL will use this to indicate which instrument took the data.)
#NPOINTS     : 4096     Number of data points in the spectrum (This can be zero for configuration only files)
#NCOLUMNS    : 2     Number of data columns in the spectrum (This can be zero for configuration only files)
#XUNITS      : eV
#YUNITS      : COUNTS
#DATATYPE    : YY
#XPERCHAN    : 7.862, 7.881   eV per channel (separate by commas if more than one detector)
#OFFSET      : 18.5, -22.4         eV of first channel  (separate by commas if more than one detector
#SIGNALTYPE  : XRF
#YP_TEMP     : 2.075
#LIVETIME    : 8.5179, 8.52752   seconds (separate by commas if more than one detector)
#REALTIME    : 10, 10.0   seconds (separate by commas if more than one detector)
#SPECTRUM    : start of spectrum data
0, 0
0, 0
0, 0
0, 0
0, 0
0, 0
0, 0
0, 1
2, 0
1, 3
1, 3
38, 45
53, 53
5, 7
11, 11
97, 105
475, 482
117, 108
15, 9
14, 9
5, 5
10, 8
7, 5
14, 14
68, 62
49, 65
28, 23
16, 23
6, 5
3, 7
19, 18
8, 7
4, 3
35, 37
48, 39
14, 8
9, 7
11, 10
3, 4
5, 1
8, 8
25, 18
64, 16
53, 6
14, 9
11, 7
6, 5
2, 7
13, 8
20, 7
36, 9
33, 7
11, 5
40, 38
59, 50
29, 21
35, 69
457, 665
2185, 2341
1578, 1342
166, 109
6, 17
27, 24
88, 139
316, 345
237, 194
30, 23
9, 8
18, 20
10, 4
10, 5
1, 2
4, 4
6, 5
10, 15
3, 4
6, 3
2, 2
2, 6
6, 6
4, 12
15, 31
24, 20
29, 8
11, 3
4, 1
1, 1
4, 3
3, 2
6, 8
1, 2
0, 2
1, 3
5, 4
4, 3
1, 2
6, 3
4, 5
2, 4
4, 2
15, 4
7, 7
2, 1
4, 4
2, 6
7, 7
1, 3
3, 2
2, 2
2, 4
5, 1
1, 1
1, 5
3, 2
1, 3
3, 5
3, 1
5, 3
2, 1
0, 3
2, 0
6, 2
0, 2
1, 0
2, 0
0, 3
1, 0
1, 1
2, 0
5, 1
1, 0
1, 1
1, 1
1, 2
0, 0
2, 3
3, 1
0, 2
1, 0
1, 0
0, 0
0, 0
0, 0
1, 0
0, 1
0, 1
3, 1
1, 0
1, 1
0, 0
0, 1
0, 1
2, 0
0, 1
0, 0
0, 0
1, 0
0, 0
0, 0
0, 1
0, 0
0, 0
0, 0
0, 0
0, 0
0, 0
0, 0
1, 0
0, 0
0, 0
0, 0
1, 1
0, 0
1, 0
1, 0
0, 0
0, 0
0, 0
0, 0
0, 0
0, 0
0, 0
0, 0
0, 0
0, 0
0, 0
0, 0
0, 0
0, 0
0, 1
0, 0
0, 0
0, 0
0, 0
0, 0
1, 0
1, 0
0, 0
0, 0
0, 0
0, 0
0, 0
0, 0
0, 0
0, 0
0, 0
0, 0
0, 0
0, 0
0, 0
0, 0
0, 0
0, 0
0, 0
0, 0
0, 0
0, 0
0, 0
0, 0
0, 0
0, 0
0, 0
0, 0
0, 0
0, 0
0, 0
0, 0
0, 0
0, 0
0, 0
0, 0
0, 0
0, 0
0, 0
0, 0
0, 0
0, 0
0, 0
0, 0
0, 0
0, 0
0, 0
0, 0
0, 0
0, 0
0, 0
0, 0
0, 0
0, 0
0, 0
0, 0
0, 0
0, 0
0, 0
0, 0
0, 0
0, 0
0, 0
0, 0
0, 0
0, 0
0, 0
0, 0
0, 0
0, 0
0, 0
0, 0
0, 0
0, 0
0, 0
0, 0
0, 0
0, 0
0, 0
0, 0
0, 0
0, 0
0, 0
0, 0
0, 0
0, 0
0, 0
0, 0
0, 0
0, 0
0, 0
0, 0
0, 0
0, 0
0, 0
0, 0
0, 0
0, 0
0, 0
#ENDOFDATA     end of spectrum data

File: ps__0852shot_2563.msa
#FORMAT      : EMSA/MAS spectral data file
#VERSION     : TC202v2.0 PIXL
#TITLE       : N/A
#DATE        :       Date in the format DD-MMM-YYYY, for example 07-JUL-2010
#TIME        :             The time of day at which the spectrum was recorded, in 24-hour format
#OWNER       : PIXL Flight Model       (PIXL will use this to indicate which instrument took the data.)
#NPOINTS     : 4096     Number of data points in the spectrum (This can be zero for configuration only files)
#NCOLUMNS    : 2     Number of data columns in the spectrum (This can be zero for configuration only files)
#XUNITS      : eV
#YUNITS      : COUNTS
#DATATYPE    : YY
#XPERCHAN    : 7.862, 7.881   eV per channel (separate by commas if more than one detector)
#OFFSET      : 18.5, -22.4         eV of first channel  (separate by commas if more than one detector
#SIGNALTYPE  : XRF
#YP_TEMP     : 2.203
#LIVETIME    : 8.51465, 8.54811   seconds (separate by commas if more than one detector)
#REALTIME    : 10, 10.0   seconds (separate by commas if more than one detector)
#SPECTRUM    : start of spectrum data
0, 0
0, 0
0, 0
0, 0
0, 0
0, 0
0, 0
0, 1
0, 2
3, 0
3, 2
29, 37
47, 29
13, 7
29, 19
113, 97
447, 423
108, 93
18, 11
17, 9
1, 3
15, 5
5, 7
19, 21
85, 86
72, 77
50, 32
31, 19
5, 6
4, 5
23, 17
12, 18
3, 7
34, 29
44, 44
12, 17
14, 8
15, 16
8, 3
40, 6
57, 8
41, 27
33, 18
20, 11
10, 10
4, 11
10, 11
4, 7
9, 10
16, 15
20, 13
21, 14
47, 10
99, 34
75, 52
26, 16
39, 46
454, 505
2059, 2053
1407, 1232
163, 113
31, 12
20, 28
122, 110
316, 327
227, 189
37, 21
7, 7
18, 8
13, 7
1, 6
9, 6
3, 3
4, 7
8, 2
8, 11
8, 7
6, 6
11, 10
12, 6
11, 11
6, 13
12, 9
5, 5
2, 6
5, 5
2, 6
8, 0
3, 4
3, 5
5, 1
3, 4
7, 12
6, 8
6, 5
2, 1
3, 1
2, 1
5, 3
4, 1
4, 1
2, 2
1, 0
2, 3
0, 4
5, 5
2, 1
3, 5
9, 3
7, 1
3, 1
1, 1
3, 0
2, 3
1, 3
1, 3
3, 5
6, 5
2, 1
1, 0
1, 3
4, 1
1, 1
2, 2
2, 3
0, 0
1, 4
2, 1
1, 2
1, 0
1, 1
3, 3
2, 2
0, 2
3, 0
0, 1
0, 0
1, 2
0, 2
0, 1
0, 2
1, 1
0, 1
0, 1
1, 0
0, 0
0, 0
0, 0
1, 1
0, 0
0, 1
0, 0
0, 0
0, 0
0, 0
1, 1
2, 0
1, 0
0, 0
0, 0
2, 0
1, 0
0, 0
0, 0
0, 1
0, 0
0, 1
0, 0
0, 0
1, 0
0, 0
0, 0
1, 0
0, 0
0, 0
0, 0
0, 0
0, 0
1, 0
0, 0
0, 0
0, 0
1, 0
1, 0
0, 0
0, 0
0, 0
0, 0
0, 0
0, 0
0, 0
0, 0
0, 0
0, 0
0, 1
0, 0
0, 0
0, 0
0, 0
0, 0
0, 0
0, 0
0, 0
0, 0
0, 0
0, 0
0, 0
0, 0
0, 0
0, 0
0, 0
0, 0
0, 0
0, 0
0, 0
0, 0
0, 0
0, 0
0, 0
0, 0
0, 0
0, 0
0, 0
0, 0
0, 0
0, 0
0, 0
0, 0
0, 0
0, 0
0, 0
0, 0
0, 0
0, 0
0, 0
0, 0
0, 0
0, 0
0, 0
0, 0
0, 0
0, 0
0, 0
0, 0
0, 0
0, 0
0, 0
0, 0
0, 0
0, 0
0, 0
0, 0
0, 0
0, 0
0, 0
0, 0
0, 0
0, 0
0, 0
0, 0
0, 0
0, 0
0, 0
0, 0
0, 0
0, 0
0, 0
0, 0
0, 0
0, 0
0, 0
0, 0
0, 0
0, 0
0, 0
0, 0
0, 0
0, 0
0, 0
0, 0
0, 0
0, 0
0, 0
0, 0
0, 0
0, 0
0, 0
0, 0
0, 0
0, 0
0, 0
0, 0
0, 0
0, 0
#ENDOFDATA     end of spectrum data