Folder: data-repository/host_upload/06-09-2024/ps_0852/dump3 (part 5)

File: ps__0852shot_2036.msa
#FORMAT      : EMSA/MAS spectral data file
#VERSION     : TC202v2.0 PIXL
#TITLE       : N/A
#DATE        :       Date in the format DD-MMM-YYYY, for example 07-JUL-2010
#TIME        :             The time of day at which the spectrum was recorded, in 24-hour format
#OWNER       : PIXL Flight Model       (PIXL will use this to indicate which instrument took the data.)
#NPOINTS     : 4096     Number of data points in the spectrum (This can be zero for configuration only files)
#NCOLUMNS    : 2     Number of data columns in the spectrum (This can be zero for configuration only files)
#XUNITS      : eV
#YUNITS      : COUNTS
#DATATYPE    : YY
#XPERCHAN    : 7.862, 7.881   eV per channel (separate by commas if more than one detector)
#OFFSET      : 18.5, -22.4         eV of first channel  (separate by commas if more than one detector
#SIGNALTYPE  : XRF
#YP_TEMP     : 2.267
#LIVETIME    : 8.56248, 8.52   seconds (separate by commas if more than one detector)
#REALTIME    : 10, 10.0   seconds (separate by commas if more than one detector)
#SPECTRUM    : start of spectrum data
0, 0
0, 0
0, 0
0, 0
0, 0
0, 0
0, 0
0, 0
0, 1
3, 0
0, 1
44, 48
47, 45
2, 3
10, 3
78, 98
444, 370
121, 104
4, 6
2, 1
0, 1
4, 4
4, 6
9, 4
55, 31
84, 24
40, 16
21, 10
6, 5
1, 1
3, 3
1, 1
3, 5
13, 19
15, 28
4, 13
6, 0
4, 3
13, 5
4, 6
5, 3
14, 8
12, 11
9, 12
7, 7
6, 4
2, 7
5, 7
14, 15
15, 26
13, 69
12, 42
22, 13
51, 40
76, 43
26, 19
29, 39
451, 542
2287, 2134
1766, 1293
217, 135
23, 13
19, 19
117, 116
331, 347
269, 176
57, 26
17, 13
14, 14
10, 5
4, 1
3, 4
4, 3
5, 3
3, 4
3, 5
9, 1
6, 2
8, 4
13, 8
3, 7
1, 2
5, 2
3, 8
3, 6
2, 4
4, 6
6, 4
4, 4
9, 3
9, 2
14, 4
3, 1
0, 4
3, 2
2, 4
3, 3
3, 7
0, 2
3, 2
4, 4
3, 10
3, 2
8, 1
5, 2
2, 4
5, 1
1, 1
4, 3
1, 1
2, 0
2, 0
1, 4
1, 6
4, 2
2, 2
0, 4
4, 3
1, 1
3, 0
1, 1
3, 2
1, 1
2, 0
2, 0
1, 0
0, 0
2, 1
0, 3
2, 2
2, 0
0, 0
1, 2
0, 2
1, 0
0, 0
0, 4
1, 2
0, 2
1, 1
1, 3
1, 0
0, 2
1, 0
0, 0
1, 1
1, 1
0, 3
0, 0
0, 0
3, 2
0, 0
0, 1
0, 0
2, 0
0, 0
1, 0
0, 0
0, 0
0, 0
0, 0
1, 0
0, 1
0, 2
1, 0
0, 0
1, 0
0, 1
1, 0
1, 1
1, 0
0, 0
0, 0
0, 0
0, 0
0, 0
0, 0
0, 0
0, 1
0, 0
2, 0
0, 0
0, 0
1, 0
0, 0
0, 0
0, 0
0, 0
0, 0
0, 1
0, 0
0, 0
0, 0
0, 0
0, 0
0, 0
0, 0
0, 0
0, 0
0, 0
0, 0
0, 0
0, 0
0, 0
0, 0
0, 0
0, 0
0, 0
0, 0
0, 0
0, 0
0, 0
0, 0
0, 0
0, 0
0, 0
0, 0
0, 0
0, 0
0, 0
0, 0
0, 0
0, 0
0, 0
0, 0
0, 0
0, 0
0, 0
0, 0
0, 0
0, 0
0, 0
0, 0
0, 0
0, 0
0, 0
0, 0
0, 0
0, 0
0, 0
0, 0
0, 0
0, 0
0, 0
0, 0
0, 0
0, 0
0, 0
0, 0
0, 0
0, 0
0, 0
0, 0
0, 0
0, 0
0, 0
0, 0
0, 0
0, 0
0, 0
0, 0
0, 0
0, 0
0, 0
0, 0
0, 0
0, 0
0, 0
0, 0
0, 0
0, 0
0, 0
0, 0
0, 0
0, 0
0, 0
0, 0
0, 0
0, 0
0, 0
0, 0
0, 0
0, 0
0, 0
0, 0
0, 0
0, 0
0, 0
0, 0
0, 0
0, 0
0, 0
0, 0
0, 0
#ENDOFDATA     end of spectrum data

File: ps__0852shot_2037.msa
#FORMAT      : EMSA/MAS spectral data file
#VERSION     : TC202v2.0 PIXL
#TITLE       : N/A
#DATE        :       Date in the format DD-MMM-YYYY, for example 07-JUL-2010
#TIME        :             The time of day at which the spectrum was recorded, in 24-hour format
#OWNER       : PIXL Flight Model       (PIXL will use this to indicate which instrument took the data.)
#NPOINTS     : 4096     Number of data points in the spectrum (This can be zero for configuration only files)
#NCOLUMNS    : 2     Number of data columns in the spectrum (This can be zero for configuration only files)
#XUNITS      : eV
#YUNITS      : COUNTS
#DATATYPE    : YY
#XPERCHAN    : 7.862, 7.881   eV per channel (separate by commas if more than one detector)
#OFFSET      : 18.5, -22.4         eV of first channel  (separate by commas if more than one detector
#SIGNALTYPE  : XRF
#YP_TEMP     : 2.3
#LIVETIME    : 8.5715, 8.52255   seconds (separate by commas if more than one detector)
#REALTIME    : 10, 10.0   seconds (separate by commas if more than one detector)
#SPECTRUM    : start of spectrum data
0, 0
0, 0
0, 0
0, 0
0, 0
0, 0
0, 0
1, 0
0, 2
2, 1
1, 1
34, 52
60, 52
14, 6
4, 8
98, 109
452, 429
121, 110
2, 6
1, 1
0, 2
3, 4
4, 3
10, 17
70, 43
90, 53
27, 14
12, 11
7, 4
2, 4
3, 3
2, 4
3, 7
12, 15
13, 19
4, 5
2, 6
6, 5
7, 6
3, 7
3, 5
10, 11
22, 9
10, 20
3, 10
10, 12
7, 4
8, 6
18, 12
20, 26
8, 52
9, 26
13, 12
42, 43
70, 54
28, 21
23, 44
448, 615
2102, 2471
1514, 1455
194, 149
21, 13
19, 27
96, 137
329, 345
220, 225
31, 24
10, 10
17, 13
7, 11
4, 6
3, 8
2, 6
10, 6
5, 6
7, 6
3, 4
2, 4
5, 11
9, 10
2, 3
1, 8
5, 4
3, 1
5, 2
4, 6
1, 8
3, 4
2, 7
5, 5
2, 2
3, 4
1, 4
5, 5
4, 3
3, 5
2, 2
2, 1
6, 0
5, 3
3, 4
2, 3
3, 9
0, 2
3, 5
5, 3
0, 0
0, 4
3, 1
2, 4
0, 4
2, 3
4, 4
3, 1
2, 3
5, 3
4, 5
3, 2
3, 0
1, 1
2, 2
2, 0
0, 1
0, 4
2, 2
2, 0
0, 1
3, 2
0, 2
2, 0
1, 0
0, 0
1, 1
0, 1
0, 1
2, 0
2, 1
0, 1
1, 1
0, 1
0, 1
0, 1
1, 1
1, 1
0, 2
1, 2
0, 3
0, 0
0, 0
0, 4
0, 0
1, 0
0, 0
0, 0
0, 0
0, 1
1, 1
0, 0
0, 0
1, 0
0, 1
1, 1
0, 0
0, 0
1, 1
0, 0
0, 0
1, 1
0, 0
1, 0
0, 0
0, 0
0, 0
1, 0
0, 1
0, 0
1, 1
2, 0
0, 0
0, 0
0, 0
0, 0
0, 0
0, 0
0, 0
0, 0
0, 0
0, 0
0, 0
0, 0
0, 0
0, 0
0, 0
0, 0
0, 0
0, 0
0, 0
0, 0
0, 1
0, 0
0, 0
0, 0
0, 0
0, 0
0, 0
0, 0
0, 0
0, 0
0, 0
0, 0
1, 0
0, 0
0, 0
0, 0
0, 0
0, 0
0, 0
0, 0
0, 0
0, 0
0, 0
0, 0
0, 0
0, 0
0, 0
0, 0
0, 0
0, 0
0, 0
0, 0
0, 0
0, 0
0, 0
0, 0
0, 0
0, 0
0, 0
0, 0
0, 0
0, 0
0, 0
0, 0
0, 0
0, 0
0, 0
0, 0
0, 0
0, 0
0, 0
0, 0
0, 0
0, 0
0, 0
0, 0
0, 0
0, 0
0, 0
0, 0
0, 0
0, 0
0, 0
0, 0
0, 0
0, 0
0, 0
0, 0
0, 0
0, 0
0, 0
0, 0
0, 0
0, 0
0, 0
0, 0
0, 0
0, 0
0, 0
0, 0
0, 0
0, 0
0, 0
0, 0
0, 0
0, 0
0, 0
0, 0
0, 0
0, 0
0, 0
0, 0
0, 0
0, 0
0, 0
0, 0
#ENDOFDATA     end of spectrum data

File: ps__0852shot_2038.msa
#FORMAT      : EMSA/MAS spectral data file
#VERSION     : TC202v2.0 PIXL
#TITLE       : N/A
#DATE        :       Date in the format DD-MMM-YYYY, for example 07-JUL-2010
#TIME        :             The time of day at which the spectrum was recorded, in 24-hour format
#OWNER       : PIXL Flight Model       (PIXL will use this to indicate which instrument took the data.)
#NPOINTS     : 4096     Number of data points in the spectrum (This can be zero for configuration only files)
#NCOLUMNS    : 2     Number of data columns in the spectrum (This can be zero for configuration only files)
#XUNITS      : eV
#YUNITS      : COUNTS
#DATATYPE    : YY
#XPERCHAN    : 7.862, 7.881   eV per channel (separate by commas if more than one detector)
#OFFSET      : 18.5, -22.4         eV of first channel  (separate by commas if more than one detector
#SIGNALTYPE  : XRF
#YP_TEMP     : 2.3
#LIVETIME    : 8.5543, 8.5238   seconds (separate by commas if more than one detector)
#REALTIME    : 10, 10.0   seconds (separate by commas if more than one detector)
#SPECTRUM    : start of spectrum data
0, 0
0, 0
0, 0
0, 0
0, 0
0, 0
0, 0
0, 0
0, 1
1, 3
2, 1
31, 39
42, 67
5, 6
7, 5
71, 97
403, 382
84, 90
5, 4
2, 0
2, 1
6, 5
6, 8
10, 15
41, 67
35, 92
28, 31
20, 11
7, 6
0, 2
0, 3
2, 4
3, 2
9, 12
17, 13
7, 3
3, 4
7, 5
2, 5
2, 6
2, 4
9, 4
9, 12
10, 13
4, 5
9, 6
4, 12
7, 9
14, 10
21, 21
11, 15
30, 7
71, 12
61, 36
57, 53
29, 14
30, 48
494, 622
1971, 2363
1511, 1448
209, 130
20, 18
22, 24
105, 135
332, 325
230, 220
31, 20
9, 8
11, 22
12, 9
13, 6
11, 4
2, 2
10, 6
7, 8
4, 2
1, 2
5, 6
4, 8
7, 7
2, 6
3, 1
3, 3
5, 4
7, 5
1, 9
0, 7
1, 5
0, 6
0, 4
1, 3
4, 2
5, 7
1, 4
2, 3
1, 4
1, 3
1, 3
4, 4
2, 3
2, 1
2, 3
2, 3
4, 6
2, 2
3, 2
2, 1
2, 2
4, 2
2, 2
4, 3
1, 1
1, 1
3, 2
1, 0
0, 3
2, 7
3, 1
2, 2
0, 1
1, 5
0, 2
2, 0
1, 2
3, 0
0, 1
1, 1
2, 0
0, 1
1, 1
2, 0
0, 0
0, 3
1, 0
1, 1
0, 1
1, 1
2, 0
0, 1
1, 0
0, 0
0, 2
0, 0
0, 0
0, 0
2, 0
1, 0
0, 1
0, 1
0, 0
0, 1
0, 0
0, 0
0, 0
0, 0
1, 0
0, 0
0, 0
0, 0
0, 0
0, 0
1, 0
0, 0
0, 0
0, 1
0, 0
0, 0
2, 1
2, 0
0, 1
0, 0
0, 0
0, 1
1, 1
0, 0
0, 0
0, 0
0, 0
0, 0
0, 0
0, 0
0, 0
0, 0
1, 0
0, 0
0, 0
0, 1
0, 0
0, 0
1, 0
0, 0
0, 0
0, 1
0, 0
0, 0
1, 0
0, 0
0, 0
0, 0
0, 0
0, 0
0, 0
0, 0
2, 0
0, 0
0, 0
0, 0
0, 1
0, 0
0, 0
0, 0
0, 0
0, 0
0, 0
0, 0
0, 0
0, 0
0, 0
0, 0
0, 0
0, 0
0, 0
0, 0
0, 0
0, 0
0, 0
0, 0
0, 0
0, 0
0, 0
0, 0
0, 0
0, 0
0, 0
0, 0
0, 0
0, 0
0, 0
0, 0
0, 0
0, 0
0, 0
0, 0
0, 0
0, 0
0, 0
0, 0
0, 0
0, 0
0, 0
0, 0
0, 0
0, 0
0, 0
0, 0
0, 0
0, 0
0, 0
0, 0
0, 0
0, 0
0, 0
0, 0
0, 0
0, 0
0, 0
0, 0
0, 0
0, 0
0, 0
0, 0
0, 0
0, 0
0, 0
0, 0
0, 0
0, 0
0, 0
0, 0
0, 0
0, 0
0, 0
0, 0
0, 0
0, 0
0, 0
0, 0
0, 0
0, 0
0, 0
0, 0
0, 0
0, 0
0, 0
#ENDOFDATA     end of spectrum data

File: ps__0852shot_2039.msa
#FORMAT      : EMSA/MAS spectral data file
#VERSION     : TC202v2.0 PIXL
#TITLE       : N/A
#DATE        :       Date in the format DD-MMM-YYYY, for example 07-JUL-2010
#TIME        :             The time of day at which the spectrum was recorded, in 24-hour format
#OWNER       : PIXL Flight Model       (PIXL will use this to indicate which instrument took the data.)
#NPOINTS     : 4096     Number of data points in the spectrum (This can be zero for configuration only files)
#NCOLUMNS    : 2     Number of data columns in the spectrum (This can be zero for configuration only files)
#XUNITS      : eV
#YUNITS      : COUNTS
#DATATYPE    : YY
#XPERCHAN    : 7.862, 7.881   eV per channel (separate by commas if more than one detector)
#OFFSET      : 18.5, -22.4         eV of first channel  (separate by commas if more than one detector
#SIGNALTYPE  : XRF
#YP_TEMP     : 2.332
#LIVETIME    : 8.55754, 8.56715   seconds (separate by commas if more than one detector)
#REALTIME    : 10, 10.0   seconds (separate by commas if more than one detector)
#SPECTRUM    : start of spectrum data
0, 0
0, 0
0, 0
0, 0
0, 0
0, 0
0, 0
0, 0
0, 3
1, 1
4, 7
49, 42
38, 53
1, 4
9, 8
98, 89
403, 373
124, 98
7, 8
0, 1
2, 1
9, 7
8, 4
10, 21
60, 82
46, 100
19, 24
11, 13
4, 4
2, 3
1, 3
4, 5
5, 3
10, 17
18, 12
3, 8
5, 4
9, 5
3, 9
3, 2
4, 5
5, 13
13, 19
12, 14
4, 4
7, 14
7, 6
6, 9
9, 23
11, 24
14, 25
65, 2
79, 12
54, 38
48, 49
28, 27
42, 44
497, 563
2127, 2156
1631, 1322
231, 157
27, 22
19, 19
101, 129
361, 337
203, 174
34, 22
12, 4
15, 13
18, 7
25, 4
14, 1
5, 10
2, 5
6, 11
7, 6
3, 7
7, 5
2, 4
4, 3
3, 5
2, 7
6, 3
4, 6
6, 6
2, 5
2, 3
5, 3
1, 3
1, 6
6, 2
6, 3
4, 4
1, 1
6, 2
1, 1
4, 2
0, 3
2, 3
4, 1
1, 3
3, 3
2, 2
3, 1
0, 0
2, 1
1, 3
0, 2
2, 1
0, 3
2, 2
0, 2
4, 1
5, 2
2, 5
5, 1
5, 4
1, 1
2, 2
2, 2
0, 2
2, 1
4, 2
3, 2
0, 1
0, 2
1, 1
0, 0
1, 2
3, 0
4, 0
0, 0
2, 0
1, 1
1, 1
0, 0
0, 0
0, 1
2, 0
0, 0
1, 0
1, 1
0, 0
0, 0
0, 0
0, 2
1, 1
2, 2
1, 0
0, 1
0, 0
1, 0
0, 0
0, 0
1, 0
0, 0
0, 1
1, 0
0, 1
1, 0
0, 0
0, 0
0, 0
0, 0
0, 1
1, 0
1, 0
2, 0
0, 0
0, 0
0, 0
0, 0
0, 1
1, 0
0, 0
0, 0
1, 0
0, 0
1, 0
0, 0
0, 0
0, 0
1, 0
0, 0
2, 0
0, 0
0, 0
1, 0
0, 0
0, 0
0, 0
0, 0
0, 0
0, 0
0, 0
0, 0
0, 0
0, 0
0, 0
0, 1
0, 0
1, 0
0, 0
0, 0
0, 0
0, 0
0, 0
0, 0
0, 1
0, 0
0, 0
0, 0
0, 0
0, 0
0, 0
0, 0
0, 0
0, 0
0, 0
0, 0
0, 0
0, 0
0, 0
0, 0
0, 0
0, 0
0, 0
0, 0
0, 0
0, 0
0, 0
0, 0
0, 0
0, 0
0, 0
0, 0
0, 0
0, 0
0, 0
0, 0
0, 0
0, 0
0, 0
0, 0
0, 0
0, 0
0, 0
0, 0
0, 0
0, 0
0, 0
0, 0
0, 0
0, 0
0, 0
0, 0
0, 0
0, 0
0, 0
0, 0
0, 0
0, 0
0, 0
0, 0
0, 0
0, 0
0, 0
0, 0
0, 0
0, 0
0, 0
0, 0
0, 0
0, 0
0, 0
0, 0
0, 0
0, 0
0, 0
0, 0
0, 0
0, 0
0, 0
0, 0
0, 0
0, 0
0, 0
0, 0
0, 0
0, 0
0, 0
0, 0
0, 0
0, 0
#ENDOFDATA     end of spectrum data

File: ps__0852shot_2040.msa
#FORMAT      : EMSA/MAS spectral data file
#VERSION     : TC202v2.0 PIXL
#TITLE       : N/A
#DATE        :       Date in the format DD-MMM-YYYY, for example 07-JUL-2010
#TIME        :             The time of day at which the spectrum was recorded, in 24-hour format
#OWNER       : PIXL Flight Model       (PIXL will use this to indicate which instrument took the data.)
#NPOINTS     : 4096     Number of data points in the spectrum (This can be zero for configuration only files)
#NCOLUMNS    : 2     Number of data columns in the spectrum (This can be zero for configuration only files)
#XUNITS      : eV
#YUNITS      : COUNTS
#DATATYPE    : YY
#XPERCHAN    : 7.862, 7.881   eV per channel (separate by commas if more than one detector)
#OFFSET      : 18.5, -22.4         eV of first channel  (separate by commas if more than one detector
#SIGNALTYPE  : XRF
#YP_TEMP     : 2.364
#LIVETIME    : 8.56645, 8.54964   seconds (separate by commas if more than one detector)
#REALTIME    : 10, 10.0   seconds (separate by commas if more than one detector)
#SPECTRUM    : start of spectrum data
0, 0
0, 0
0, 0
0, 0
0, 0
0, 0
0, 0
0, 0
3, 0
1, 1
3, 1
34, 38
62, 46
5, 8
1, 8
107, 95
427, 382
120, 95
8, 6
2, 2
3, 5
7, 8
10, 5
7, 13
62, 31
73, 30
25, 17
10, 11
2, 2
1, 0
4, 1
3, 3
0, 8
16, 22
9, 17
4, 4
6, 3
5, 7
3, 8
1, 4
3, 6
8, 9
21, 16
23, 5
7, 3
10, 5
11, 3
5, 10
5, 15
11, 21
11, 19
13, 10
23, 12
46, 55
58, 66
26, 24
31, 48
512, 560
2107, 2253
1585, 1360
229, 155
16, 14
20, 35
103, 165
340, 376
237, 201
51, 22
19, 8
17, 12
21, 11
10, 6
5, 7
1, 4
5, 6
7, 6
5, 6
5, 2
4, 4
3, 1
1, 8
4, 8
5, 7
13, 5
6, 2
5, 1
7, 5
1, 3
4, 4
3, 2
4, 5
2, 14
7, 8
3, 12
3, 5
4, 4
4, 3
1, 3
4, 1
1, 3
3, 1
6, 3
2, 2
2, 3
0, 1
1, 1
1, 3
4, 1
2, 3
2, 2
2, 0
2, 1
1, 2
1, 0
0, 3
2, 3
1, 5
0, 3
5, 6
3, 1
2, 1
2, 1
6, 2
2, 2
2, 1
1, 1
1, 3
2, 0
1, 1
1, 1
1, 1
4, 0
1, 0
2, 0
0, 2
1, 1
0, 2
0, 2
1, 1
1, 1
0, 1
1, 0
0, 1
0, 0
0, 0
0, 0
1, 0
0, 0
1, 1
0, 0
0, 0
0, 1
1, 1
0, 2
0, 0
0, 1
2, 0
0, 0
0, 2
0, 0
1, 0
0, 0
0, 0
0, 0
0, 0
1, 0
0, 0
0, 0
0, 0
2, 0
0, 0
0, 0
1, 1
1, 0
1, 0
0, 1
0, 0
0, 0
0, 0
0, 0
1, 0
0, 0
0, 0
0, 0
0, 1
0, 0
1, 0
0, 0
0, 0
0, 0
0, 0
0, 0
0, 0
0, 0
0, 0
0, 0
0, 0
0, 0
0, 0
0, 0
0, 0
0, 0
0, 0
0, 0
0, 0
0, 0
0, 0
0, 0
0, 0
0, 0
0, 0
0, 0
0, 0
0, 0
0, 0
0, 0
0, 0
0, 0
0, 0
0, 0
0, 1
0, 0
0, 0
0, 0
0, 0
0, 0
0, 0
0, 0
0, 0
0, 0
0, 0
0, 0
0, 0
0, 0
0, 0
0, 0
0, 0
0, 0
0, 0
0, 0
0, 0
0, 0
0, 0
0, 0
0, 0
0, 0
0, 0
0, 0
0, 0
0, 0
0, 0
0, 0
0, 0
0, 0
0, 0
0, 0
0, 0
0, 0
0, 0
0, 0
0, 0
0, 0
0, 0
0, 0
0, 0
0, 0
0, 0
0, 0
0, 0
0, 0
0, 0
0, 0
0, 0
0, 0
0, 0
0, 0
0, 0
0, 0
0, 0
0, 0
0, 0
0, 0
0, 0
0, 0
0, 0
0, 0
0, 0
0, 0
0, 0
0, 0
0, 0
0, 0
0, 0
0, 0
0, 0
#ENDOFDATA     end of spectrum data

File: ps__0852shot_2041.msa
#FORMAT      : EMSA/MAS spectral data file
#VERSION     : TC202v2.0 PIXL
#TITLE       : N/A
#DATE        :       Date in the format DD-MMM-YYYY, for example 07-JUL-2010
#TIME        :             The time of day at which the spectrum was recorded, in 24-hour format
#OWNER       : PIXL Flight Model       (PIXL will use this to indicate which instrument took the data.)
#NPOINTS     : 4096     Number of data points in the spectrum (This can be zero for configuration only files)
#NCOLUMNS    : 2     Number of data columns in the spectrum (This can be zero for configuration only files)
#XUNITS      : eV
#YUNITS      : COUNTS
#DATATYPE    : YY
#XPERCHAN    : 7.862, 7.881   eV per channel (separate by commas if more than one detector)
#OFFSET      : 18.5, -22.4         eV of first channel  (separate by commas if more than one detector
#SIGNALTYPE  : XRF
#YP_TEMP     : 2.46
#LIVETIME    : 8.56967, 8.54693   seconds (separate by commas if more than one detector)
#REALTIME    : 10, 10.0   seconds (separate by commas if more than one detector)
#SPECTRUM    : start of spectrum data
0, 0
0, 0
0, 0
0, 0
0, 0
0, 0
0, 0
0, 0
0, 0
3, 1
4, 0
44, 39
56, 64
10, 13
7, 3
88, 111
434, 398
117, 86
4, 7
0, 2
3, 1
11, 5
4, 2
8, 14
35, 45
34, 36
25, 15
11, 11
10, 6
3, 3
3, 3
2, 8
6, 3
10, 16
24, 20
31, 4
20, 7
5, 6
3, 11
8, 7
10, 4
6, 13
31, 17
37, 18
15, 7
7, 7
9, 1
11, 8
14, 11
18, 17
20, 15
10, 16
11, 15
37, 43
58, 60
23, 16
46, 43
472, 587
2118, 2204
1706, 1375
221, 141
22, 13
27, 22
124, 118
330, 372
262, 186
37, 24
7, 7
12, 17
11, 6
5, 2
8, 5
8, 2
11, 5
7, 8
9, 5
9, 6
2, 12
3, 3
4, 6
2, 7
10, 5
10, 3
7, 1
4, 2
7, 4
6, 4
5, 4
3, 3
3, 4
3, 9
1, 5
3, 4
4, 5
4, 2
5, 3
4, 3
3, 0
3, 1
2, 1
1, 1
4, 1
2, 2
3, 2
4, 1
4, 2
2, 3
2, 1
4, 1
4, 2
0, 2
4, 3
0, 2
3, 3
4, 1
3, 3
5, 9
2, 3
4, 2
0, 4
1, 1
1, 2
3, 5
1, 2
0, 2
2, 1
3, 1
2, 2
2, 0
1, 0
1, 1
1, 0
2, 0
0, 3
0, 1
0, 0
0, 1
1, 2
1, 0
2, 1
0, 1
0, 1
0, 0
0, 1
0, 1
0, 0
2, 1
0, 0
1, 0
0, 1
0, 0
0, 1
0, 0
0, 1
1, 1
0, 2
0, 1
0, 0
0, 1
0, 0
0, 1
0, 2
1, 0
0, 0
0, 0
0, 0
0, 0
0, 0
0, 0
0, 0
1, 0
0, 0
1, 0
0, 1
0, 0
0, 0
0, 1
0, 0
0, 0
0, 0
0, 0
0, 0
0, 0
0, 0
0, 0
0, 0
0, 0
0, 1
0, 0
0, 0
0, 0
0, 0
0, 0
0, 0
0, 0
0, 0
0, 0
0, 0
0, 0
0, 0
0, 0
1, 0
0, 0
0, 1
0, 0
0, 0
0, 0
0, 0
0, 0
0, 0
0, 0
0, 0
0, 0
0, 0
0, 0
0, 0
0, 0
0, 0
0, 0
0, 0
0, 0
0, 0
0, 0
0, 0
0, 0
0, 0
0, 0
0, 0
0, 0
0, 0
0, 0
0, 0
0, 0
0, 0
0, 0
0, 0
0, 0
0, 0
0, 0
0, 0
0, 0
0, 0
0, 0
0, 0
0, 0
0, 0
0, 0
0, 0
0, 0
0, 0
0, 0
0, 0
0, 0
0, 0
0, 0
0, 0
0, 0
0, 0
0, 0
0, 0
0, 0
0, 0
0, 0
0, 0
0, 0
0, 0
0, 0
0, 0
0, 0
0, 0
0, 0
0, 0
0, 0
0, 0
0, 0
0, 0
0, 0
0, 0
0, 0
0, 0
0, 0
0, 0
0, 0
0, 0
0, 0
0, 0
0, 0
0, 0
0, 0
0, 0
0, 0
0, 0
0, 0
0, 0
#ENDOFDATA     end of spectrum data

File: ps__0852shot_2042.msa
#FORMAT      : EMSA/MAS spectral data file
#VERSION     : TC202v2.0 PIXL
#TITLE       : N/A
#DATE        :       Date in the format DD-MMM-YYYY, for example 07-JUL-2010
#TIME        :             The time of day at which the spectrum was recorded, in 24-hour format
#OWNER       : PIXL Flight Model       (PIXL will use this to indicate which instrument took the data.)
#NPOINTS     : 4096     Number of data points in the spectrum (This can be zero for configuration only files)
#NCOLUMNS    : 2     Number of data columns in the spectrum (This can be zero for configuration only files)
#XUNITS      : eV
#YUNITS      : COUNTS
#DATATYPE    : YY
#XPERCHAN    : 7.862, 7.881   eV per channel (separate by commas if more than one detector)
#OFFSET      : 18.5, -22.4         eV of first channel  (separate by commas if more than one detector
#SIGNALTYPE  : XRF
#YP_TEMP     : 2.428
#LIVETIME    : 8.54984, 8.55663   seconds (separate by commas if more than one detector)
#REALTIME    : 10, 10.0   seconds (separate by commas if more than one detector)
#SPECTRUM    : start of spectrum data
0, 0
0, 0
0, 0
0, 0
0, 0
0, 0
0, 0
1, 0
1, 4
0, 1
0, 2
47, 55
69, 74
5, 3
7, 1
94, 110
452, 371
133, 93
4, 3
1, 1
0, 2
3, 6
3, 2
10, 16
31, 111
35, 129
20, 23
10, 7
8, 3
4, 1
4, 1
0, 1
4, 3
10, 12
21, 14
49, 5
18, 6
11, 8
6, 15
5, 15
3, 9
10, 7
35, 17
72, 9
53, 7
21, 7
10, 7
7, 4
6, 10
18, 10
12, 15
18, 12
22, 14
37, 52
65, 62
32, 23
40, 34
505, 566
2238, 2273
1674, 1344
211, 144
18, 16
23, 26
115, 128
358, 368
240, 187
35, 33
11, 4
17, 16
8, 2
10, 3
6, 5
10, 1
12, 6
5, 9
12, 14
5, 2
9, 4
5, 4
5, 4
3, 6
7, 7
11, 1
2, 7
9, 4
3, 6
2, 4
7, 2
3, 3
7, 2
5, 5
5, 4
2, 6
9, 2
4, 4
3, 0
4, 1
4, 4
2, 1
2, 3
1, 1
4, 2
4, 3
2, 1
2, 2
2, 2
0, 4
3, 4
6, 2
3, 1
2, 1
5, 3
1, 3
2, 0
2, 2
6, 1
4, 5
5, 2
1, 3
8, 1
2, 1
1, 2
2, 3
3, 0
1, 2
2, 0
0, 2
1, 0
1, 1
2, 2
0, 0
1, 3
0, 1
1, 0
0, 0
0, 0
1, 1
0, 0
1, 0
0, 3
1, 0
1, 0
0, 0
0, 0
1, 1
0, 0
0, 1
2, 0
0, 1
0, 0
0, 0
0, 1
0, 1
0, 0
0, 0
1, 0
1, 0
1, 0
0, 0
0, 0
1, 0
1, 0
0, 0
1, 0
0, 0
1, 0
1, 1
1, 0
1, 1
0, 0
0, 0
0, 1
1, 0
0, 0
2, 0
0, 0
0, 0
0, 0
1, 1
1, 0
1, 0
1, 0
0, 0
1, 0
0, 0
0, 1
0, 0
0, 0
0, 1
0, 1
0, 0
0, 0
0, 1
0, 0
0, 0
0, 0
0, 0
0, 0
0, 0
0, 0
0, 0
0, 0
0, 0
0, 0
0, 0
0, 0
0, 0
0, 0
0, 0
0, 0
0, 0
0, 0
0, 0
0, 0
0, 0
0, 0
0, 0
0, 0
0, 0
0, 0
0, 0
0, 0
0, 0
0, 0
0, 0
0, 0
0, 0
0, 0
0, 0
0, 0
0, 0
0, 0
0, 0
0, 0
0, 0
0, 0
0, 0
0, 0
0, 0
0, 0
0, 0
0, 0
0, 0
0, 0
0, 0
0, 0
0, 0
0, 0
0, 0
0, 0
0, 0
0, 0
0, 0
0, 0
0, 0
0, 0
0, 0
0, 0
0, 0
0, 0
0, 0
0, 0
0, 0
0, 0
0, 0
0, 0
0, 0
0, 0
0, 0
0, 0
0, 0
0, 0
0, 0
0, 0
0, 0
0, 0
0, 0
0, 0
0, 0
0, 0
0, 0
0, 0
0, 0
0, 0
0, 0
0, 0
0, 0
0, 0
0, 0
0, 0
0, 0
0, 0
0, 0
0, 0
#ENDOFDATA     end of spectrum data

File: ps__0852shot_2043.msa
#FORMAT      : EMSA/MAS spectral data file
#VERSION     : TC202v2.0 PIXL
#TITLE       : N/A
#DATE        :       Date in the format DD-MMM-YYYY, for example 07-JUL-2010
#TIME        :             The time of day at which the spectrum was recorded, in 24-hour format
#OWNER       : PIXL Flight Model       (PIXL will use this to indicate which instrument took the data.)
#NPOINTS     : 4096     Number of data points in the spectrum (This can be zero for configuration only files)
#NCOLUMNS    : 2     Number of data columns in the spectrum (This can be zero for configuration only files)
#XUNITS      : eV
#YUNITS      : COUNTS
#DATATYPE    : YY
#XPERCHAN    : 7.862, 7.881   eV per channel (separate by commas if more than one detector)
#OFFSET      : 18.5, -22.4         eV of first channel  (separate by commas if more than one detector
#SIGNALTYPE  : XRF
#YP_TEMP     : 2.396
#LIVETIME    : 8.55823, 8.35154   seconds (separate by commas if more than one detector)
#REALTIME    : 10, 10.0   seconds (separate by commas if more than one detector)
#SPECTRUM    : start of spectrum data
0, 0
0, 0
0, 0
0, 0
0, 0
0, 0
0, 0
0, 0
2, 1
4, 15
2, 3
53, 51
56, 48
5, 2
4, 4
86, 88
442, 374
100, 88
3, 6
1, 1
1, 0
4, 4
2, 6
11, 48
36, 355
43, 479
31, 59
13, 10
4, 4
3, 2
3, 1
1, 1
3, 4
13, 14
16, 18
14, 14
10, 4
6, 5
7, 15
9, 4
5, 3
12, 7
21, 7
56, 14
74, 8
15, 10
9, 9
6, 4
5, 18
13, 25
19, 18
23, 18
42, 14
72, 43
59, 61
23, 38
31, 42
474, 609
2193, 2296
1567, 1369
197, 141
20, 26
27, 45
108, 126
309, 327
223, 208
39, 22
5, 12
12, 21
12, 16
4, 10
3, 4
1, 4
6, 8
6, 5
6, 3
6, 9
9, 8
5, 2
4, 2
2, 3
3, 1
4, 3
4, 4
4, 2
9, 6
6, 7
7, 4
2, 5
4, 2
2, 2
1, 3
4, 10
5, 4
4, 4
3, 4
4, 3
1, 1
2, 4
2, 4
1, 2
1, 1
4, 1
4, 4
6, 2
3, 1
3, 2
5, 6
1, 2
2, 0
0, 0
2, 2
1, 1
1, 2
2, 1
6, 2
4, 2
6, 3
4, 0
1, 0
0, 1
1, 1
2, 1
2, 1
3, 1
5, 0
2, 0
0, 1
3, 2
0, 1
2, 0
1, 0
0, 2
1, 3
1, 0
2, 0
1, 1
1, 3
2, 1
0, 4
0, 1
2, 0
0, 0
1, 0
0, 0
0, 0
0, 0
1, 0
0, 2
1, 2
0, 0
0, 0
0, 1
0, 1
1, 1
0, 0
0, 0
1, 0
0, 0
0, 0
0, 1
0, 0
0, 0
0, 0
2, 1
0, 0
0, 1
0, 0
0, 0
0, 0
0, 0
0, 1
0, 0
0, 1
0, 0
0, 0
0, 0
0, 0
0, 1
0, 0
0, 0
0, 0
0, 0
0, 0
0, 0
0, 0
0, 0
0, 0
0, 0
0, 0
0, 0
0, 0
0, 0
0, 0
0, 0
0, 0
0, 0
0, 0
0, 0
0, 0
0, 0
0, 0
0, 0
0, 0
0, 0
0, 1
0, 0
0, 0
1, 0
0, 0
0, 0
0, 0
0, 0
0, 0
0, 0
0, 0
0, 0
0, 0
0, 0
0, 0
0, 0
0, 0
0, 0
0, 0
0, 0
0, 0
0, 0
0, 0
0, 0
0, 0
0, 0
0, 0
0, 0
0, 0
0, 0
0, 0
0, 0
0, 0
0, 0
0, 0
0, 0
0, 0
0, 0
0, 0
0, 0
0, 0
0, 0
0, 0
0, 0
0, 0
0, 0
0, 0
0, 0
0, 0
0, 0
0, 0
0, 0
0, 0
0, 0
0, 0
0, 0
0, 0
0, 0
0, 0
0, 0
0, 0
0, 0
0, 0
0, 0
0, 0
0, 0
0, 0
0, 0
0, 0
0, 0
0, 0
0, 0
0, 0
0, 0
0, 0
0, 0
0, 0
0, 0
0, 0
0, 0
0, 0
0, 0
0, 0
0, 0
0, 0
0, 0
0, 0
0, 0
0, 0
#ENDOFDATA     end of spectrum data

File: ps__0852shot_2044.msa
#FORMAT      : EMSA/MAS spectral data file
#VERSION     : TC202v2.0 PIXL
#TITLE       : N/A
#DATE        :       Date in the format DD-MMM-YYYY, for example 07-JUL-2010
#TIME        :             The time of day at which the spectrum was recorded, in 24-hour format
#OWNER       : PIXL Flight Model       (PIXL will use this to indicate which instrument took the data.)
#NPOINTS     : 4096     Number of data points in the spectrum (This can be zero for configuration only files)
#NCOLUMNS    : 2     Number of data columns in the spectrum (This can be zero for configuration only files)
#XUNITS      : eV
#YUNITS      : COUNTS
#DATATYPE    : YY
#XPERCHAN    : 7.862, 7.881   eV per channel (separate by commas if more than one detector)
#OFFSET      : 18.5, -22.4         eV of first channel  (separate by commas if more than one detector
#SIGNALTYPE  : XRF
#YP_TEMP     : 2.364
#LIVETIME    : 8.55717, 8.56295   seconds (separate by commas if more than one detector)
#REALTIME    : 10, 10.0   seconds (separate by commas if more than one detector)
#SPECTRUM    : start of spectrum data
0, 0
0, 0
0, 0
0, 0
0, 0
0, 0
0, 0
0, 0
0, 1
1, 3
1, 4
55, 43
65, 64
6, 2
5, 7
84, 79
398, 425
93, 98
3, 4
0, 2
0, 2
5, 11
6, 12
7, 49
24, 127
30, 132
20, 31
14, 20
5, 7
3, 2
3, 4
0, 2
4, 4
13, 24
10, 20
2, 9
5, 29
7, 19
8, 9
14, 1
12, 4
11, 12
26, 13
78, 13
58, 9
20, 14
5, 7
3, 6
14, 6
31, 16
30, 9
19, 19
40, 22
43, 42
56, 55
21, 26
32, 43
446, 609
2068, 2364
1549, 1354
185, 140
22, 36
17, 28
81, 138
318, 338
225, 170
38, 33
9, 11
9, 18
7, 10
9, 5
4, 3
2, 4
6, 10
4, 15
7, 13
6, 10
11, 2
11, 7
3, 5
6, 10
3, 6
4, 4
2, 5
6, 11
6, 4
2, 4
11, 1
6, 3
7, 3
1, 2
4, 5
3, 5
3, 3
5, 4
2, 7
4, 6
3, 2
10, 2
4, 2
1, 5
1, 3
5, 4
5, 1
2, 4
7, 1
0, 1
2, 1
0, 2
2, 3
3, 2
2, 0
3, 4
0, 1
0, 3
1, 4
4, 7
1, 0
3, 0
0, 0
3, 0
2, 1
1, 0
2, 2
0, 0
1, 1
0, 0
2, 0
2, 1
0, 1
1, 2
0, 0
1, 0
2, 2
1, 0
2, 0
0, 0
0, 1
0, 0
0, 0
1, 2
3, 0
1, 0
0, 1
0, 1
0, 0
0, 0
0, 0
1, 0
1, 0
0, 0
0, 0
0, 1
0, 1
0, 1
1, 0
1, 1
0, 0
1, 0
0, 0
2, 0
0, 0
0, 0
1, 0
0, 0
0, 3
0, 1
1, 0
1, 1
0, 1
0, 0
0, 0
0, 0
1, 0
1, 0
0, 0
0, 0
1, 0
0, 0
0, 0
0, 0
0, 0
0, 1
1, 0
0, 0
0, 0
0, 0
0, 0
0, 0
0, 0
0, 1
0, 0
0, 0
0, 0
0, 0
1, 0
0, 0
0, 0
0, 0
0, 0
0, 0
0, 0
0, 0
0, 0
0, 0
0, 0
0, 0
0, 0
0, 0
0, 0
0, 0
0, 0
0, 0
0, 0
0, 0
0, 0
0, 0
0, 0
0, 0
0, 0
0, 0
0, 0
0, 0
0, 0
0, 0
0, 0
0, 0
0, 0
0, 0
0, 0
0, 0
0, 0
0, 0
0, 0
0, 0
0, 0
0, 0
0, 0
0, 0
0, 0
0, 0
0, 0
0, 0
0, 0
0, 0
0, 0
0, 0
0, 0
0, 0
0, 0
0, 0
0, 0
0, 0
0, 0
0, 0
0, 0
0, 0
0, 0
0, 0
0, 0
0, 0
0, 0
0, 0
0, 0
0, 0
0, 0
0, 0
0, 0
0, 0
0, 0
0, 0
0, 0
0, 0
0, 0
0, 0
0, 0
0, 0
0, 0
0, 0
0, 0
0, 0
0, 0
0, 0
0, 0
0, 0
0, 0
0, 0
0, 0
0, 0
0, 0
0, 0
0, 0
0, 0
0, 0
#ENDOFDATA     end of spectrum data