Folder: data-repository/host_upload/06-09-2024/ps_0852/dump3 (part 41)

File: ps__0852shot_2365.msa
#FORMAT      : EMSA/MAS spectral data file
#VERSION     : TC202v2.0 PIXL
#TITLE       : N/A
#DATE        :       Date in the format DD-MMM-YYYY, for example 07-JUL-2010
#TIME        :             The time of day at which the spectrum was recorded, in 24-hour format
#OWNER       : PIXL Flight Model       (PIXL will use this to indicate which instrument took the data.)
#NPOINTS     : 4096     Number of data points in the spectrum (This can be zero for configuration only files)
#NCOLUMNS    : 2     Number of data columns in the spectrum (This can be zero for configuration only files)
#XUNITS      : eV
#YUNITS      : COUNTS
#DATATYPE    : YY
#XPERCHAN    : 7.862, 7.881   eV per channel (separate by commas if more than one detector)
#OFFSET      : 18.5, -22.4         eV of first channel  (separate by commas if more than one detector
#SIGNALTYPE  : XRF
#YP_TEMP     : 2.3
#LIVETIME    : 8.53128, 8.56347   seconds (separate by commas if more than one detector)
#REALTIME    : 10, 10.0   seconds (separate by commas if more than one detector)
#SPECTRUM    : start of spectrum data
0, 0
0, 0
0, 0
0, 0
0, 0
0, 0
0, 0
0, 0
2, 2
3, 3
5, 2
43, 48
57, 64
7, 8
3, 3
76, 119
370, 458
84, 107
2, 9
2, 1
3, 1
2, 3
4, 5
10, 6
143, 52
202, 63
48, 13
14, 13
7, 4
0, 0
1, 3
4, 2
0, 2
10, 11
20, 24
3, 3
4, 1
16, 3
27, 4
12, 1
9, 10
10, 18
10, 22
6, 54
3, 40
18, 12
12, 12
7, 7
7, 4
12, 18
25, 8
23, 12
18, 11
40, 66
58, 53
12, 24
17, 58
459, 631
2079, 2549
1462, 1457
184, 178
25, 35
31, 45
112, 133
337, 378
243, 198
35, 25
9, 11
19, 12
6, 12
6, 6
11, 5
1, 12
5, 11
7, 7
20, 7
26, 8
10, 12
8, 13
6, 5
3, 5
3, 1
6, 6
5, 3
4, 4
2, 8
2, 5
3, 6
4, 4
3, 5
5, 4
5, 3
4, 5
5, 5
2, 1
2, 2
3, 3
4, 4
1, 1
2, 3
3, 5
6, 1
1, 3
0, 2
2, 6
1, 3
4, 3
0, 2
1, 1
3, 1
2, 2
1, 6
2, 3
4, 3
7, 0
5, 6
2, 6
3, 7
3, 1
0, 0
0, 2
1, 4
1, 0
1, 1
0, 1
1, 1
0, 2
1, 0
2, 0
0, 0
3, 0
1, 2
0, 1
1, 2
2, 1
1, 0
2, 0
0, 0
0, 2
0, 1
0, 1
0, 1
1, 0
0, 0
0, 1
0, 1
2, 0
1, 0
0, 0
1, 0
0, 1
0, 2
0, 0
0, 0
0, 0
1, 0
1, 0
0, 1
1, 0
1, 0
0, 0
1, 0
0, 0
2, 1
0, 0
0, 0
1, 1
0, 0
1, 0
0, 0
0, 0
1, 0
0, 1
1, 0
0, 1
0, 0
0, 1
0, 0
0, 0
0, 0
0, 0
2, 0
0, 0
0, 0
0, 0
0, 0
0, 0
0, 0
0, 0
1, 0
0, 0
0, 1
0, 0
0, 0
0, 0
0, 0
0, 0
0, 0
0, 0
0, 0
0, 0
0, 0
0, 0
0, 0
1, 0
0, 1
0, 0
0, 0
0, 0
0, 0
0, 0
0, 0
0, 0
0, 0
0, 0
0, 0
0, 0
0, 0
0, 0
0, 0
0, 0
0, 0
0, 0
0, 0
0, 0
0, 0
0, 0
0, 0
0, 0
0, 0
0, 0
0, 0
0, 0
0, 0
0, 0
0, 0
0, 0
0, 0
0, 0
0, 0
0, 0
0, 0
0, 0
0, 0
0, 0
0, 0
0, 0
0, 0
0, 0
0, 0
0, 0
0, 0
0, 0
0, 0
0, 0
0, 0
0, 0
0, 0
0, 0
0, 0
0, 0
0, 0
0, 0
0, 0
0, 0
0, 0
0, 0
0, 0
0, 0
0, 0
0, 0
0, 0
0, 0
0, 0
0, 0
0, 0
0, 0
0, 0
0, 0
0, 0
0, 0
0, 0
0, 0
0, 0
0, 0
0, 0
0, 0
0, 0
0, 0
0, 0
0, 0
0, 0
0, 0
0, 0
#ENDOFDATA     end of spectrum data

File: ps__0852shot_2366.msa
#FORMAT      : EMSA/MAS spectral data file
#VERSION     : TC202v2.0 PIXL
#TITLE       : N/A
#DATE        :       Date in the format DD-MMM-YYYY, for example 07-JUL-2010
#TIME        :             The time of day at which the spectrum was recorded, in 24-hour format
#OWNER       : PIXL Flight Model       (PIXL will use this to indicate which instrument took the data.)
#NPOINTS     : 4096     Number of data points in the spectrum (This can be zero for configuration only files)
#NCOLUMNS    : 2     Number of data columns in the spectrum (This can be zero for configuration only files)
#XUNITS      : eV
#YUNITS      : COUNTS
#DATATYPE    : YY
#XPERCHAN    : 7.862, 7.881   eV per channel (separate by commas if more than one detector)
#OFFSET      : 18.5, -22.4         eV of first channel  (separate by commas if more than one detector
#SIGNALTYPE  : XRF
#YP_TEMP     : 2.524
#LIVETIME    : 8.56165, 8.55249   seconds (separate by commas if more than one detector)
#REALTIME    : 10, 10.0   seconds (separate by commas if more than one detector)
#SPECTRUM    : start of spectrum data
0, 0
0, 0
0, 0
0, 0
0, 0
0, 0
0, 0
0, 0
0, 2
4, 0
4, 3
39, 42
63, 64
8, 9
3, 1
84, 98
392, 388
116, 103
3, 8
1, 4
1, 1
7, 4
4, 1
12, 4
174, 26
256, 35
51, 25
21, 18
4, 2
0, 4
0, 1
1, 6
3, 2
14, 21
33, 32
7, 8
3, 7
17, 7
23, 2
8, 1
4, 12
15, 10
17, 19
11, 55
6, 48
13, 10
6, 10
5, 4
9, 7
15, 13
24, 9
31, 6
20, 12
36, 40
54, 55
15, 26
24, 69
434, 597
2034, 2354
1440, 1426
177, 172
22, 24
58, 24
114, 123
284, 351
211, 189
24, 20
8, 9
3, 11
8, 10
4, 5
3, 13
3, 12
7, 7
17, 1
37, 2
24, 2
13, 5
5, 5
4, 3
5, 1
3, 6
1, 3
4, 5
1, 4
5, 4
1, 6
4, 7
3, 10
5, 2
2, 1
2, 1
1, 7
3, 3
3, 4
3, 4
2, 2
2, 3
4, 1
2, 3
2, 4
1, 1
5, 5
3, 1
3, 2
1, 2
2, 3
0, 1
1, 1
1, 1
1, 7
3, 3
1, 2
2, 2
3, 2
3, 2
3, 2
2, 1
1, 1
2, 1
2, 1
0, 1
0, 4
1, 0
1, 0
3, 1
2, 0
0, 2
0, 5
1, 0
0, 2
0, 0
2, 3
2, 0
1, 0
0, 2
0, 3
1, 3
1, 0
1, 1
0, 0
0, 1
1, 1
2, 1
0, 0
0, 0
1, 1
1, 0
0, 1
1, 0
0, 0
0, 1
1, 0
0, 1
0, 2
1, 0
0, 0
2, 0
0, 0
0, 0
0, 0
0, 0
0, 0
0, 0
0, 0
0, 0
0, 1
1, 0
0, 0
0, 0
0, 0
0, 0
0, 1
0, 1
0, 0
1, 0
0, 0
0, 0
0, 0
0, 1
0, 0
0, 0
0, 0
1, 0
0, 0
0, 0
0, 0
0, 0
0, 0
0, 0
0, 0
0, 0
0, 0
0, 0
0, 0
0, 0
0, 0
0, 0
1, 0
0, 0
0, 0
0, 0
0, 0
0, 0
0, 0
0, 0
0, 0
0, 1
0, 0
0, 0
0, 0
0, 0
0, 0
0, 0
0, 0
0, 0
0, 0
0, 0
0, 0
0, 0
0, 0
0, 0
0, 0
0, 0
0, 0
0, 0
0, 0
0, 0
0, 0
0, 0
0, 0
0, 0
0, 0
0, 0
0, 0
0, 0
0, 0
0, 0
0, 0
0, 0
0, 0
0, 0
0, 0
0, 0
0, 0
0, 0
0, 0
0, 0
0, 0
0, 0
0, 0
0, 0
0, 0
0, 0
0, 0
0, 0
0, 0
0, 0
0, 0
0, 0
0, 0
0, 0
0, 0
0, 0
0, 0
0, 0
0, 0
0, 0
0, 0
0, 0
0, 0
0, 0
0, 0
0, 0
0, 0
0, 0
0, 0
0, 0
0, 0
0, 0
0, 0
0, 0
0, 0
0, 0
0, 0
0, 0
0, 0
0, 0
0, 0
0, 0
0, 0
0, 0
0, 0
0, 0
#ENDOFDATA     end of spectrum data

File: ps__0852shot_2367.msa
#FORMAT      : EMSA/MAS spectral data file
#VERSION     : TC202v2.0 PIXL
#TITLE       : N/A
#DATE        :       Date in the format DD-MMM-YYYY, for example 07-JUL-2010
#TIME        :             The time of day at which the spectrum was recorded, in 24-hour format
#OWNER       : PIXL Flight Model       (PIXL will use this to indicate which instrument took the data.)
#NPOINTS     : 4096     Number of data points in the spectrum (This can be zero for configuration only files)
#NCOLUMNS    : 2     Number of data columns in the spectrum (This can be zero for configuration only files)
#XUNITS      : eV
#YUNITS      : COUNTS
#DATATYPE    : YY
#XPERCHAN    : 7.862, 7.881   eV per channel (separate by commas if more than one detector)
#OFFSET      : 18.5, -22.4         eV of first channel  (separate by commas if more than one detector
#SIGNALTYPE  : XRF
#YP_TEMP     : 2.524
#LIVETIME    : 8.5591, 8.55021   seconds (separate by commas if more than one detector)
#REALTIME    : 10, 10.0   seconds (separate by commas if more than one detector)
#SPECTRUM    : start of spectrum data
0, 0
0, 0
0, 0
0, 0
0, 0
0, 0
0, 0
0, 0
5, 2
5, 3
1, 2
55, 44
66, 58
6, 4
0, 3
109, 93
394, 423
104, 88
5, 4
2, 1
1, 0
2, 5
4, 2
12, 3
198, 37
286, 68
55, 24
17, 14
5, 3
1, 1
1, 1
2, 5
4, 2
31, 19
40, 27
11, 7
5, 8
28, 8
41, 7
18, 6
12, 7
9, 10
17, 25
14, 60
5, 84
13, 21
6, 11
6, 3
11, 8
14, 29
37, 22
34, 11
16, 10
29, 43
58, 43
20, 33
41, 61
482, 555
2178, 2252
1615, 1276
198, 140
28, 15
70, 23
153, 104
350, 310
225, 196
33, 16
7, 10
14, 16
8, 14
6, 5
4, 5
4, 3
6, 4
16, 6
66, 7
39, 5
22, 6
4, 4
3, 4
5, 4
3, 2
4, 3
2, 6
5, 8
3, 7
4, 5
2, 9
4, 5
4, 4
3, 5
5, 4
5, 7
6, 2
4, 2
5, 1
3, 3
5, 3
1, 7
3, 5
5, 1
6, 5
2, 2
7, 1
2, 2
2, 1
3, 0
2, 2
1, 2
5, 1
3, 2
3, 5
1, 2
6, 2
2, 3
5, 2
3, 5
3, 1
6, 3
1, 1
0, 2
0, 0
1, 4
1, 1
1, 1
1, 0
1, 1
0, 4
0, 0
1, 1
1, 0
0, 1
1, 2
2, 1
0, 1
3, 2
0, 1
5, 0
1, 1
0, 0
1, 1
0, 1
0, 2
0, 0
0, 1
1, 0
1, 0
0, 0
0, 1
0, 1
1, 0
0, 3
0, 0
0, 0
0, 0
0, 0
0, 0
0, 2
0, 0
0, 0
0, 0
0, 1
0, 0
0, 0
0, 0
0, 1
0, 0
1, 0
0, 0
1, 0
0, 1
0, 1
0, 0
0, 0
0, 0
0, 0
0, 0
0, 0
0, 0
0, 0
0, 1
0, 0
0, 0
0, 0
0, 1
0, 0
0, 1
0, 0
0, 0
0, 0
0, 0
0, 1
0, 0
0, 0
0, 0
0, 0
0, 0
0, 0
0, 0
1, 0
0, 0
0, 0
0, 0
0, 0
0, 0
0, 0
0, 0
0, 0
0, 0
0, 0
0, 0
0, 0
0, 0
0, 0
0, 0
0, 0
0, 0
0, 0
0, 0
0, 0
0, 0
0, 0
0, 1
0, 0
0, 0
0, 0
0, 0
0, 0
0, 0
0, 0
0, 0
0, 0
0, 0
0, 0
0, 0
0, 0
0, 0
0, 0
0, 0
0, 0
0, 0
0, 0
0, 0
0, 0
0, 0
0, 0
0, 0
0, 0
0, 0
0, 0
0, 0
0, 0
0, 0
0, 0
0, 0
0, 0
0, 0
0, 0
0, 0
0, 0
0, 0
0, 0
0, 0
0, 0
0, 0
0, 0
0, 0
0, 0
0, 0
0, 0
0, 0
0, 0
0, 0
0, 0
0, 0
0, 0
0, 0
0, 0
0, 0
0, 0
0, 0
0, 0
0, 0
0, 0
0, 0
0, 0
0, 0
0, 0
0, 0
0, 0
0, 0
0, 0
0, 0
0, 0
#ENDOFDATA     end of spectrum data

File: ps__0852shot_2368.msa
#FORMAT      : EMSA/MAS spectral data file
#VERSION     : TC202v2.0 PIXL
#TITLE       : N/A
#DATE        :       Date in the format DD-MMM-YYYY, for example 07-JUL-2010
#TIME        :             The time of day at which the spectrum was recorded, in 24-hour format
#OWNER       : PIXL Flight Model       (PIXL will use this to indicate which instrument took the data.)
#NPOINTS     : 4096     Number of data points in the spectrum (This can be zero for configuration only files)
#NCOLUMNS    : 2     Number of data columns in the spectrum (This can be zero for configuration only files)
#XUNITS      : eV
#YUNITS      : COUNTS
#DATATYPE    : YY
#XPERCHAN    : 7.862, 7.881   eV per channel (separate by commas if more than one detector)
#OFFSET      : 18.5, -22.4         eV of first channel  (separate by commas if more than one detector
#SIGNALTYPE  : XRF
#YP_TEMP     : 2.3
#LIVETIME    : 8.55416, 8.5575   seconds (separate by commas if more than one detector)
#REALTIME    : 10, 10.0   seconds (separate by commas if more than one detector)
#SPECTRUM    : start of spectrum data
0, 0
0, 0
0, 0
0, 0
0, 0
0, 0
0, 0
0, 0
1, 2
3, 1
6, 1
42, 43
80, 51
2, 4
6, 2
116, 77
423, 394
91, 89
6, 6
0, 1
1, 2
3, 4
3, 0
5, 7
106, 59
184, 70
30, 31
17, 19
1, 2
6, 1
2, 3
2, 1
6, 2
12, 15
17, 28
10, 9
4, 2
30, 4
53, 3
33, 7
7, 6
14, 11
6, 24
12, 72
7, 83
6, 15
3, 5
5, 5
10, 10
20, 45
44, 17
53, 17
28, 10
39, 36
76, 55
24, 28
27, 74
459, 552
2257, 2191
1581, 1383
186, 163
28, 12
69, 27
144, 131
357, 376
256, 195
30, 12
10, 6
17, 6
5, 10
6, 4
4, 4
5, 2
6, 2
18, 1
71, 6
71, 8
21, 8
6, 8
3, 4
6, 4
0, 2
2, 4
2, 3
5, 0
3, 3
5, 8
9, 9
3, 5
5, 1
4, 4
7, 5
2, 2
4, 2
3, 7
1, 4
3, 2
1, 2
3, 4
2, 6
9, 0
3, 2
6, 2
1, 3
0, 1
0, 4
2, 4
2, 2
4, 1
1, 1
2, 4
1, 1
2, 3
3, 4
0, 2
8, 1
5, 5
6, 3
4, 1
1, 3
2, 2
0, 1
0, 4
1, 2
1, 0
1, 3
3, 1
2, 1
4, 1
3, 2
2, 0
1, 2
2, 0
1, 1
0, 0
2, 0
0, 0
1, 1
1, 0
1, 0
3, 1
1, 0
0, 1
1, 1
1, 0
0, 0
0, 0
0, 1
0, 1
2, 0
0, 0
0, 0
0, 0
0, 0
0, 1
3, 0
0, 0
2, 0
1, 0
1, 0
0, 0
0, 0
0, 0
0, 0
1, 0
0, 0
0, 0
0, 1
1, 0
0, 0
0, 0
1, 0
1, 0
1, 0
0, 0
0, 1
0, 0
0, 0
0, 0
0, 0
0, 0
0, 0
0, 0
0, 0
0, 0
0, 0
0, 0
0, 0
0, 0
0, 0
0, 1
0, 0
0, 0
0, 0
0, 0
0, 0
1, 0
0, 0
0, 0
0, 0
0, 0
1, 0
0, 0
0, 0
0, 0
0, 0
0, 0
0, 0
0, 0
0, 0
0, 0
0, 0
0, 0
0, 0
0, 0
0, 0
0, 0
0, 0
0, 0
0, 0
0, 0
0, 0
0, 0
0, 0
0, 0
0, 0
0, 0
0, 0
0, 0
0, 0
0, 0
0, 0
0, 0
0, 0
0, 0
0, 0
0, 0
0, 0
0, 0
0, 0
0, 0
0, 0
0, 0
0, 0
0, 0
0, 0
0, 0
0, 0
0, 0
0, 0
0, 0
0, 0
0, 0
0, 0
0, 0
0, 0
0, 0
0, 0
0, 0
0, 0
0, 0
0, 0
0, 0
0, 0
0, 0
0, 0
0, 0
0, 0
0, 0
0, 0
0, 0
0, 0
0, 0
0, 0
0, 0
0, 0
0, 0
0, 0
0, 0
0, 0
0, 0
0, 0
0, 0
0, 0
0, 0
0, 0
0, 0
0, 0
0, 0
0, 0
0, 0
0, 0
0, 0
0, 0
#ENDOFDATA     end of spectrum data

File: ps__0852shot_2369.msa
#FORMAT      : EMSA/MAS spectral data file
#VERSION     : TC202v2.0 PIXL
#TITLE       : N/A
#DATE        :       Date in the format DD-MMM-YYYY, for example 07-JUL-2010
#TIME        :             The time of day at which the spectrum was recorded, in 24-hour format
#OWNER       : PIXL Flight Model       (PIXL will use this to indicate which instrument took the data.)
#NPOINTS     : 4096     Number of data points in the spectrum (This can be zero for configuration only files)
#NCOLUMNS    : 2     Number of data columns in the spectrum (This can be zero for configuration only files)
#XUNITS      : eV
#YUNITS      : COUNTS
#DATATYPE    : YY
#XPERCHAN    : 7.862, 7.881   eV per channel (separate by commas if more than one detector)
#OFFSET      : 18.5, -22.4         eV of first channel  (separate by commas if more than one detector
#SIGNALTYPE  : XRF
#YP_TEMP     : 2.3
#LIVETIME    : 8.5582, 8.56233   seconds (separate by commas if more than one detector)
#REALTIME    : 10, 10.0   seconds (separate by commas if more than one detector)
#SPECTRUM    : start of spectrum data
0, 0
0, 0
0, 0
0, 0
0, 0
0, 0
0, 0
0, 0
0, 3
2, 1
4, 4
46, 40
67, 75
3, 5
6, 9
89, 109
402, 418
114, 85
7, 3
0, 0
3, 1
4, 4
2, 2
9, 6
103, 33
148, 43
33, 17
11, 5
2, 5
2, 0
2, 2
1, 2
3, 9
15, 27
34, 26
9, 4
11, 4
27, 6
55, 9
24, 4
6, 4
6, 14
12, 26
17, 68
12, 95
7, 19
4, 11
5, 9
10, 12
15, 15
43, 13
47, 7
22, 13
38, 40
51, 60
26, 32
30, 72
489, 591
2241, 2431
1640, 1481
193, 176
27, 17
69, 16
161, 126
350, 390
224, 216
29, 28
5, 7
18, 14
10, 5
8, 3
2, 7
2, 6
3, 6
18, 7
57, 7
72, 2
19, 5
5, 5
6, 3
3, 6
4, 5
1, 1
1, 1
3, 7
5, 7
1, 3
4, 4
3, 6
2, 3
4, 5
0, 6
0, 2
3, 3
4, 1
3, 2
3, 0
1, 2
2, 0
2, 2
5, 4
8, 3
9, 4
3, 1
2, 1
4, 0
1, 2
0, 3
1, 3
4, 2
0, 0
4, 1
3, 4
5, 1
8, 2
2, 1
3, 6
4, 4
2, 4
3, 6
1, 2
3, 2
1, 4
3, 1
2, 3
0, 1
0, 0
1, 0
0, 1
0, 3
0, 0
3, 2
1, 1
0, 1
1, 0
0, 0
0, 0
3, 1
1, 1
2, 2
0, 0
1, 0
1, 0
0, 0
1, 1
0, 0
0, 1
0, 0
0, 1
2, 0
1, 0
0, 0
0, 0
0, 0
0, 0
0, 1
0, 0
0, 1
2, 1
1, 0
1, 0
0, 0
1, 0
0, 1
0, 0
0, 0
0, 0
1, 1
0, 1
0, 0
0, 1
0, 0
0, 0
0, 0
0, 0
0, 3
0, 0
0, 1
0, 0
0, 0
0, 0
0, 0
0, 0
0, 0
0, 0
0, 1
0, 0
0, 0
0, 0
0, 0
0, 0
1, 0
0, 0
0, 0
0, 0
0, 0
0, 0
0, 0
0, 0
0, 0
0, 0
0, 0
0, 0
0, 0
0, 0
0, 0
0, 0
0, 0
0, 0
0, 0
0, 0
0, 0
0, 0
0, 0
0, 0
0, 0
0, 0
0, 0
0, 0
0, 0
0, 0
0, 0
0, 0
0, 0
0, 0
0, 0
0, 0
0, 0
0, 0
0, 0
0, 0
0, 0
0, 0
0, 0
0, 0
0, 0
0, 0
0, 0
0, 0
0, 0
0, 0
0, 0
0, 0
0, 0
0, 0
0, 0
0, 0
0, 0
0, 0
0, 0
0, 0
0, 0
0, 0
0, 0
0, 0
0, 0
0, 0
0, 0
0, 0
0, 0
0, 0
0, 0
0, 0
0, 0
0, 0
0, 0
0, 0
0, 0
0, 0
0, 0
0, 0
0, 0
0, 0
0, 0
0, 0
0, 0
0, 0
0, 0
0, 0
0, 0
0, 0
0, 0
0, 0
0, 0
0, 0
0, 0
0, 0
0, 0
0, 0
0, 0
0, 0
0, 0
0, 0
0, 0
#ENDOFDATA     end of spectrum data

File: ps__0852shot_2370.msa
#FORMAT      : EMSA/MAS spectral data file
#VERSION     : TC202v2.0 PIXL
#TITLE       : N/A
#DATE        :       Date in the format DD-MMM-YYYY, for example 07-JUL-2010
#TIME        :             The time of day at which the spectrum was recorded, in 24-hour format
#OWNER       : PIXL Flight Model       (PIXL will use this to indicate which instrument took the data.)
#NPOINTS     : 4096     Number of data points in the spectrum (This can be zero for configuration only files)
#NCOLUMNS    : 2     Number of data columns in the spectrum (This can be zero for configuration only files)
#XUNITS      : eV
#YUNITS      : COUNTS
#DATATYPE    : YY
#XPERCHAN    : 7.862, 7.881   eV per channel (separate by commas if more than one detector)
#OFFSET      : 18.5, -22.4         eV of first channel  (separate by commas if more than one detector
#SIGNALTYPE  : XRF
#YP_TEMP     : 2.203
#LIVETIME    : 8.58893, 8.55111   seconds (separate by commas if more than one detector)
#REALTIME    : 10, 10.0   seconds (separate by commas if more than one detector)
#SPECTRUM    : start of spectrum data
0, 0
0, 0
0, 0
0, 0
0, 0
0, 0
0, 0
0, 0
0, 1
2, 1
2, 2
40, 39
59, 58
6, 8
4, 2
98, 105
461, 458
110, 100
14, 5
3, 1
4, 4
12, 18
7, 22
7, 18
60, 56
60, 80
20, 21
13, 19
8, 6
3, 4
2, 2
2, 3
14, 9
95, 111
179, 165
28, 21
23, 28
49, 27
24, 4
14, 1
7, 5
15, 12
22, 21
22, 33
12, 49
9, 20
15, 11
23, 7
7, 7
35, 30
21, 22
32, 9
13, 22
33, 67
80, 62
30, 26
40, 42
438, 502
1887, 2036
1453, 1264
178, 127
35, 20
61, 31
111, 102
292, 334
190, 185
35, 20
5, 9
18, 13
10, 9
8, 6
5, 5
5, 2
4, 7
7, 3
28, 3
24, 5
6, 2
6, 7
2, 11
4, 4
7, 5
3, 6
2, 8
5, 4
6, 4
5, 5
2, 2
3, 3
5, 2
6, 2
3, 3
4, 3
2, 4
7, 8
2, 5
3, 0
0, 6
7, 2
2, 5
6, 1
4, 8
1, 0
4, 3
3, 1
6, 4
4, 1
3, 1
0, 1
2, 1
0, 2
1, 0
1, 0
1, 4
3, 3
5, 1
3, 2
4, 2
0, 1
2, 2
1, 0
0, 1
1, 3
0, 0
2, 1
1, 1
0, 0
1, 0
0, 1
1, 1
0, 3
0, 0
0, 1
0, 1
2, 0
0, 1
1, 2
0, 0
0, 1
0, 0
1, 1
2, 1
0, 0
0, 0
0, 0
1, 0
1, 1
1, 0
0, 0
1, 2
0, 0
0, 0
1, 0
0, 0
0, 1
1, 0
0, 0
1, 0
0, 0
0, 0
0, 0
0, 0
0, 0
2, 0
0, 1
0, 0
1, 2
0, 0
0, 0
0, 0
1, 1
0, 0
0, 0
0, 0
2, 0
0, 0
0, 0
0, 0
0, 0
0, 0
0, 0
0, 0
0, 0
0, 0
0, 0
0, 0
0, 0
0, 0
0, 0
0, 1
0, 1
0, 0
0, 0
0, 0
0, 0
0, 0
0, 0
0, 0
1, 0
1, 1
0, 0
0, 0
0, 0
0, 0
0, 0
0, 0
0, 1
0, 0
0, 0
0, 0
0, 0
0, 0
0, 0
0, 0
0, 0
1, 0
0, 0
0, 0
0, 0
0, 0
0, 0
0, 0
0, 0
0, 0
0, 0
0, 0
0, 0
0, 0
0, 0
0, 0
0, 0
0, 0
0, 0
0, 0
0, 0
0, 0
0, 0
0, 0
0, 0
0, 0
0, 0
0, 0
0, 0
0, 0
0, 0
0, 0
0, 0
0, 0
0, 0
0, 0
0, 0
0, 0
0, 0
0, 0
0, 0
0, 0
0, 0
0, 0
0, 0
0, 0
0, 0
0, 0
0, 0
0, 0
0, 0
0, 0
0, 0
0, 0
0, 0
0, 0
0, 0
0, 0
0, 0
0, 0
0, 0
0, 0
0, 0
0, 0
0, 0
0, 0
0, 0
0, 0
0, 0
0, 0
0, 0
0, 0
0, 0
0, 0
0, 0
0, 0
0, 0
0, 0
0, 0
0, 0
#ENDOFDATA     end of spectrum data

File: ps__0852shot_2371.msa
#FORMAT      : EMSA/MAS spectral data file
#VERSION     : TC202v2.0 PIXL
#TITLE       : N/A
#DATE        :       Date in the format DD-MMM-YYYY, for example 07-JUL-2010
#TIME        :             The time of day at which the spectrum was recorded, in 24-hour format
#OWNER       : PIXL Flight Model       (PIXL will use this to indicate which instrument took the data.)
#NPOINTS     : 4096     Number of data points in the spectrum (This can be zero for configuration only files)
#NCOLUMNS    : 2     Number of data columns in the spectrum (This can be zero for configuration only files)
#XUNITS      : eV
#YUNITS      : COUNTS
#DATATYPE    : YY
#XPERCHAN    : 7.862, 7.881   eV per channel (separate by commas if more than one detector)
#OFFSET      : 18.5, -22.4         eV of first channel  (separate by commas if more than one detector
#SIGNALTYPE  : XRF
#YP_TEMP     : 2.203
#LIVETIME    : 8.55885, 8.55738   seconds (separate by commas if more than one detector)
#REALTIME    : 10, 10.0   seconds (separate by commas if more than one detector)
#SPECTRUM    : start of spectrum data
0, 0
0, 0
0, 0
0, 0
0, 0
0, 0
0, 0
0, 1
1, 0
0, 1
2, 2
49, 44
58, 62
6, 8
3, 4
86, 90
424, 417
114, 119
2, 4
0, 1
2, 1
7, 9
7, 8
2, 8
30, 28
29, 43
13, 25
10, 10
13, 3
5, 1
1, 3
3, 1
3, 4
22, 17
43, 32
13, 9
11, 5
6, 13
7, 2
1, 4
3, 4
9, 16
14, 43
43, 47
50, 13
17, 12
10, 4
8, 7
7, 9
17, 9
14, 7
7, 8
14, 28
39, 75
52, 86
28, 21
33, 35
472, 599
2175, 2423
1598, 1428
212, 122
94, 16
120, 23
128, 132
315, 376
223, 211
43, 27
9, 17
11, 17
4, 2
3, 8
2, 5
7, 6
4, 7
7, 4
5, 7
5, 7
11, 7
12, 2
2, 1
5, 7
6, 1
5, 3
4, 10
1, 25
4, 20
9, 18
1, 1
2, 4
13, 9
5, 5
7, 3
5, 3
3, 2
1, 3
2, 6
2, 3
2, 3
1, 3
2, 1
0, 2
2, 1
3, 1
2, 2
4, 8
1, 4
5, 4
1, 7
4, 5
1, 1
3, 5
3, 1
2, 1
4, 1
1, 4
3, 4
4, 5
3, 3
4, 1
1, 2
1, 0
1, 2
1, 2
0, 0
0, 1
2, 1
0, 1
0, 2
1, 3
0, 0
3, 0
1, 1
1, 3
2, 0
2, 1
1, 0
1, 0
0, 0
0, 1
2, 0
0, 0
0, 1
0, 0
2, 0
0, 1
0, 3
0, 1
1, 0
1, 0
0, 0
0, 0
0, 0
1, 0
1, 0
0, 0
0, 0
0, 0
0, 0
0, 0
0, 0
1, 0
0, 0
1, 1
0, 0
0, 1
0, 0
1, 0
0, 0
0, 0
0, 0
0, 1
0, 1
0, 1
0, 0
0, 0
0, 0
0, 0
0, 0
0, 0
0, 0
0, 0
0, 0
0, 0
0, 0
0, 0
0, 0
0, 0
0, 0
0, 0
0, 0
0, 0
1, 0
0, 0
0, 0
0, 0
0, 0
0, 0
0, 0
0, 0
0, 0
0, 0
0, 0
0, 0
0, 1
0, 0
0, 0
0, 0
0, 0
0, 0
0, 0
0, 0
0, 0
0, 0
0, 0
0, 0
0, 0
0, 0
0, 0
0, 0
0, 0
0, 0
0, 0
0, 0
0, 0
0, 0
0, 0
0, 0
0, 0
0, 0
0, 0
0, 0
0, 0
0, 0
0, 0
0, 0
0, 0
0, 0
0, 0
0, 0
0, 0
0, 0
0, 0
0, 0
0, 0
0, 0
0, 0
0, 0
0, 0
0, 0
0, 0
0, 0
0, 0
0, 0
0, 0
0, 0
0, 0
0, 0
0, 0
0, 0
0, 0
0, 0
0, 0
0, 0
0, 0
0, 0
0, 0
0, 0
0, 0
0, 0
0, 0
0, 0
0, 0
0, 0
0, 0
0, 0
0, 0
0, 0
0, 0
0, 0
0, 0
0, 0
0, 0
0, 0
0, 0
0, 0
0, 0
0, 0
0, 0
0, 0
0, 0
0, 0
0, 0
0, 0
0, 0
#ENDOFDATA     end of spectrum data

File: ps__0852shot_2372.msa
#FORMAT      : EMSA/MAS spectral data file
#VERSION     : TC202v2.0 PIXL
#TITLE       : N/A
#DATE        :       Date in the format DD-MMM-YYYY, for example 07-JUL-2010
#TIME        :             The time of day at which the spectrum was recorded, in 24-hour format
#OWNER       : PIXL Flight Model       (PIXL will use this to indicate which instrument took the data.)
#NPOINTS     : 4096     Number of data points in the spectrum (This can be zero for configuration only files)
#NCOLUMNS    : 2     Number of data columns in the spectrum (This can be zero for configuration only files)
#XUNITS      : eV
#YUNITS      : COUNTS
#DATATYPE    : YY
#XPERCHAN    : 7.862, 7.881   eV per channel (separate by commas if more than one detector)
#OFFSET      : 18.5, -22.4         eV of first channel  (separate by commas if more than one detector
#SIGNALTYPE  : XRF
#YP_TEMP     : 2.203
#LIVETIME    : 8.57553, 8.56803   seconds (separate by commas if more than one detector)
#REALTIME    : 10, 10.0   seconds (separate by commas if more than one detector)
#SPECTRUM    : start of spectrum data
0, 0
0, 0
0, 0
0, 0
0, 0
0, 0
0, 0
0, 0
0, 3
1, 1
4, 1
54, 52
78, 75
8, 3
3, 1
97, 85
482, 388
105, 101
3, 4
0, 2
0, 1
4, 0
2, 2
5, 4
18, 23
14, 26
13, 19
10, 8
2, 2
2, 1
3, 1
4, 1
1, 1
17, 8
8, 21
10, 6
3, 5
2, 7
1, 8
4, 6
10, 4
7, 10
18, 46
62, 45
97, 6
18, 6
7, 4
6, 5
7, 8
18, 15
13, 21
6, 8
11, 5
48, 37
75, 44
29, 12
20, 28
507, 557
2339, 2243
1612, 1315
225, 137
123, 15
107, 19
134, 128
337, 323
237, 165
31, 24
7, 18
14, 10
3, 7
2, 3
2, 2
5, 1
1, 2
4, 2
9, 3
5, 5
10, 1
9, 2
3, 3
3, 3
0, 3
2, 3
3, 4
4, 24
3, 34
3, 9
6, 2
6, 2
9, 7
15, 1
12, 0
3, 0
2, 1
4, 4
2, 7
1, 1
1, 2
3, 2
5, 0
4, 4
5, 6
2, 2
2, 3
1, 2
2, 0
4, 6
2, 2
1, 1
2, 3
2, 2
1, 1
0, 1
3, 3
2, 1
5, 5
2, 4
2, 1
0, 1
2, 1
1, 1
1, 4
4, 3
2, 2
2, 2
0, 1
2, 1
1, 0
2, 2
1, 1
1, 0
1, 1
1, 0
1, 0
0, 1
0, 2
1, 0
1, 1
1, 1
1, 1
0, 1
0, 0
0, 1
0, 0
1, 3
0, 0
0, 0
1, 2
0, 1
0, 0
0, 2
0, 1
0, 0
0, 0
0, 0
0, 0
0, 0
0, 0
0, 0
0, 0
0, 0
0, 0
0, 0
0, 0
0, 0
0, 0
2, 1
0, 1
1, 0
0, 0
0, 0
0, 0
0, 0
0, 1
0, 0
0, 0
0, 0
0, 0
0, 0
0, 0
1, 0
0, 1
1, 0
0, 0
0, 0
0, 1
1, 0
0, 0
0, 0
0, 0
0, 0
0, 0
1, 0
0, 0
0, 0
0, 0
0, 0
0, 0
0, 0
0, 0
0, 0
0, 1
0, 0
0, 0
0, 0
0, 0
0, 0
0, 0
0, 0
0, 0
0, 0
0, 0
0, 0
0, 0
0, 0
0, 0
0, 0
0, 0
0, 0
0, 0
0, 0
0, 0
0, 0
0, 0
0, 0
0, 0
0, 0
0, 0
0, 0
0, 0
0, 0
0, 0
0, 0
0, 0
0, 0
0, 0
0, 0
0, 0
0, 0
0, 0
0, 0
0, 0
0, 0
0, 0
0, 0
0, 0
0, 0
0, 0
0, 0
0, 0
0, 0
0, 0
0, 0
0, 0
0, 0
0, 0
0, 0
0, 0
0, 0
0, 0
0, 0
0, 0
0, 0
0, 0
0, 0
0, 0
0, 0
0, 0
0, 0
0, 0
0, 0
0, 0
0, 0
0, 0
0, 0
0, 0
0, 0
0, 0
0, 0
0, 0
0, 0
0, 0
0, 0
0, 0
0, 0
0, 0
0, 0
0, 0
0, 0
0, 0
0, 0
0, 0
0, 0
0, 0
#ENDOFDATA     end of spectrum data

File: ps__0852shot_2373.msa
#FORMAT      : EMSA/MAS spectral data file
#VERSION     : TC202v2.0 PIXL
#TITLE       : N/A
#DATE        :       Date in the format DD-MMM-YYYY, for example 07-JUL-2010
#TIME        :             The time of day at which the spectrum was recorded, in 24-hour format
#OWNER       : PIXL Flight Model       (PIXL will use this to indicate which instrument took the data.)
#NPOINTS     : 4096     Number of data points in the spectrum (This can be zero for configuration only files)
#NCOLUMNS    : 2     Number of data columns in the spectrum (This can be zero for configuration only files)
#XUNITS      : eV
#YUNITS      : COUNTS
#DATATYPE    : YY
#XPERCHAN    : 7.862, 7.881   eV per channel (separate by commas if more than one detector)
#OFFSET      : 18.5, -22.4         eV of first channel  (separate by commas if more than one detector
#SIGNALTYPE  : XRF
#YP_TEMP     : 2.267
#LIVETIME    : 8.56967, 8.56177   seconds (separate by commas if more than one detector)
#REALTIME    : 10, 10.0   seconds (separate by commas if more than one detector)
#SPECTRUM    : start of spectrum data
0, 0
0, 0
0, 0
0, 0
0, 0
0, 0
0, 0
0, 0
0, 1
1, 1
5, 2
50, 56
90, 61
7, 6
4, 8
102, 83
447, 367
105, 86
7, 5
0, 0
3, 3
7, 4
4, 7
16, 8
28, 16
29, 24
15, 23
15, 13
3, 5
0, 1
2, 1
1, 2
3, 1
17, 11
29, 24
4, 5
6, 3
12, 14
0, 26
1, 13
5, 4
8, 9
19, 31
62, 35
90, 2
27, 6
9, 2
4, 5
9, 7
14, 12
13, 5
10, 7
12, 8
33, 41
68, 64
19, 22
27, 36
531, 602
2282, 2337
1651, 1345
226, 144
73, 18
69, 15
120, 104
337, 375
243, 200
25, 30
6, 13
13, 12
9, 14
1, 2
3, 1
2, 3
5, 1
3, 5
3, 9
6, 6
8, 3
7, 2
3, 4
7, 9
5, 2
7, 5
3, 6
2, 13
5, 26
5, 7
10, 2
7, 2
18, 2
21, 2
5, 5
7, 0
3, 6
2, 0
3, 3
2, 8
5, 2
3, 2
1, 5
1, 0
2, 3
1, 5
3, 3
3, 5
2, 5
2, 2
1, 2
5, 2
0, 3
0, 3
1, 1
5, 3
1, 1
4, 3
7, 1
7, 2
2, 2
2, 1
2, 3
3, 0
4, 3
4, 4
0, 0
1, 0
2, 1
2, 2
2, 2
1, 2
3, 1
2, 0
1, 1
2, 1
2, 1
1, 2
1, 1
1, 0
2, 1
0, 1
0, 0
1, 1
0, 0
0, 0
0, 0
0, 0
0, 0
1, 0
0, 1
1, 0
0, 1
1, 0
0, 0
0, 0
1, 0
1, 0
0, 0
0, 0
0, 0
2, 1
0, 1
0, 0
1, 0
1, 0
0, 0
0, 1
0, 0
0, 0
0, 0
0, 0
0, 0
0, 1
0, 0
0, 0
1, 0
1, 0
1, 0
0, 0
0, 0
0, 0
0, 0
1, 0
0, 0
0, 0
0, 0
0, 0
0, 0
0, 1
0, 0
0, 0
0, 0
0, 0
0, 0
0, 0
0, 0
0, 1
0, 1
0, 0
0, 0
0, 0
0, 0
0, 0
0, 1
0, 0
0, 0
1, 0
0, 0
0, 0
0, 0
0, 0
0, 0
0, 0
0, 0
0, 0
0, 0
0, 0
0, 0
0, 0
0, 0
0, 0
0, 0
0, 0
0, 0
0, 0
0, 0
0, 0
0, 0
0, 0
0, 0
0, 0
0, 0
0, 0
0, 0
0, 0
0, 0
0, 0
0, 0
0, 0
0, 0
0, 0
0, 0
0, 0
0, 0
0, 0
0, 0
0, 0
0, 0
0, 0
0, 0
0, 0
0, 0
0, 0
0, 0
0, 0
0, 0
0, 0
0, 0
0, 0
0, 0
0, 0
0, 0
0, 0
0, 0
0, 0
0, 0
0, 0
0, 0
0, 0
0, 0
0, 0
0, 0
0, 0
0, 0
0, 0
0, 0
0, 0
0, 0
0, 0
0, 0
0, 0
0, 0
0, 0
0, 0
0, 0
0, 0
0, 0
0, 0
0, 0
0, 0
0, 0
0, 0
0, 0
0, 0
0, 0
0, 0
#ENDOFDATA     end of spectrum data