Folder: data-repository/host_upload/06-09-2024/ps_0852/dump3 (part 12)

File: ps__0852shot_2101.msa
#FORMAT      : EMSA/MAS spectral data file
#VERSION     : TC202v2.0 PIXL
#TITLE       : N/A
#DATE        :       Date in the format DD-MMM-YYYY, for example 07-JUL-2010
#TIME        :             The time of day at which the spectrum was recorded, in 24-hour format
#OWNER       : PIXL Flight Model       (PIXL will use this to indicate which instrument took the data.)
#NPOINTS     : 4096     Number of data points in the spectrum (This can be zero for configuration only files)
#NCOLUMNS    : 2     Number of data columns in the spectrum (This can be zero for configuration only files)
#XUNITS      : eV
#YUNITS      : COUNTS
#DATATYPE    : YY
#XPERCHAN    : 7.862, 7.881   eV per channel (separate by commas if more than one detector)
#OFFSET      : 18.5, -22.4         eV of first channel  (separate by commas if more than one detector
#SIGNALTYPE  : XRF
#YP_TEMP     : 2.139
#LIVETIME    : 8.54104, 8.53402   seconds (separate by commas if more than one detector)
#REALTIME    : 10, 10.0   seconds (separate by commas if more than one detector)
#SPECTRUM    : start of spectrum data
0, 0
0, 0
0, 0
0, 0
0, 0
0, 0
0, 0
0, 0
1, 1
2, 5
2, 4
29, 45
38, 46
3, 8
6, 2
51, 71
250, 319
84, 73
10, 5
4, 6
54, 84
348, 416
135, 186
43, 37
68, 58
68, 82
22, 30
9, 12
7, 5
2, 2
3, 2
0, 3
2, 3
17, 32
51, 61
17, 33
13, 23
9, 5
7, 4
3, 8
4, 4
12, 13
13, 13
11, 20
5, 11
10, 7
5, 8
5, 11
11, 7
35, 19
58, 12
27, 3
14, 15
40, 48
97, 61
45, 17
22, 39
414, 652
1765, 2528
1287, 1513
160, 154
16, 12
16, 30
96, 136
290, 394
178, 240
37, 29
14, 9
14, 11
5, 8
2, 5
2, 7
4, 15
5, 5
7, 8
6, 6
3, 5
5, 7
4, 6
3, 5
5, 3
16, 5
13, 8
6, 8
2, 4
1, 2
3, 4
4, 3
2, 14
2, 3
4, 7
2, 2
2, 1
3, 2
1, 0
4, 3
2, 1
1, 2
2, 5
3, 6
2, 3
2, 3
0, 3
2, 2
3, 2
0, 2
0, 3
1, 9
5, 4
3, 1
2, 1
3, 2
1, 4
3, 6
1, 1
3, 1
3, 2
3, 1
3, 1
0, 4
0, 1
1, 0
1, 1
2, 4
1, 1
2, 4
1, 0
0, 0
0, 2
2, 0
1, 1
0, 1
1, 0
0, 3
0, 0
0, 3
2, 1
0, 0
1, 3
0, 2
1, 1
0, 0
1, 0
2, 1
1, 0
0, 0
0, 1
0, 0
0, 0
1, 0
0, 0
0, 0
0, 0
1, 0
0, 0
0, 0
1, 1
0, 0
0, 0
0, 0
0, 0
1, 0
0, 0
1, 1
1, 1
0, 0
0, 0
0, 0
0, 1
1, 0
1, 0
1, 0
0, 0
0, 1
0, 0
0, 0
0, 0
0, 1
0, 0
1, 1
0, 0
0, 0
1, 0
0, 0
0, 0
0, 0
0, 0
0, 0
0, 0
0, 0
0, 0
0, 0
0, 0
0, 0
0, 0
0, 0
0, 1
0, 0
0, 0
0, 0
0, 0
0, 0
0, 0
0, 0
0, 0
0, 0
0, 0
0, 0
0, 0
0, 0
0, 0
0, 0
0, 0
0, 0
0, 1
0, 0
0, 0
0, 0
0, 0
0, 0
0, 0
0, 0
0, 0
0, 0
0, 0
0, 0
0, 0
0, 0
0, 0
0, 0
0, 0
0, 0
0, 0
0, 0
0, 0
0, 0
0, 0
0, 0
0, 0
0, 0
0, 0
0, 0
0, 0
0, 0
0, 0
0, 0
0, 0
0, 0
0, 0
0, 0
0, 0
0, 0
0, 0
0, 0
0, 0
0, 0
0, 0
0, 0
0, 0
0, 0
0, 0
0, 0
0, 0
0, 0
0, 0
0, 0
0, 0
0, 0
0, 0
0, 0
0, 0
0, 0
0, 0
0, 0
0, 0
0, 0
0, 0
0, 0
0, 0
0, 0
0, 0
0, 0
0, 0
0, 0
0, 0
0, 0
0, 0
0, 0
0, 0
0, 0
0, 0
0, 0
0, 0
0, 0
#ENDOFDATA     end of spectrum data

File: ps__0852shot_2102.msa
#FORMAT      : EMSA/MAS spectral data file
#VERSION     : TC202v2.0 PIXL
#TITLE       : N/A
#DATE        :       Date in the format DD-MMM-YYYY, for example 07-JUL-2010
#TIME        :             The time of day at which the spectrum was recorded, in 24-hour format
#OWNER       : PIXL Flight Model       (PIXL will use this to indicate which instrument took the data.)
#NPOINTS     : 4096     Number of data points in the spectrum (This can be zero for configuration only files)
#NCOLUMNS    : 2     Number of data columns in the spectrum (This can be zero for configuration only files)
#XUNITS      : eV
#YUNITS      : COUNTS
#DATATYPE    : YY
#XPERCHAN    : 7.862, 7.881   eV per channel (separate by commas if more than one detector)
#OFFSET      : 18.5, -22.4         eV of first channel  (separate by commas if more than one detector
#SIGNALTYPE  : XRF
#YP_TEMP     : 2.3
#LIVETIME    : 8.53373, 8.55658   seconds (separate by commas if more than one detector)
#REALTIME    : 10, 10.0   seconds (separate by commas if more than one detector)
#SPECTRUM    : start of spectrum data
0, 0
0, 0
0, 0
0, 0
0, 0
0, 0
0, 0
0, 0
1, 1
1, 1
1, 4
54, 62
64, 42
10, 4
4, 2
96, 106
395, 443
102, 104
3, 5
1, 0
2, 6
35, 24
4, 18
7, 7
24, 35
29, 35
15, 17
19, 16
2, 4
1, 3
1, 0
4, 0
0, 1
8, 8
7, 10
7, 4
3, 2
5, 4
0, 0
3, 0
5, 6
5, 12
13, 7
8, 9
5, 6
2, 5
5, 2
5, 6
4, 7
38, 17
93, 7
42, 6
13, 12
50, 30
101, 55
50, 16
43, 46
480, 599
1973, 2355
1536, 1343
211, 147
18, 15
17, 20
95, 140
324, 357
233, 174
33, 36
6, 9
16, 13
8, 4
6, 4
3, 5
10, 21
7, 10
2, 3
2, 2
4, 4
5, 7
9, 4
5, 4
19, 5
26, 11
17, 10
7, 6
6, 3
5, 1
2, 2
3, 3
5, 5
3, 5
5, 4
1, 2
6, 3
7, 4
8, 1
5, 3
2, 2
3, 3
1, 3
2, 1
6, 5
2, 5
3, 3
3, 1
3, 0
1, 4
0, 1
2, 3
2, 2
1, 1
1, 4
0, 3
2, 6
2, 6
2, 1
4, 4
7, 2
1, 2
0, 0
2, 0
1, 1
0, 1
2, 1
3, 3
0, 1
0, 1
5, 3
0, 1
1, 0
0, 0
0, 0
0, 0
1, 0
0, 0
0, 1
0, 3
0, 0
1, 0
0, 1
0, 2
0, 1
0, 1
0, 1
1, 1
1, 1
0, 0
0, 2
0, 1
0, 2
0, 2
1, 0
1, 0
0, 0
0, 0
1, 0
0, 0
0, 0
1, 0
1, 0
0, 1
0, 0
0, 0
0, 0
0, 0
0, 0
0, 0
0, 0
0, 0
0, 0
0, 2
0, 0
0, 0
0, 1
0, 0
0, 0
0, 0
0, 1
0, 0
0, 0
0, 0
1, 0
0, 0
0, 0
0, 0
0, 1
0, 0
0, 0
0, 0
0, 0
0, 0
0, 0
0, 0
0, 1
0, 0
0, 0
0, 0
0, 0
0, 0
0, 0
0, 0
0, 0
0, 0
0, 0
0, 0
0, 0
0, 0
0, 0
0, 0
0, 0
0, 0
0, 0
0, 0
0, 0
0, 0
0, 0
0, 0
0, 0
0, 0
0, 0
0, 0
0, 0
0, 0
0, 0
0, 0
0, 0
0, 0
0, 0
0, 0
0, 0
0, 0
0, 0
0, 0
0, 0
0, 0
0, 0
0, 0
0, 0
0, 0
0, 0
0, 0
0, 0
0, 0
0, 0
0, 0
0, 0
0, 0
0, 0
0, 0
0, 0
0, 0
0, 0
0, 0
0, 0
0, 0
0, 0
0, 0
0, 0
0, 0
0, 0
0, 0
0, 0
0, 0
0, 0
0, 0
0, 0
0, 0
0, 0
0, 0
0, 0
0, 0
0, 0
0, 0
0, 0
0, 0
0, 0
0, 0
0, 0
0, 0
0, 0
0, 0
0, 0
0, 0
0, 0
0, 0
0, 0
0, 0
0, 0
0, 0
0, 0
0, 0
0, 0
0, 0
0, 0
0, 0
#ENDOFDATA     end of spectrum data

File: ps__0852shot_2103.msa
#FORMAT      : EMSA/MAS spectral data file
#VERSION     : TC202v2.0 PIXL
#TITLE       : N/A
#DATE        :       Date in the format DD-MMM-YYYY, for example 07-JUL-2010
#TIME        :             The time of day at which the spectrum was recorded, in 24-hour format
#OWNER       : PIXL Flight Model       (PIXL will use this to indicate which instrument took the data.)
#NPOINTS     : 4096     Number of data points in the spectrum (This can be zero for configuration only files)
#NCOLUMNS    : 2     Number of data columns in the spectrum (This can be zero for configuration only files)
#XUNITS      : eV
#YUNITS      : COUNTS
#DATATYPE    : YY
#XPERCHAN    : 7.862, 7.881   eV per channel (separate by commas if more than one detector)
#OFFSET      : 18.5, -22.4         eV of first channel  (separate by commas if more than one detector
#SIGNALTYPE  : XRF
#YP_TEMP     : 2.428
#LIVETIME    : 8.54955, 8.55382   seconds (separate by commas if more than one detector)
#REALTIME    : 10, 10.0   seconds (separate by commas if more than one detector)
#SPECTRUM    : start of spectrum data
0, 0
0, 0
0, 0
0, 0
0, 0
0, 0
0, 0
0, 0
1, 1
2, 1
1, 3
53, 44
67, 62
2, 3
5, 3
91, 101
436, 448
107, 101
7, 6
0, 0
3, 0
7, 8
2, 8
9, 7
22, 21
27, 27
20, 14
11, 8
3, 2
3, 2
0, 3
0, 2
0, 3
3, 8
13, 20
5, 5
4, 2
6, 5
2, 3
3, 2
6, 6
10, 8
9, 7
5, 10
8, 6
1, 5
5, 4
5, 3
5, 7
57, 14
89, 8
40, 6
12, 7
61, 39
88, 50
44, 18
35, 34
465, 585
2059, 2160
1613, 1339
213, 120
15, 12
17, 26
91, 117
315, 362
209, 187
34, 20
5, 10
6, 9
12, 4
4, 3
3, 11
7, 10
7, 4
4, 6
1, 9
6, 4
12, 4
4, 4
4, 7
15, 6
22, 6
15, 8
10, 14
3, 5
4, 2
5, 3
3, 1
5, 5
7, 3
6, 5
2, 6
3, 1
3, 2
4, 4
2, 2
0, 7
4, 3
6, 0
2, 2
3, 1
2, 0
4, 2
4, 2
4, 2
2, 3
1, 4
3, 6
1, 4
4, 0
1, 1
2, 1
0, 4
3, 5
1, 2
2, 0
3, 4
5, 3
2, 0
1, 2
1, 1
0, 1
4, 3
0, 5
2, 2
0, 2
1, 0
0, 0
2, 2
0, 1
2, 0
0, 0
2, 1
0, 1
1, 1
1, 0
0, 1
3, 0
0, 0
1, 1
0, 2
2, 0
1, 0
2, 0
0, 1
0, 1
0, 1
0, 0
0, 0
2, 0
0, 0
0, 0
0, 0
0, 0
0, 0
0, 0
0, 1
0, 0
0, 1
0, 0
0, 0
0, 0
1, 1
1, 0
1, 1
1, 0
0, 1
2, 1
0, 0
0, 1
1, 0
0, 0
0, 1
1, 0
0, 0
0, 0
1, 0
0, 0
1, 0
0, 0
0, 0
0, 0
0, 0
0, 0
0, 0
0, 0
1, 0
0, 0
0, 0
0, 0
0, 0
0, 0
1, 1
0, 0
0, 0
0, 0
0, 0
0, 0
0, 0
0, 0
0, 0
0, 0
0, 0
0, 0
0, 0
0, 0
0, 0
0, 0
0, 0
0, 0
0, 0
0, 0
0, 0
0, 0
0, 0
0, 0
0, 0
0, 0
0, 0
0, 0
0, 0
0, 0
0, 0
0, 0
0, 0
0, 0
0, 0
0, 0
0, 0
0, 0
0, 0
0, 0
0, 0
0, 0
0, 0
0, 0
0, 0
0, 0
0, 0
0, 0
0, 0
0, 0
0, 0
0, 0
0, 0
0, 0
0, 0
0, 0
0, 0
0, 0
0, 0
0, 0
0, 0
0, 0
0, 0
0, 0
0, 0
0, 0
0, 0
0, 0
0, 0
0, 0
0, 0
0, 0
0, 0
0, 0
0, 0
0, 0
0, 0
0, 0
0, 0
0, 0
0, 0
0, 0
0, 0
0, 0
0, 0
0, 0
0, 0
0, 0
0, 0
0, 0
0, 0
0, 0
0, 0
0, 0
0, 0
0, 0
0, 0
0, 0
0, 0
0, 0
0, 0
0, 0
#ENDOFDATA     end of spectrum data

File: ps__0852shot_2104.msa
#FORMAT      : EMSA/MAS spectral data file
#VERSION     : TC202v2.0 PIXL
#TITLE       : N/A
#DATE        :       Date in the format DD-MMM-YYYY, for example 07-JUL-2010
#TIME        :             The time of day at which the spectrum was recorded, in 24-hour format
#OWNER       : PIXL Flight Model       (PIXL will use this to indicate which instrument took the data.)
#NPOINTS     : 4096     Number of data points in the spectrum (This can be zero for configuration only files)
#NCOLUMNS    : 2     Number of data columns in the spectrum (This can be zero for configuration only files)
#XUNITS      : eV
#YUNITS      : COUNTS
#DATATYPE    : YY
#XPERCHAN    : 7.862, 7.881   eV per channel (separate by commas if more than one detector)
#OFFSET      : 18.5, -22.4         eV of first channel  (separate by commas if more than one detector
#SIGNALTYPE  : XRF
#YP_TEMP     : 2.396
#LIVETIME    : 8.56407, 8.53196   seconds (separate by commas if more than one detector)
#REALTIME    : 10, 10.0   seconds (separate by commas if more than one detector)
#SPECTRUM    : start of spectrum data
0, 0
0, 0
0, 0
0, 0
0, 0
0, 0
0, 0
0, 0
0, 0
0, 0
2, 5
36, 38
60, 70
4, 1
1, 3
102, 96
456, 456
114, 122
11, 3
1, 1
1, 4
7, 10
12, 5
31, 8
39, 16
39, 24
21, 17
20, 9
5, 5
2, 5
3, 1
1, 2
7, 4
37, 46
63, 61
11, 15
11, 9
8, 8
5, 2
0, 4
4, 10
7, 14
16, 13
14, 7
11, 9
18, 9
25, 9
9, 8
11, 8
53, 27
90, 15
35, 8
16, 10
39, 39
92, 44
50, 25
34, 31
464, 590
1956, 2051
1468, 1264
182, 136
11, 19
18, 22
85, 136
310, 335
230, 194
31, 28
13, 7
15, 13
16, 10
9, 6
1, 11
6, 6
4, 0
6, 6
5, 9
3, 6
4, 5
9, 3
5, 4
13, 8
18, 7
8, 5
5, 9
4, 4
5, 4
2, 6
1, 8
3, 2
3, 6
4, 4
4, 6
2, 1
2, 6
2, 4
2, 5
5, 5
3, 4
3, 4
6, 1
9, 3
3, 5
1, 2
0, 3
3, 2
4, 3
3, 3
1, 2
1, 1
2, 1
1, 0
6, 0
4, 3
2, 0
1, 2
2, 4
7, 2
4, 2
3, 1
0, 3
1, 0
1, 1
4, 0
1, 1
0, 0
0, 1
0, 0
0, 1
0, 2
0, 0
0, 0
0, 0
2, 0
0, 2
1, 0
1, 0
0, 0
1, 1
0, 1
0, 0
0, 2
0, 1
1, 0
2, 0
0, 0
0, 0
0, 2
1, 0
0, 0
0, 0
0, 0
0, 1
0, 0
0, 1
0, 0
0, 1
0, 0
0, 0
0, 0
0, 0
0, 0
2, 0
0, 0
0, 1
0, 0
0, 0
0, 1
0, 0
0, 0
1, 0
0, 0
0, 0
2, 0
0, 0
0, 0
0, 0
0, 0
0, 0
0, 0
0, 0
0, 0
0, 1
0, 0
0, 0
0, 0
0, 0
0, 0
0, 0
0, 0
0, 0
1, 0
0, 0
0, 0
0, 0
1, 0
0, 0
0, 0
0, 0
0, 0
0, 0
0, 0
0, 0
0, 0
1, 0
0, 0
0, 0
0, 0
0, 0
0, 0
0, 0
0, 0
0, 0
0, 0
0, 0
0, 0
0, 0
0, 0
0, 0
0, 0
0, 0
0, 0
0, 0
0, 0
0, 0
0, 0
0, 0
0, 0
0, 0
0, 0
0, 0
0, 0
0, 0
0, 0
0, 0
0, 0
0, 0
0, 0
0, 0
0, 0
0, 0
0, 0
0, 0
0, 0
0, 0
0, 0
0, 0
0, 0
0, 0
0, 0
0, 0
0, 0
0, 0
0, 0
0, 0
0, 0
0, 0
0, 0
0, 0
0, 0
0, 0
0, 0
0, 0
0, 0
0, 0
0, 0
0, 0
0, 0
0, 0
0, 0
0, 0
0, 0
0, 0
0, 0
0, 0
0, 0
0, 0
0, 0
0, 0
0, 0
0, 0
0, 0
0, 0
0, 0
0, 0
0, 0
0, 0
0, 0
0, 0
0, 0
0, 0
0, 0
0, 0
0, 0
0, 0
#ENDOFDATA     end of spectrum data

File: ps__0852shot_2105.msa
#FORMAT      : EMSA/MAS spectral data file
#VERSION     : TC202v2.0 PIXL
#TITLE       : N/A
#DATE        :       Date in the format DD-MMM-YYYY, for example 07-JUL-2010
#TIME        :             The time of day at which the spectrum was recorded, in 24-hour format
#OWNER       : PIXL Flight Model       (PIXL will use this to indicate which instrument took the data.)
#NPOINTS     : 4096     Number of data points in the spectrum (This can be zero for configuration only files)
#NCOLUMNS    : 2     Number of data columns in the spectrum (This can be zero for configuration only files)
#XUNITS      : eV
#YUNITS      : COUNTS
#DATATYPE    : YY
#XPERCHAN    : 7.862, 7.881   eV per channel (separate by commas if more than one detector)
#OFFSET      : 18.5, -22.4         eV of first channel  (separate by commas if more than one detector
#SIGNALTYPE  : XRF
#YP_TEMP     : 2.235
#LIVETIME    : 8.5723, 8.5449   seconds (separate by commas if more than one detector)
#REALTIME    : 10, 10.0   seconds (separate by commas if more than one detector)
#SPECTRUM    : start of spectrum data
0, 0
0, 0
0, 0
0, 0
0, 0
0, 0
0, 0
0, 0
0, 1
0, 2
5, 2
31, 43
64, 55
8, 10
1, 2
80, 124
389, 472
116, 100
7, 6
2, 0
4, 4
47, 41
24, 22
29, 17
54, 45
32, 39
25, 22
12, 8
11, 4
2, 1
2, 2
4, 4
5, 4
44, 47
60, 92
11, 21
7, 12
10, 13
4, 5
4, 5
3, 5
7, 9
12, 13
9, 10
7, 8
16, 9
19, 6
3, 17
9, 10
14, 15
28, 11
6, 5
8, 9
59, 44
151, 61
60, 21
34, 56
396, 570
1866, 2398
1357, 1419
158, 142
12, 16
18, 19
75, 146
275, 375
209, 216
43, 25
9, 8
13, 12
20, 5
5, 4
2, 4
3, 2
4, 5
3, 3
3, 6
3, 2
0, 9
1, 2
5, 1
4, 3
5, 0
3, 3
4, 4
9, 5
4, 6
5, 3
1, 1
0, 8
1, 5
3, 5
2, 1
2, 9
1, 9
1, 2
5, 2
0, 1
5, 5
4, 3
4, 7
4, 3
2, 1
1, 2
2, 1
0, 3
5, 1
2, 1
11, 2
10, 3
7, 1
2, 2
4, 3
2, 2
1, 1
1, 2
2, 3
5, 5
3, 2
1, 0
1, 2
1, 3
2, 0
1, 2
2, 0
2, 0
0, 1
1, 1
2, 0
0, 3
1, 0
1, 0
2, 1
3, 1
0, 2
0, 1
1, 0
0, 1
0, 0
0, 0
1, 1
0, 1
0, 0
1, 0
1, 0
0, 0
1, 1
1, 0
1, 2
1, 0
0, 0
1, 1
0, 0
1, 1
0, 0
0, 0
0, 0
2, 0
0, 0
0, 1
0, 0
0, 1
0, 0
1, 0
0, 0
0, 0
0, 0
0, 0
1, 1
0, 0
0, 1
0, 1
0, 2
0, 0
0, 2
0, 0
0, 0
0, 0
0, 0
0, 0
0, 0
0, 0
0, 0
2, 0
0, 0
0, 0
0, 0
0, 0
1, 0
0, 0
0, 0
0, 0
0, 0
1, 0
0, 0
0, 0
0, 0
0, 0
0, 0
0, 0
0, 0
0, 0
0, 0
0, 0
0, 0
0, 0
0, 0
0, 0
0, 0
0, 0
0, 0
0, 0
0, 0
0, 0
0, 0
0, 0
0, 0
0, 0
0, 0
0, 0
0, 0
0, 0
0, 0
0, 0
0, 0
0, 0
0, 0
0, 0
0, 0
0, 0
0, 0
0, 0
0, 0
0, 0
0, 0
0, 0
0, 0
0, 0
0, 0
0, 0
0, 0
0, 0
0, 0
0, 0
0, 0
0, 0
0, 0
0, 0
0, 0
0, 0
0, 0
0, 0
0, 0
0, 0
0, 0
0, 0
0, 0
0, 0
0, 0
0, 0
0, 0
0, 0
0, 0
0, 0
0, 0
0, 0
0, 0
0, 0
0, 0
0, 0
0, 0
0, 0
0, 0
0, 0
0, 0
0, 0
0, 0
0, 0
0, 0
0, 0
0, 0
0, 0
0, 0
0, 0
0, 0
0, 0
0, 0
0, 0
0, 0
0, 0
0, 0
0, 0
0, 0
0, 0
0, 0
#ENDOFDATA     end of spectrum data

File: ps__0852shot_2106.msa
#FORMAT      : EMSA/MAS spectral data file
#VERSION     : TC202v2.0 PIXL
#TITLE       : N/A
#DATE        :       Date in the format DD-MMM-YYYY, for example 07-JUL-2010
#TIME        :             The time of day at which the spectrum was recorded, in 24-hour format
#OWNER       : PIXL Flight Model       (PIXL will use this to indicate which instrument took the data.)
#NPOINTS     : 4096     Number of data points in the spectrum (This can be zero for configuration only files)
#NCOLUMNS    : 2     Number of data columns in the spectrum (This can be zero for configuration only files)
#XUNITS      : eV
#YUNITS      : COUNTS
#DATATYPE    : YY
#XPERCHAN    : 7.862, 7.881   eV per channel (separate by commas if more than one detector)
#OFFSET      : 18.5, -22.4         eV of first channel  (separate by commas if more than one detector
#SIGNALTYPE  : XRF
#YP_TEMP     : 2.332
#LIVETIME    : 8.51714, 8.32789   seconds (separate by commas if more than one detector)
#REALTIME    : 10, 10.0   seconds (separate by commas if more than one detector)
#SPECTRUM    : start of spectrum data
0, 0
0, 0
0, 0
0, 0
0, 0
0, 0
1, 0
0, 0
1, 1
2, 4
2, 3
36, 38
44, 54
3, 9
5, 5
81, 80
333, 363
90, 94
8, 8
6, 5
40, 58
316, 340
93, 138
25, 38
64, 69
63, 71
26, 29
25, 21
4, 2
2, 8
8, 4
5, 1
5, 4
42, 69
87, 113
18, 17
17, 10
25, 14
3, 4
8, 2
1, 5
7, 8
13, 20
10, 7
13, 6
11, 12
8, 16
9, 9
8, 12
28, 30
36, 25
22, 9
10, 8
77, 45
117, 54
69, 21
19, 33
420, 532
1830, 2129
1419, 1187
183, 117
18, 22
11, 20
97, 119
289, 293
212, 180
29, 24
8, 5
13, 6
22, 11
10, 7
1, 4
4, 4
7, 4
5, 3
4, 4
2, 4
4, 2
6, 6
5, 3
4, 4
2, 6
2, 3
5, 2
6, 5
7, 6
8, 5
6, 5
3, 3
3, 4
4, 4
5, 6
2, 11
3, 8
3, 5
6, 4
0, 2
3, 3
6, 4
5, 6
4, 6
2, 8
2, 4
4, 1
4, 3
2, 1
6, 3
6, 2
14, 4
7, 1
0, 3
4, 2
2, 2
3, 2
1, 4
5, 4
2, 7
6, 8
2, 2
0, 2
1, 0
3, 0
2, 0
1, 2
0, 1
0, 1
1, 1
0, 3
1, 1
1, 2
1, 1
1, 2
2, 1
0, 1
2, 0
0, 1
1, 0
0, 0
0, 0
1, 2
2, 0
1, 0
0, 0
0, 1
0, 0
0, 0
0, 0
0, 0
0, 1
0, 0
0, 0
0, 0
0, 0
1, 0
0, 0
0, 0
0, 0
1, 0
0, 0
0, 1
2, 0
0, 0
0, 0
1, 0
0, 0
0, 0
0, 0
0, 0
0, 1
1, 0
0, 1
0, 1
0, 0
0, 0
0, 0
0, 0
1, 0
0, 0
0, 0
0, 0
0, 0
1, 0
0, 0
0, 0
0, 0
0, 1
0, 0
0, 0
1, 0
0, 0
0, 0
1, 0
0, 0
0, 0
0, 0
0, 0
0, 0
0, 0
0, 0
0, 0
0, 0
0, 0
0, 0
0, 0
0, 0
0, 0
0, 0
0, 0
0, 0
0, 0
0, 0
0, 0
0, 0
0, 0
0, 0
0, 0
0, 0
0, 0
0, 1
0, 0
0, 0
0, 0
0, 0
0, 0
0, 0
0, 0
0, 0
0, 0
0, 0
0, 0
0, 0
0, 0
0, 0
0, 0
0, 0
0, 0
0, 0
0, 0
0, 0
0, 0
0, 0
0, 0
0, 0
0, 0
0, 0
0, 0
0, 0
0, 0
0, 0
0, 0
0, 0
0, 0
0, 0
0, 0
0, 0
0, 0
0, 0
0, 0
0, 0
0, 0
0, 0
0, 0
0, 0
0, 0
0, 0
0, 0
0, 0
0, 0
0, 0
0, 0
0, 0
0, 0
0, 0
0, 0
0, 0
0, 0
0, 0
0, 0
0, 0
0, 0
0, 0
0, 0
0, 0
0, 0
0, 0
0, 0
0, 0
0, 0
0, 0
0, 0
0, 0
0, 0
0, 0
0, 0
#ENDOFDATA     end of spectrum data

File: ps__0852shot_2107.msa
#FORMAT      : EMSA/MAS spectral data file
#VERSION     : TC202v2.0 PIXL
#TITLE       : N/A
#DATE        :       Date in the format DD-MMM-YYYY, for example 07-JUL-2010
#TIME        :             The time of day at which the spectrum was recorded, in 24-hour format
#OWNER       : PIXL Flight Model       (PIXL will use this to indicate which instrument took the data.)
#NPOINTS     : 4096     Number of data points in the spectrum (This can be zero for configuration only files)
#NCOLUMNS    : 2     Number of data columns in the spectrum (This can be zero for configuration only files)
#XUNITS      : eV
#YUNITS      : COUNTS
#DATATYPE    : YY
#XPERCHAN    : 7.862, 7.881   eV per channel (separate by commas if more than one detector)
#OFFSET      : 18.5, -22.4         eV of first channel  (separate by commas if more than one detector
#SIGNALTYPE  : XRF
#YP_TEMP     : 2.3
#LIVETIME    : 8.53024, 8.521   seconds (separate by commas if more than one detector)
#REALTIME    : 10, 10.0   seconds (separate by commas if more than one detector)
#SPECTRUM    : start of spectrum data
0, 0
0, 0
0, 0
0, 0
0, 0
0, 0
0, 0
0, 1
0, 1
3, 5
1, 5
28, 52
45, 48
7, 1
5, 5
63, 76
273, 310
55, 81
7, 8
3, 2
62, 74
355, 490
149, 159
35, 48
83, 92
69, 81
47, 40
27, 11
4, 8
4, 8
6, 8
8, 6
8, 7
62, 89
79, 126
11, 16
19, 19
16, 21
4, 4
5, 6
3, 6
11, 16
17, 23
14, 17
7, 12
13, 18
8, 22
6, 11
10, 14
29, 32
35, 42
33, 31
11, 11
37, 62
60, 52
23, 23
25, 49
404, 606
1736, 2410
1255, 1386
179, 158
24, 17
14, 28
78, 134
298, 390
208, 223
30, 18
8, 6
19, 12
35, 14
21, 10
9, 4
3, 12
8, 11
7, 5
0, 5
6, 7
3, 3
6, 3
5, 5
4, 6
2, 7
5, 6
5, 8
2, 5
4, 6
2, 9
3, 5
4, 6
1, 10
4, 13
1, 9
4, 5
4, 3
4, 3
3, 2
2, 3
3, 3
0, 4
4, 2
6, 4
6, 4
3, 3
3, 0
5, 1
1, 3
0, 3
3, 0
7, 1
0, 4
2, 2
4, 3
1, 3
1, 5
7, 0
2, 5
2, 6
3, 2
1, 1
1, 1
4, 1
2, 1
0, 5
3, 2
3, 3
1, 0
1, 1
1, 0
1, 1
1, 2
1, 2
0, 1
1, 2
0, 0
1, 0
0, 0
0, 0
1, 0
1, 1
0, 0
0, 0
0, 2
1, 1
0, 0
0, 3
1, 1
1, 0
0, 1
0, 2
0, 1
1, 0
0, 1
0, 1
2, 1
0, 1
0, 0
0, 0
0, 0
0, 1
0, 0
0, 0
0, 0
0, 0
0, 2
0, 0
0, 0
0, 0
0, 0
0, 0
0, 2
0, 0
0, 1
0, 0
0, 0
0, 0
0, 0
0, 0
0, 0
0, 0
0, 0
0, 0
0, 1
0, 1
0, 0
0, 0
0, 0
0, 0
0, 0
0, 0
0, 0
0, 0
0, 0
0, 0
0, 0
0, 2
0, 0
0, 0
0, 0
0, 0
0, 1
0, 0
0, 0
1, 0
0, 1
0, 0
0, 0
0, 0
0, 0
0, 0
0, 0
0, 0
0, 0
0, 0
0, 0
0, 0
0, 0
0, 0
0, 0
0, 0
0, 0
0, 0
0, 0
0, 0
0, 0
0, 0
0, 0
0, 0
0, 0
0, 0
0, 0
0, 0
0, 0
0, 0
0, 0
0, 0
0, 0
0, 0
0, 0
0, 0
0, 0
0, 0
0, 0
0, 0
0, 0
0, 0
0, 0
0, 0
0, 0
0, 0
0, 0
0, 0
0, 0
0, 0
0, 0
0, 0
0, 0
0, 0
0, 0
0, 0
0, 0
0, 0
0, 0
0, 0
0, 0
0, 0
0, 0
0, 0
0, 0
0, 0
0, 0
0, 0
0, 0
0, 0
0, 0
0, 0
0, 0
0, 0
0, 0
0, 0
0, 0
0, 0
0, 0
0, 0
0, 0
0, 0
0, 0
0, 0
0, 0
0, 0
0, 0
0, 0
0, 0
0, 0
0, 0
#ENDOFDATA     end of spectrum data

File: ps__0852shot_2108.msa
#FORMAT      : EMSA/MAS spectral data file
#VERSION     : TC202v2.0 PIXL
#TITLE       : N/A
#DATE        :       Date in the format DD-MMM-YYYY, for example 07-JUL-2010
#TIME        :             The time of day at which the spectrum was recorded, in 24-hour format
#OWNER       : PIXL Flight Model       (PIXL will use this to indicate which instrument took the data.)
#NPOINTS     : 4096     Number of data points in the spectrum (This can be zero for configuration only files)
#NCOLUMNS    : 2     Number of data columns in the spectrum (This can be zero for configuration only files)
#XUNITS      : eV
#YUNITS      : COUNTS
#DATATYPE    : YY
#XPERCHAN    : 7.862, 7.881   eV per channel (separate by commas if more than one detector)
#OFFSET      : 18.5, -22.4         eV of first channel  (separate by commas if more than one detector
#SIGNALTYPE  : XRF
#YP_TEMP     : 2.364
#LIVETIME    : 8.53397, 8.52802   seconds (separate by commas if more than one detector)
#REALTIME    : 10, 10.0   seconds (separate by commas if more than one detector)
#SPECTRUM    : start of spectrum data
0, 0
0, 0
0, 0
0, 0
0, 0
0, 0
0, 0
0, 0
3, 5
1, 2
4, 1
27, 32
38, 46
2, 1
4, 4
61, 77
286, 289
81, 71
4, 6
4, 5
36, 36
172, 164
67, 59
29, 37
110, 127
68, 72
34, 23
15, 23
8, 5
1, 5
14, 9
5, 4
4, 6
32, 30
39, 36
10, 7
8, 1
8, 7
6, 5
7, 5
7, 6
4, 11
16, 18
16, 15
10, 15
5, 25
7, 25
2, 10
7, 7
20, 17
73, 36
55, 24
14, 17
28, 47
72, 65
22, 28
28, 54
465, 629
2121, 2581
1590, 1472
195, 152
15, 16
27, 25
96, 114
321, 387
264, 201
30, 28
8, 2
15, 15
45, 7
57, 3
13, 5
14, 2
8, 8
6, 4
2, 3
6, 4
4, 3
3, 4
7, 4
12, 6
7, 3
5, 4
6, 6
2, 3
1, 12
2, 7
5, 4
13, 5
6, 18
4, 11
9, 8
6, 2
2, 0
5, 8
3, 6
4, 2
1, 2
2, 3
4, 1
17, 4
8, 3
6, 4
0, 1
0, 2
2, 1
0, 1
2, 6
1, 4
2, 0
0, 3
2, 2
1, 3
0, 1
0, 2
4, 4
5, 4
1, 5
1, 2
2, 2
3, 2
2, 3
3, 3
2, 1
1, 4
1, 1
2, 2
1, 0
2, 1
1, 1
3, 0
0, 0
1, 1
2, 0
2, 0
1, 0
0, 0
0, 2
1, 0
2, 2
0, 1
1, 0
0, 0
0, 0
1, 0
0, 1
0, 0
0, 0
1, 0
1, 0
1, 0
0, 0
0, 0
1, 0
2, 0
1, 0
0, 0
1, 0
0, 0
0, 0
0, 0
0, 0
0, 0
0, 0
0, 1
0, 0
0, 0
0, 0
0, 0
0, 0
0, 0
0, 0
0, 0
2, 0
0, 0
0, 1
0, 0
0, 1
0, 0
0, 0
0, 0
0, 0
0, 0
0, 0
0, 0
0, 0
0, 0
0, 1
0, 0
0, 0
0, 0
0, 0
0, 0
0, 0
0, 0
0, 0
0, 0
0, 0
0, 0
0, 0
0, 0
0, 0
0, 0
0, 0
0, 0
0, 0
0, 0
0, 0
0, 0
0, 0
0, 0
0, 0
0, 0
0, 0
0, 0
0, 0
0, 0
0, 0
0, 0
0, 0
0, 0
0, 0
0, 0
0, 0
0, 0
0, 0
0, 0
0, 0
0, 0
0, 0
0, 0
0, 0
0, 0
0, 0
0, 0
0, 0
0, 0
0, 0
0, 0
0, 0
0, 0
0, 0
0, 0
0, 0
0, 0
0, 0
0, 0
0, 0
0, 0
0, 0
0, 0
0, 0
0, 0
0, 0
0, 0
0, 0
0, 0
0, 0
0, 0
0, 0
0, 0
0, 0
0, 0
0, 0
0, 0
0, 0
0, 0
0, 0
0, 0
0, 0
0, 0
0, 0
0, 0
0, 0
0, 0
0, 0
0, 0
0, 0
0, 0
0, 0
0, 0
0, 0
0, 0
0, 0
0, 0
0, 0
0, 0
0, 0
0, 0
0, 0
0, 0
0, 0
0, 0
0, 0
#ENDOFDATA     end of spectrum data

File: ps__0852shot_2109.msa
#FORMAT      : EMSA/MAS spectral data file
#VERSION     : TC202v2.0 PIXL
#TITLE       : N/A
#DATE        :       Date in the format DD-MMM-YYYY, for example 07-JUL-2010
#TIME        :             The time of day at which the spectrum was recorded, in 24-hour format
#OWNER       : PIXL Flight Model       (PIXL will use this to indicate which instrument took the data.)
#NPOINTS     : 4096     Number of data points in the spectrum (This can be zero for configuration only files)
#NCOLUMNS    : 2     Number of data columns in the spectrum (This can be zero for configuration only files)
#XUNITS      : eV
#YUNITS      : COUNTS
#DATATYPE    : YY
#XPERCHAN    : 7.862, 7.881   eV per channel (separate by commas if more than one detector)
#OFFSET      : 18.5, -22.4         eV of first channel  (separate by commas if more than one detector
#SIGNALTYPE  : XRF
#YP_TEMP     : 2.428
#LIVETIME    : 8.5496, 8.55329   seconds (separate by commas if more than one detector)
#REALTIME    : 10, 10.0   seconds (separate by commas if more than one detector)
#SPECTRUM    : start of spectrum data
0, 0
0, 0
0, 0
0, 0
0, 0
0, 0
0, 0
1, 0
0, 0
3, 1
7, 0
29, 26
32, 40
5, 3
6, 3
60, 53
262, 234
50, 65
9, 8
3, 3
67, 72
303, 319
116, 112
44, 63
130, 150
91, 89
38, 28
21, 28
9, 6
3, 6
20, 14
10, 8
9, 7
54, 74
71, 98
21, 23
9, 11
21, 18
8, 3
1, 4
3, 4
4, 14
18, 19
26, 16
7, 14
9, 33
2, 17
5, 1
11, 10
23, 26
63, 32
35, 26
14, 10
37, 66
61, 68
21, 21
29, 53
464, 671
2099, 2356
1576, 1507
218, 163
14, 15
19, 21
118, 108
314, 383
229, 192
25, 25
7, 8
13, 9
42, 6
50, 4
10, 2
4, 3
11, 6
5, 4
8, 5
6, 7
3, 1
4, 3
2, 5
3, 4
9, 6
10, 2
3, 5
2, 9
2, 8
6, 3
6, 0
4, 6
7, 6
2, 20
8, 3
9, 6
4, 4
2, 2
5, 2
1, 4
5, 3
1, 2
2, 4
10, 10
3, 4
3, 2
2, 4
2, 2
3, 2
5, 2
0, 2
2, 1
1, 3
2, 4
1, 1
2, 0
3, 2
1, 0
4, 0
4, 4
1, 4
0, 3
4, 1
2, 0
2, 0
3, 1
1, 2
1, 2
0, 1
1, 0
0, 2
0, 2
1, 0
0, 2
1, 0
1, 1
1, 0
2, 0
0, 0
1, 0
2, 1
2, 2
0, 1
2, 0
0, 0
1, 0
1, 0
0, 1
3, 0
2, 0
2, 1
0, 0
0, 0
1, 1
1, 1
0, 0
0, 0
0, 0
0, 0
1, 1
1, 0
0, 0
0, 1
0, 0
0, 0
0, 1
0, 0
1, 1
0, 0
0, 1
0, 0
1, 1
0, 0
0, 0
0, 1
0, 1
0, 1
0, 0
0, 0
0, 0
0, 0
0, 0
0, 0
0, 0
0, 0
0, 0
0, 0
0, 1
0, 0
0, 0
0, 0
0, 0
1, 0
0, 0
0, 0
1, 0
0, 0
0, 1
0, 0
0, 0
0, 0
0, 0
0, 0
0, 1
0, 0
0, 0
0, 0
0, 0
0, 0
0, 0
0, 0
0, 0
0, 0
0, 0
0, 0
0, 0
0, 0
0, 0
0, 0
0, 0
0, 0
0, 0
0, 0
0, 0
0, 0
0, 0
0, 0
0, 0
0, 0
0, 0
0, 0
0, 0
0, 0
0, 0
0, 0
0, 0
0, 0
0, 0
0, 0
0, 0
0, 0
0, 0
0, 0
0, 0
0, 0
0, 0
0, 0
0, 0
0, 0
0, 0
0, 0
0, 0
0, 0
0, 0
0, 0
0, 0
0, 0
0, 0
0, 0
0, 0
0, 0
0, 0
0, 0
0, 0
0, 0
0, 0
0, 0
0, 0
0, 0
0, 0
0, 0
0, 0
0, 0
0, 0
0, 0
0, 0
0, 0
0, 0
0, 0
0, 0
0, 0
0, 0
0, 0
0, 0
0, 0
0, 0
0, 0
0, 0
0, 0
0, 0
0, 0
0, 0
0, 0
0, 0
0, 0
0, 0
0, 0
#ENDOFDATA     end of spectrum data