Folder: data-repository/host_upload/06-09-2024/ps_0852/dump3 (part 30)

File: ps__0852shot_2264.msa
#FORMAT      : EMSA/MAS spectral data file
#VERSION     : TC202v2.0 PIXL
#TITLE       : N/A
#DATE        :       Date in the format DD-MMM-YYYY, for example 07-JUL-2010
#TIME        :             The time of day at which the spectrum was recorded, in 24-hour format
#OWNER       : PIXL Flight Model       (PIXL will use this to indicate which instrument took the data.)
#NPOINTS     : 4096     Number of data points in the spectrum (This can be zero for configuration only files)
#NCOLUMNS    : 2     Number of data columns in the spectrum (This can be zero for configuration only files)
#XUNITS      : eV
#YUNITS      : COUNTS
#DATATYPE    : YY
#XPERCHAN    : 7.862, 7.881   eV per channel (separate by commas if more than one detector)
#OFFSET      : 18.5, -22.4         eV of first channel  (separate by commas if more than one detector
#SIGNALTYPE  : XRF
#YP_TEMP     : 2.171
#LIVETIME    : 8.55155, 8.58748   seconds (separate by commas if more than one detector)
#REALTIME    : 10, 10.0   seconds (separate by commas if more than one detector)
#SPECTRUM    : start of spectrum data
0, 0
0, 0
0, 0
0, 0
0, 0
0, 0
0, 0
0, 0
1, 2
2, 15
6, 4
32, 52
64, 56
9, 7
8, 6
101, 102
428, 435
100, 117
8, 8
1, 2
2, 4
3, 2
1, 1
12, 45
67, 591
75, 938
23, 117
15, 13
9, 4
2, 4
1, 2
0, 2
4, 1
7, 9
7, 8
5, 6
9, 44
22, 40
14, 2
3, 2
3, 7
6, 12
13, 14
9, 37
5, 29
5, 6
8, 5
2, 2
3, 12
11, 16
20, 13
17, 5
12, 4
38, 50
46, 60
23, 27
29, 42
438, 597
2016, 2403
1519, 1505
223, 186
28, 43
35, 42
87, 144
337, 372
209, 232
30, 26
3, 12
9, 12
13, 3
7, 7
6, 5
5, 4
18, 8
20, 4
19, 4
17, 6
7, 7
7, 4
5, 5
4, 3
2, 3
3, 5
4, 4
6, 5
6, 3
3, 4
3, 2
0, 2
6, 4
4, 2
4, 3
1, 5
2, 6
3, 2
2, 0
4, 2
2, 5
1, 11
6, 7
0, 6
2, 2
0, 5
2, 1
1, 1
0, 4
0, 2
4, 3
1, 5
0, 7
3, 3
2, 5
0, 4
2, 1
2, 2
3, 3
4, 4
5, 3
1, 1
3, 1
0, 1
1, 3
1, 2
0, 6
1, 1
1, 3
0, 0
0, 2
2, 0
1, 3
1, 1
0, 0
2, 5
3, 1
0, 1
0, 1
1, 1
0, 0
1, 0
0, 1
0, 0
0, 1
1, 0
1, 1
1, 0
0, 0
0, 1
1, 0
1, 0
0, 0
0, 0
1, 0
0, 1
0, 1
1, 0
0, 0
0, 0
0, 1
0, 1
0, 0
0, 1
0, 0
0, 1
1, 0
1, 0
2, 1
0, 1
0, 0
0, 1
0, 1
0, 0
1, 0
0, 0
0, 0
0, 0
0, 0
0, 0
0, 0
0, 0
0, 0
1, 0
0, 0
0, 0
0, 0
0, 2
0, 0
0, 0
0, 0
0, 0
0, 0
0, 0
0, 0
0, 0
0, 0
0, 0
0, 0
0, 1
0, 0
0, 0
0, 0
0, 0
0, 0
0, 0
0, 0
0, 0
0, 0
0, 0
0, 0
0, 0
0, 0
0, 0
0, 0
0, 0
0, 0
0, 0
0, 0
0, 0
0, 0
0, 0
0, 0
0, 0
0, 0
0, 0
0, 0
0, 0
0, 0
0, 0
0, 0
0, 0
0, 0
0, 0
0, 0
0, 0
0, 0
0, 0
0, 0
0, 0
0, 0
0, 0
0, 0
0, 0
0, 0
0, 0
0, 0
0, 0
0, 0
0, 0
0, 0
0, 0
0, 0
0, 0
0, 0
0, 0
0, 0
0, 0
0, 0
0, 0
0, 0
0, 0
0, 0
0, 0
0, 0
0, 0
0, 0
0, 0
0, 0
0, 0
0, 0
0, 0
0, 0
0, 0
0, 0
0, 0
0, 0
0, 0
0, 0
0, 0
0, 0
0, 0
0, 0
0, 0
0, 0
0, 0
0, 0
0, 0
0, 0
0, 0
0, 0
0, 0
0, 0
0, 0
0, 0
0, 0
0, 0
#ENDOFDATA     end of spectrum data

File: ps__0852shot_2265.msa
#FORMAT      : EMSA/MAS spectral data file
#VERSION     : TC202v2.0 PIXL
#TITLE       : N/A
#DATE        :       Date in the format DD-MMM-YYYY, for example 07-JUL-2010
#TIME        :             The time of day at which the spectrum was recorded, in 24-hour format
#OWNER       : PIXL Flight Model       (PIXL will use this to indicate which instrument took the data.)
#NPOINTS     : 4096     Number of data points in the spectrum (This can be zero for configuration only files)
#NCOLUMNS    : 2     Number of data columns in the spectrum (This can be zero for configuration only files)
#XUNITS      : eV
#YUNITS      : COUNTS
#DATATYPE    : YY
#XPERCHAN    : 7.862, 7.881   eV per channel (separate by commas if more than one detector)
#OFFSET      : 18.5, -22.4         eV of first channel  (separate by commas if more than one detector
#SIGNALTYPE  : XRF
#YP_TEMP     : 2.171
#LIVETIME    : 8.56789, 8.57612   seconds (separate by commas if more than one detector)
#REALTIME    : 10, 10.0   seconds (separate by commas if more than one detector)
#SPECTRUM    : start of spectrum data
0, 0
0, 0
0, 0
0, 0
0, 0
0, 0
0, 0
0, 0
1, 11
1, 12
0, 9
44, 47
55, 51
7, 8
4, 7
97, 103
464, 455
93, 110
2, 7
2, 3
1, 4
3, 4
3, 4
11, 33
68, 839
88, 1197
37, 150
16, 15
2, 2
5, 2
0, 1
2, 1
4, 4
9, 8
8, 10
7, 6
10, 33
16, 45
6, 8
4, 2
8, 3
9, 7
16, 13
10, 8
6, 10
6, 9
3, 8
7, 9
5, 12
11, 13
5, 14
6, 6
5, 5
39, 37
73, 55
19, 31
29, 38
477, 608
2107, 2372
1602, 1412
194, 152
32, 54
26, 42
110, 128
359, 364
190, 202
42, 25
2, 7
16, 14
4, 9
4, 2
3, 3
12, 5
26, 12
29, 8
9, 12
10, 6
2, 6
1, 2
8, 2
1, 6
6, 2
0, 3
7, 5
3, 4
8, 5
6, 4
5, 1
1, 4
3, 2
4, 1
0, 2
2, 1
2, 3
2, 5
5, 2
4, 5
2, 4
4, 9
2, 5
2, 3
6, 2
4, 3
3, 3
1, 1
2, 0
5, 2
2, 3
1, 2
2, 5
0, 2
1, 6
2, 1
1, 1
1, 2
1, 4
1, 7
4, 3
2, 2
4, 5
0, 4
1, 6
2, 3
5, 2
2, 0
2, 1
1, 1
1, 0
0, 2
1, 2
0, 0
1, 1
1, 1
3, 1
3, 1
1, 2
1, 0
0, 0
2, 1
0, 0
0, 0
1, 1
1, 0
0, 3
1, 0
0, 0
0, 0
2, 1
1, 0
0, 1
1, 0
0, 1
0, 0
1, 0
0, 0
0, 1
0, 0
0, 0
0, 0
0, 0
0, 0
0, 1
0, 0
1, 1
0, 0
0, 0
0, 0
0, 0
0, 0
0, 0
1, 0
1, 1
0, 1
1, 0
0, 0
1, 0
0, 1
0, 0
0, 1
0, 0
0, 1
0, 0
0, 0
0, 1
0, 1
0, 0
0, 1
0, 0
0, 0
0, 0
0, 1
0, 0
0, 0
0, 0
0, 0
0, 0
0, 0
0, 0
1, 0
0, 0
0, 0
0, 0
0, 0
0, 0
0, 0
0, 0
0, 0
0, 0
0, 0
0, 0
0, 0
0, 0
0, 0
0, 0
0, 0
0, 1
0, 0
0, 0
0, 0
0, 0
0, 0
0, 0
0, 0
0, 0
0, 0
0, 0
0, 0
0, 0
0, 0
0, 0
0, 0
0, 0
0, 0
0, 0
0, 0
0, 0
0, 0
0, 0
0, 0
0, 0
0, 0
0, 0
0, 0
0, 0
0, 0
0, 0
0, 0
0, 0
0, 0
0, 0
0, 0
0, 0
0, 0
0, 0
0, 0
0, 0
0, 0
0, 0
0, 0
0, 0
0, 0
0, 0
0, 0
0, 0
0, 0
0, 0
0, 0
0, 0
0, 0
0, 0
0, 0
0, 0
0, 0
0, 0
0, 0
0, 0
0, 0
0, 0
0, 0
0, 0
0, 0
0, 0
0, 0
0, 0
0, 0
0, 0
0, 0
0, 0
0, 0
0, 0
0, 0
0, 0
0, 0
0, 0
#ENDOFDATA     end of spectrum data

File: ps__0852shot_2266.msa
#FORMAT      : EMSA/MAS spectral data file
#VERSION     : TC202v2.0 PIXL
#TITLE       : N/A
#DATE        :       Date in the format DD-MMM-YYYY, for example 07-JUL-2010
#TIME        :             The time of day at which the spectrum was recorded, in 24-hour format
#OWNER       : PIXL Flight Model       (PIXL will use this to indicate which instrument took the data.)
#NPOINTS     : 4096     Number of data points in the spectrum (This can be zero for configuration only files)
#NCOLUMNS    : 2     Number of data columns in the spectrum (This can be zero for configuration only files)
#XUNITS      : eV
#YUNITS      : COUNTS
#DATATYPE    : YY
#XPERCHAN    : 7.862, 7.881   eV per channel (separate by commas if more than one detector)
#OFFSET      : 18.5, -22.4         eV of first channel  (separate by commas if more than one detector
#SIGNALTYPE  : XRF
#YP_TEMP     : 2.364
#LIVETIME    : 8.56178, 8.35547   seconds (separate by commas if more than one detector)
#REALTIME    : 10, 10.0   seconds (separate by commas if more than one detector)
#SPECTRUM    : start of spectrum data
0, 0
0, 0
0, 0
0, 0
0, 0
0, 0
0, 0
0, 1
1, 18
0, 65
3, 23
58, 37
72, 69
7, 9
6, 14
110, 131
433, 434
118, 95
5, 8
1, 8
0, 8
4, 3
5, 11
9, 152
37, 2878
56, 4099
21, 414
15, 23
3, 7
3, 0
4, 4
2, 0
1, 6
11, 12
24, 29
7, 2
10, 16
19, 17
10, 22
4, 11
3, 7
8, 11
14, 10
16, 11
15, 6
13, 7
9, 3
8, 6
24, 15
40, 36
13, 27
13, 11
4, 16
45, 38
65, 65
22, 15
36, 35
438, 625
2072, 2346
1512, 1364
214, 113
39, 39
37, 73
76, 163
343, 345
228, 207
26, 30
7, 12
11, 15
13, 11
2, 3
5, 3
5, 2
14, 7
13, 9
5, 30
3, 31
4, 11
2, 4
4, 3
5, 2
1, 8
3, 6
9, 6
4, 4
16, 3
4, 5
7, 3
4, 6
4, 4
1, 4
3, 3
3, 4
0, 2
4, 2
5, 4
6, 7
6, 4
8, 9
3, 8
3, 5
0, 0
3, 2
3, 3
3, 2
0, 0
2, 2
4, 2
4, 5
3, 0
3, 2
5, 4
1, 6
0, 3
0, 3
1, 4
2, 4
4, 2
3, 1
1, 2
1, 5
2, 1
1, 1
1, 3
2, 2
0, 2
0, 2
2, 1
0, 3
0, 0
0, 0
1, 0
0, 3
1, 0
0, 3
1, 1
0, 1
2, 1
0, 2
1, 0
0, 2
1, 0
0, 1
0, 0
0, 0
0, 4
3, 0
0, 1
1, 0
0, 0
0, 0
0, 1
0, 0
0, 0
0, 0
0, 0
1, 0
0, 0
0, 1
0, 0
0, 0
0, 0
1, 1
0, 2
0, 0
0, 0
1, 0
0, 0
0, 0
0, 0
0, 0
0, 1
0, 0
0, 1
0, 0
0, 0
0, 1
0, 0
0, 0
0, 0
0, 0
0, 0
0, 0
0, 0
0, 0
0, 0
1, 0
0, 0
0, 0
0, 0
0, 0
0, 0
0, 0
1, 1
0, 0
0, 0
0, 0
0, 0
1, 0
0, 0
0, 0
0, 0
0, 1
0, 0
0, 0
0, 0
0, 0
0, 1
0, 0
0, 0
1, 0
0, 0
0, 0
0, 0
0, 0
0, 0
0, 0
0, 0
0, 0
0, 0
0, 0
0, 0
0, 0
0, 0
0, 0
0, 0
0, 0
0, 0
0, 0
0, 0
0, 0
0, 0
0, 0
0, 0
0, 0
0, 0
0, 0
0, 0
0, 0
0, 0
0, 0
0, 0
0, 0
0, 0
0, 0
0, 0
0, 0
0, 0
0, 0
0, 0
0, 0
0, 0
0, 0
0, 0
0, 0
0, 0
0, 0
0, 0
0, 0
0, 0
0, 0
0, 0
0, 0
0, 0
0, 0
0, 0
0, 0
0, 0
0, 0
0, 0
0, 0
0, 0
0, 0
0, 0
0, 0
0, 0
0, 0
0, 0
0, 0
0, 0
0, 0
0, 0
0, 0
0, 0
0, 0
0, 0
0, 0
0, 0
0, 0
0, 0
0, 0
0, 0
0, 0
0, 0
#ENDOFDATA     end of spectrum data

File: ps__0852shot_2267.msa
#FORMAT      : EMSA/MAS spectral data file
#VERSION     : TC202v2.0 PIXL
#TITLE       : N/A
#DATE        :       Date in the format DD-MMM-YYYY, for example 07-JUL-2010
#TIME        :             The time of day at which the spectrum was recorded, in 24-hour format
#OWNER       : PIXL Flight Model       (PIXL will use this to indicate which instrument took the data.)
#NPOINTS     : 4096     Number of data points in the spectrum (This can be zero for configuration only files)
#NCOLUMNS    : 2     Number of data columns in the spectrum (This can be zero for configuration only files)
#XUNITS      : eV
#YUNITS      : COUNTS
#DATATYPE    : YY
#XPERCHAN    : 7.862, 7.881   eV per channel (separate by commas if more than one detector)
#OFFSET      : 18.5, -22.4         eV of first channel  (separate by commas if more than one detector
#SIGNALTYPE  : XRF
#YP_TEMP     : 2.652
#LIVETIME    : 8.56224, 8.55961   seconds (separate by commas if more than one detector)
#REALTIME    : 10, 10.0   seconds (separate by commas if more than one detector)
#SPECTRUM    : start of spectrum data
0, 0
0, 0
0, 0
0, 0
0, 0
0, 0
0, 0
0, 0
1, 8
1, 28
1, 3
41, 51
58, 58
11, 7
4, 2
104, 97
448, 435
119, 105
1, 5
0, 3
0, 1
4, 5
2, 4
3, 50
30, 971
53, 1403
26, 181
10, 13
10, 1
7, 2
9, 1
1, 0
0, 1
24, 31
40, 46
11, 15
6, 35
11, 20
2, 12
6, 4
1, 14
10, 17
15, 19
57, 11
123, 10
64, 7
10, 3
6, 1
15, 7
22, 21
20, 16
15, 12
10, 9
31, 49
60, 61
28, 30
41, 26
495, 600
2165, 2295
1626, 1323
195, 124
20, 22
25, 44
94, 139
285, 340
240, 199
26, 25
7, 10
10, 11
8, 7
6, 5
2, 19
12, 28
32, 14
28, 5
7, 14
4, 14
5, 3
1, 5
3, 7
4, 6
2, 9
0, 4
4, 7
2, 5
7, 2
5, 1
5, 4
8, 4
5, 6
2, 7
3, 4
1, 4
3, 8
15, 7
16, 6
7, 6
6, 3
4, 2
1, 6
3, 5
4, 2
2, 2
5, 2
1, 2
5, 0
1, 4
1, 1
5, 3
1, 6
3, 3
4, 3
4, 2
1, 3
2, 4
2, 5
6, 1
7, 2
3, 3
2, 2
1, 3
1, 3
2, 3
2, 1
1, 4
0, 2
1, 1
0, 2
2, 0
3, 0
1, 1
1, 1
1, 0
0, 0
0, 1
1, 0
0, 0
2, 2
0, 1
0, 0
0, 0
1, 0
0, 0
0, 2
0, 2
1, 0
0, 0
0, 0
1, 0
1, 0
0, 0
1, 0
0, 0
0, 1
0, 0
0, 1
0, 1
0, 1
0, 0
0, 1
0, 1
0, 0
0, 0
1, 0
1, 0
0, 2
0, 0
0, 0
1, 1
1, 1
0, 0
0, 1
0, 0
0, 0
0, 0
0, 0
0, 0
0, 0
0, 0
0, 0
1, 0
0, 0
0, 1
0, 0
0, 0
0, 1
0, 1
0, 0
0, 0
0, 0
0, 0
0, 0
0, 0
0, 0
0, 0
1, 0
0, 0
0, 0
0, 0
0, 0
0, 0
1, 0
0, 0
0, 0
0, 0
0, 0
0, 0
0, 0
0, 0
1, 0
0, 0
0, 0
0, 0
0, 0
0, 0
0, 0
0, 0
0, 0
0, 0
0, 0
0, 0
0, 0
0, 0
0, 0
0, 0
0, 0
0, 0
0, 0
0, 0
0, 0
0, 0
0, 0
0, 0
0, 0
0, 0
0, 0
0, 0
0, 0
0, 0
0, 0
0, 0
0, 0
0, 0
0, 0
0, 0
0, 0
0, 0
0, 0
0, 0
0, 0
0, 0
0, 0
0, 0
0, 0
0, 0
0, 0
0, 0
0, 0
0, 0
0, 0
0, 0
0, 0
0, 0
0, 0
0, 0
0, 0
0, 0
0, 0
0, 0
0, 0
0, 0
0, 0
0, 0
0, 0
0, 0
0, 0
0, 0
0, 0
0, 0
0, 0
0, 0
0, 0
0, 0
0, 0
0, 0
0, 0
0, 0
0, 0
0, 0
0, 0
0, 0
0, 0
0, 0
0, 0
#ENDOFDATA     end of spectrum data

File: ps__0852shot_2268.msa
#FORMAT      : EMSA/MAS spectral data file
#VERSION     : TC202v2.0 PIXL
#TITLE       : N/A
#DATE        :       Date in the format DD-MMM-YYYY, for example 07-JUL-2010
#TIME        :             The time of day at which the spectrum was recorded, in 24-hour format
#OWNER       : PIXL Flight Model       (PIXL will use this to indicate which instrument took the data.)
#NPOINTS     : 4096     Number of data points in the spectrum (This can be zero for configuration only files)
#NCOLUMNS    : 2     Number of data columns in the spectrum (This can be zero for configuration only files)
#XUNITS      : eV
#YUNITS      : COUNTS
#DATATYPE    : YY
#XPERCHAN    : 7.862, 7.881   eV per channel (separate by commas if more than one detector)
#OFFSET      : 18.5, -22.4         eV of first channel  (separate by commas if more than one detector
#SIGNALTYPE  : XRF
#YP_TEMP     : 2.3
#LIVETIME    : 8.58069, 8.5567   seconds (separate by commas if more than one detector)
#REALTIME    : 10, 10.0   seconds (separate by commas if more than one detector)
#SPECTRUM    : start of spectrum data
0, 0
0, 0
0, 0
0, 0
0, 0
0, 0
0, 0
0, 0
0, 3
0, 0
3, 5
47, 64
66, 61
6, 5
0, 7
101, 128
457, 432
116, 108
7, 7
0, 3
0, 1
2, 2
7, 1
8, 5
25, 49
29, 47
22, 15
10, 12
7, 8
9, 6
10, 5
2, 5
3, 3
12, 10
19, 16
5, 7
9, 25
10, 10
11, 11
15, 14
6, 7
9, 11
10, 17
38, 23
142, 62
60, 37
15, 10
11, 3
16, 8
34, 13
23, 15
8, 5
13, 14
38, 56
58, 54
12, 25
36, 41
438, 574
2065, 2299
1573, 1410
196, 117
22, 10
18, 20
98, 134
334, 368
204, 207
37, 21
5, 6
10, 12
10, 9
7, 6
6, 10
9, 19
19, 10
25, 12
12, 1
4, 2
3, 7
3, 4
4, 3
4, 3
0, 5
4, 7
1, 4
5, 2
2, 6
2, 6
5, 4
9, 8
5, 1
3, 3
1, 2
2, 2
7, 3
8, 3
8, 6
8, 2
3, 4
4, 1
4, 3
2, 2
1, 3
1, 1
5, 2
2, 4
3, 3
2, 0
0, 1
3, 1
1, 2
4, 2
1, 2
3, 1
3, 0
3, 3
1, 2
2, 2
4, 0
3, 1
2, 1
0, 0
3, 5
1, 3
1, 0
1, 4
1, 1
2, 4
0, 4
1, 0
1, 1
1, 1
1, 1
2, 1
2, 1
2, 0
0, 0
0, 0
2, 0
0, 0
1, 1
0, 1
1, 1
1, 0
1, 0
0, 0
0, 1
0, 1
0, 1
0, 0
0, 0
0, 0
0, 0
1, 2
0, 1
1, 0
0, 1
0, 0
0, 0
2, 0
0, 0
2, 2
1, 0
0, 0
0, 0
0, 0
0, 0
0, 0
0, 0
0, 0
0, 1
2, 0
0, 0
1, 0
0, 0
0, 0
0, 1
0, 1
0, 1
0, 0
0, 0
0, 0
0, 0
0, 0
0, 0
0, 0
0, 0
0, 0
0, 0
0, 0
0, 0
0, 0
0, 0
0, 0
0, 0
1, 1
0, 0
0, 0
0, 0
0, 0
0, 0
0, 0
1, 0
0, 0
0, 0
0, 0
0, 0
0, 0
0, 0
0, 0
0, 0
0, 0
0, 0
0, 0
0, 0
0, 0
0, 0
0, 0
0, 0
0, 0
0, 0
0, 0
0, 0
0, 0
0, 0
0, 0
0, 0
0, 0
0, 0
0, 0
0, 0
0, 0
0, 0
0, 0
0, 0
0, 0
0, 0
0, 0
0, 0
0, 0
0, 0
0, 0
0, 0
0, 0
0, 0
0, 0
0, 0
0, 0
0, 0
0, 0
0, 0
0, 0
0, 0
0, 0
0, 0
0, 0
0, 0
0, 0
0, 0
0, 0
0, 0
0, 0
0, 0
0, 0
0, 0
0, 0
0, 0
0, 0
0, 0
0, 0
0, 0
0, 0
0, 0
0, 0
0, 0
0, 0
0, 0
0, 0
0, 0
0, 0
0, 0
0, 0
0, 0
0, 0
0, 0
0, 0
0, 0
0, 0
0, 0
0, 0
0, 0
0, 0
0, 0
0, 0
0, 0
#ENDOFDATA     end of spectrum data

File: ps__0852shot_2269.msa
#FORMAT      : EMSA/MAS spectral data file
#VERSION     : TC202v2.0 PIXL
#TITLE       : N/A
#DATE        :       Date in the format DD-MMM-YYYY, for example 07-JUL-2010
#TIME        :             The time of day at which the spectrum was recorded, in 24-hour format
#OWNER       : PIXL Flight Model       (PIXL will use this to indicate which instrument took the data.)
#NPOINTS     : 4096     Number of data points in the spectrum (This can be zero for configuration only files)
#NCOLUMNS    : 2     Number of data columns in the spectrum (This can be zero for configuration only files)
#XUNITS      : eV
#YUNITS      : COUNTS
#DATATYPE    : YY
#XPERCHAN    : 7.862, 7.881   eV per channel (separate by commas if more than one detector)
#OFFSET      : 18.5, -22.4         eV of first channel  (separate by commas if more than one detector
#SIGNALTYPE  : XRF
#YP_TEMP     : 2.3
#LIVETIME    : 8.59031, 8.57379   seconds (separate by commas if more than one detector)
#REALTIME    : 10, 10.0   seconds (separate by commas if more than one detector)
#SPECTRUM    : start of spectrum data
0, 0
0, 0
0, 0
0, 0
0, 0
0, 0
0, 0
0, 1
0, 2
1, 3
2, 3
48, 56
68, 55
7, 4
4, 3
105, 86
403, 391
92, 103
8, 8
0, 3
2, 1
6, 6
3, 0
11, 4
29, 38
39, 44
23, 16
12, 11
3, 5
5, 8
1, 5
1, 3
0, 2
8, 14
23, 19
5, 2
5, 7
5, 5
6, 17
4, 41
5, 13
11, 3
28, 13
13, 43
12, 98
10, 41
16, 10
8, 5
11, 10
47, 16
14, 9
10, 6
8, 13
36, 34
58, 67
24, 20
53, 32
466, 585
2284, 2198
1684, 1384
214, 125
19, 14
22, 17
107, 94
359, 323
236, 190
39, 14
6, 15
16, 20
4, 7
5, 1
5, 3
4, 8
5, 28
7, 17
8, 9
5, 2
2, 2
3, 1
7, 4
5, 1
8, 5
2, 3
9, 4
3, 2
6, 4
2, 5
4, 6
3, 6
3, 6
5, 4
1, 2
4, 4
1, 1
4, 3
3, 1
3, 1
5, 3
4, 1
5, 2
5, 4
4, 3
2, 5
5, 3
0, 4
1, 2
3, 2
2, 0
2, 1
3, 0
1, 3
1, 3
0, 1
3, 1
0, 3
1, 3
3, 5
1, 3
2, 4
0, 1
1, 1
2, 0
4, 1
3, 1
0, 0
1, 1
2, 1
2, 1
0, 1
0, 4
2, 2
1, 2
1, 1
2, 0
1, 1
2, 0
0, 0
1, 1
0, 2
1, 0
2, 0
0, 0
0, 1
0, 1
1, 1
1, 1
2, 0
0, 1
0, 0
0, 1
1, 1
0, 0
0, 0
1, 0
0, 0
1, 0
1, 1
1, 0
0, 0
1, 1
0, 0
0, 1
0, 0
0, 0
0, 0
0, 0
0, 1
0, 0
0, 0
1, 0
0, 1
0, 0
0, 0
0, 1
0, 1
1, 0
0, 0
0, 0
1, 0
1, 0
0, 0
0, 0
0, 0
1, 0
0, 0
0, 0
0, 0
0, 0
0, 0
1, 0
0, 0
0, 0
0, 0
0, 0
0, 0
0, 0
0, 0
0, 0
0, 0
0, 0
0, 0
0, 0
0, 0
0, 0
0, 0
0, 0
0, 0
0, 0
0, 0
0, 0
0, 0
0, 0
0, 0
0, 0
0, 0
0, 0
0, 0
0, 0
0, 0
0, 0
0, 0
0, 0
0, 0
0, 0
0, 0
0, 0
0, 0
0, 0
0, 0
0, 0
0, 0
0, 0
0, 0
0, 0
0, 0
0, 0
0, 0
0, 0
0, 0
0, 0
0, 0
0, 0
0, 0
0, 0
0, 0
0, 0
0, 0
0, 0
0, 0
0, 0
0, 0
0, 0
0, 0
0, 0
0, 0
0, 0
0, 0
0, 0
0, 0
0, 0
0, 0
0, 0
0, 0
0, 0
0, 0
0, 0
0, 0
0, 0
0, 0
0, 0
0, 0
0, 0
0, 0
0, 0
0, 0
0, 0
0, 0
0, 0
0, 0
0, 0
0, 0
0, 0
0, 0
0, 0
0, 0
0, 0
0, 0
0, 0
0, 0
0, 0
0, 0
0, 0
0, 0
0, 0
#ENDOFDATA     end of spectrum data

File: ps__0852shot_2270.msa
#FORMAT      : EMSA/MAS spectral data file
#VERSION     : TC202v2.0 PIXL
#TITLE       : N/A
#DATE        :       Date in the format DD-MMM-YYYY, for example 07-JUL-2010
#TIME        :             The time of day at which the spectrum was recorded, in 24-hour format
#OWNER       : PIXL Flight Model       (PIXL will use this to indicate which instrument took the data.)
#NPOINTS     : 4096     Number of data points in the spectrum (This can be zero for configuration only files)
#NCOLUMNS    : 2     Number of data columns in the spectrum (This can be zero for configuration only files)
#XUNITS      : eV
#YUNITS      : COUNTS
#DATATYPE    : YY
#XPERCHAN    : 7.862, 7.881   eV per channel (separate by commas if more than one detector)
#OFFSET      : 18.5, -22.4         eV of first channel  (separate by commas if more than one detector
#SIGNALTYPE  : XRF
#YP_TEMP     : 2.203
#LIVETIME    : 8.58586, 8.56597   seconds (separate by commas if more than one detector)
#REALTIME    : 10, 10.0   seconds (separate by commas if more than one detector)
#SPECTRUM    : start of spectrum data
0, 0
0, 0
0, 0
0, 0
0, 0
0, 0
0, 0
1, 1
1, 2
2, 0
2, 5
45, 30
71, 48
9, 7
4, 7
91, 85
431, 370
92, 84
9, 5
1, 2
3, 2
9, 9
3, 3
9, 4
20, 40
39, 36
12, 17
10, 7
3, 5
2, 4
1, 3
2, 0
2, 7
13, 4
21, 13
9, 6
5, 1
4, 7
4, 16
1, 18
4, 7
8, 10
16, 16
12, 29
9, 49
3, 26
9, 4
8, 4
17, 7
23, 12
21, 11
9, 6
15, 8
47, 34
67, 49
24, 33
53, 80
499, 570
2357, 2059
1610, 1306
211, 127
15, 15
21, 21
113, 124
357, 335
257, 179
40, 20
12, 11
23, 22
9, 9
5, 8
2, 5
1, 3
4, 10
5, 8
3, 4
12, 7
14, 5
16, 3
3, 7
5, 5
5, 2
5, 1
3, 5
5, 5
3, 5
6, 4
2, 5
7, 2
4, 3
1, 1
2, 5
1, 4
2, 8
3, 6
3, 10
1, 5
3, 5
4, 0
1, 1
4, 4
4, 4
3, 1
3, 6
2, 1
4, 1
4, 2
2, 2
3, 2
1, 2
2, 2
4, 2
0, 1
1, 1
5, 2
3, 2
4, 4
1, 4
2, 3
1, 0
1, 2
0, 0
3, 1
1, 2
1, 1
1, 1
0, 0
4, 1
1, 2
1, 4
2, 1
1, 3
1, 3
1, 0
2, 3
0, 1
0, 1
0, 1
1, 0
2, 2
1, 1
1, 0
2, 0
0, 0
2, 2
0, 0
0, 0
0, 0
0, 0
0, 0
1, 0
1, 0
2, 0
0, 0
0, 0
0, 0
0, 1
0, 0
0, 1
0, 0
0, 0
0, 0
0, 0
0, 1
0, 0
0, 0
0, 0
0, 0
2, 0
0, 0
0, 0
0, 0
0, 1
0, 0
0, 1
0, 0
1, 0
1, 0
0, 0
0, 3
0, 0
0, 0
0, 0
0, 0
1, 0
0, 0
0, 0
0, 0
0, 0
0, 0
1, 0
0, 0
1, 0
0, 0
0, 0
0, 0
0, 0
0, 0
0, 0
0, 0
1, 0
0, 0
0, 0
0, 0
0, 0
0, 0
0, 0
0, 0
0, 0
0, 0
0, 0
0, 0
0, 0
0, 0
0, 0
0, 0
0, 0
0, 0
0, 0
0, 0
0, 0
0, 0
0, 0
0, 0
0, 0
0, 0
0, 0
0, 0
0, 0
0, 0
0, 0
0, 0
0, 0
0, 0
0, 0
0, 0
0, 0
0, 0
0, 0
0, 0
0, 0
0, 0
0, 0
0, 0
0, 0
0, 0
0, 0
0, 0
0, 0
0, 0
0, 0
0, 0
0, 0
0, 0
0, 0
0, 0
0, 0
0, 0
0, 0
0, 0
0, 0
0, 0
0, 0
0, 0
0, 0
0, 0
0, 0
0, 0
0, 0
0, 0
0, 0
0, 0
0, 0
0, 0
0, 0
0, 0
0, 0
0, 0
0, 0
0, 0
0, 0
0, 0
0, 0
0, 0
0, 0
0, 0
0, 0
0, 0
0, 0
0, 0
0, 0
0, 0
0, 0
0, 0
#ENDOFDATA     end of spectrum data

File: ps__0852shot_2271.msa
#FORMAT      : EMSA/MAS spectral data file
#VERSION     : TC202v2.0 PIXL
#TITLE       : N/A
#DATE        :       Date in the format DD-MMM-YYYY, for example 07-JUL-2010
#TIME        :             The time of day at which the spectrum was recorded, in 24-hour format
#OWNER       : PIXL Flight Model       (PIXL will use this to indicate which instrument took the data.)
#NPOINTS     : 4096     Number of data points in the spectrum (This can be zero for configuration only files)
#NCOLUMNS    : 2     Number of data columns in the spectrum (This can be zero for configuration only files)
#XUNITS      : eV
#YUNITS      : COUNTS
#DATATYPE    : YY
#XPERCHAN    : 7.862, 7.881   eV per channel (separate by commas if more than one detector)
#OFFSET      : 18.5, -22.4         eV of first channel  (separate by commas if more than one detector
#SIGNALTYPE  : XRF
#YP_TEMP     : 2.428
#LIVETIME    : 8.56567, 8.56473   seconds (separate by commas if more than one detector)
#REALTIME    : 10, 10.0   seconds (separate by commas if more than one detector)
#SPECTRUM    : start of spectrum data
0, 0
0, 0
0, 0
0, 0
0, 0
0, 0
0, 0
0, 0
1, 0
0, 1
1, 1
49, 40
67, 32
4, 3
1, 6
116, 76
457, 326
118, 65
4, 5
2, 2
3, 3
8, 12
3, 3
7, 8
24, 29
44, 28
26, 17
13, 14
6, 4
1, 4
1, 2
0, 0
2, 2
15, 8
20, 8
4, 2
8, 1
11, 10
4, 6
8, 6
2, 5
10, 11
13, 8
13, 22
14, 34
14, 15
8, 7
6, 0
11, 5
24, 17
9, 7
5, 7
17, 11
38, 36
75, 39
31, 35
64, 79
522, 524
2361, 2044
1800, 1259
205, 111
19, 14
22, 18
102, 107
329, 309
207, 187
49, 11
19, 6
17, 14
7, 3
5, 8
5, 3
6, 6
3, 7
8, 14
9, 4
8, 8
13, 3
10, 8
4, 5
2, 1
2, 2
5, 3
5, 6
3, 3
5, 3
0, 3
6, 7
5, 7
2, 1
1, 2
3, 8
1, 3
2, 4
5, 2
6, 5
2, 3
2, 3
5, 3
6, 2
2, 1
4, 3
2, 0
0, 2
1, 1
2, 2
1, 2
1, 1
3, 3
3, 4
2, 5
1, 2
3, 2
1, 1
1, 2
3, 2
2, 2
6, 7
5, 0
2, 1
2, 0
1, 1
3, 0
2, 2
1, 1
1, 0
0, 0
2, 2
0, 0
0, 1
1, 4
1, 0
2, 1
1, 1
2, 0
2, 0
1, 0
0, 0
2, 1
0, 1
0, 0
1, 0
1, 1
1, 0
1, 0
0, 1
3, 0
2, 2
0, 0
0, 1
1, 0
0, 1
0, 0
0, 0
1, 0
0, 1
2, 1
0, 0
0, 0
0, 0
0, 0
0, 0
0, 0
0, 1
0, 0
0, 0
0, 0
2, 0
1, 0
0, 0
0, 0
0, 1
0, 0
0, 1
0, 1
0, 0
0, 0
0, 0
0, 0
0, 0
0, 0
0, 0
0, 0
0, 0
0, 0
0, 0
0, 0
0, 0
0, 0
0, 0
0, 0
0, 0
0, 0
1, 0
0, 0
0, 0
0, 0
0, 0
0, 0
0, 0
0, 0
0, 0
0, 0
0, 0
0, 0
0, 1
0, 0
0, 0
0, 0
0, 0
0, 0
0, 0
0, 0
0, 0
0, 0
0, 0
0, 0
0, 0
0, 0
0, 0
0, 0
0, 0
0, 0
0, 0
0, 0
0, 0
0, 0
0, 0
0, 0
0, 0
0, 0
0, 0
0, 0
0, 0
0, 0
0, 0
0, 0
0, 0
0, 0
0, 0
0, 0
0, 0
0, 0
0, 0
0, 0
0, 0
0, 0
0, 0
0, 0
0, 0
0, 0
0, 0
0, 0
0, 0
0, 0
0, 0
0, 0
0, 0
0, 0
0, 0
0, 0
0, 0
0, 0
0, 0
0, 0
0, 0
0, 0
0, 0
0, 0
0, 0
0, 0
0, 0
0, 0
0, 0
0, 0
0, 0
0, 0
0, 0
0, 0
0, 0
0, 0
0, 0
0, 0
0, 0
0, 0
0, 0
0, 0
0, 0
0, 0
0, 0
0, 0
0, 0
0, 0
0, 0
#ENDOFDATA     end of spectrum data

File: ps__0852shot_2272.msa
#FORMAT      : EMSA/MAS spectral data file
#VERSION     : TC202v2.0 PIXL
#TITLE       : N/A
#DATE        :       Date in the format DD-MMM-YYYY, for example 07-JUL-2010
#TIME        :             The time of day at which the spectrum was recorded, in 24-hour format
#OWNER       : PIXL Flight Model       (PIXL will use this to indicate which instrument took the data.)
#NPOINTS     : 4096     Number of data points in the spectrum (This can be zero for configuration only files)
#NCOLUMNS    : 2     Number of data columns in the spectrum (This can be zero for configuration only files)
#XUNITS      : eV
#YUNITS      : COUNTS
#DATATYPE    : YY
#XPERCHAN    : 7.862, 7.881   eV per channel (separate by commas if more than one detector)
#OFFSET      : 18.5, -22.4         eV of first channel  (separate by commas if more than one detector
#SIGNALTYPE  : XRF
#YP_TEMP     : 2.235
#LIVETIME    : 8.56283, 8.56698   seconds (separate by commas if more than one detector)
#REALTIME    : 10, 10.0   seconds (separate by commas if more than one detector)
#SPECTRUM    : start of spectrum data
0, 0
0, 0
0, 0
0, 0
0, 0
0, 0
0, 0
0, 0
1, 0
0, 2
3, 7
53, 36
57, 55
5, 3
8, 5
112, 81
434, 386
107, 93
3, 6
5, 2
21, 16
80, 88
35, 25
13, 14
50, 48
64, 46
37, 18
15, 15
3, 0
2, 1
2, 4
1, 0
2, 5
6, 9
17, 14
6, 53
5, 68
5, 8
6, 9
5, 8
9, 1
8, 12
14, 8
11, 12
8, 23
7, 15
8, 9
6, 7
7, 7
10, 11
15, 8
11, 6
11, 8
28, 25
70, 49
81, 23
76, 39
468, 525
2207, 2134
1553, 1289
203, 139
22, 18
13, 19
112, 97
341, 355
218, 208
33, 25
7, 7
10, 9
6, 10
5, 8
9, 13
3, 15
5, 7
13, 5
12, 9
10, 5
9, 3
10, 3
5, 9
4, 1
4, 6
3, 10
6, 8
6, 2
1, 2
5, 2
14, 4
12, 0
2, 0
6, 2
2, 7
3, 10
3, 11
2, 2
6, 4
7, 9
3, 2
2, 6
5, 5
3, 7
2, 1
2, 4
0, 3
2, 1
3, 3
5, 2
5, 3
0, 1
4, 1
3, 0
9, 1
1, 2
2, 3
3, 8
3, 8
5, 2
1, 3
2, 1
2, 2
1, 1
1, 1
5, 2
0, 3
2, 1
0, 0
2, 2
2, 1
1, 0
1, 1
0, 2
2, 2
1, 1
0, 2
1, 0
2, 0
0, 2
1, 1
0, 1
0, 1
0, 0
0, 2
1, 2
0, 0
1, 1
0, 0
0, 1
0, 0
0, 0
0, 0
0, 0
0, 0
0, 0
0, 3
0, 0
1, 0
0, 2
0, 1
0, 0
0, 1
0, 0
0, 0
0, 0
1, 1
0, 0
0, 0
1, 0
0, 1
0, 0
0, 0
0, 0
0, 0
1, 0
0, 1
0, 0
0, 1
1, 0
0, 0
0, 0
0, 1
1, 0
0, 0
0, 0
0, 0
0, 0
0, 0
0, 0
0, 0
0, 0
1, 0
0, 1
0, 0
0, 0
0, 0
0, 0
0, 0
0, 0
0, 1
1, 0
0, 0
0, 0
0, 0
0, 0
0, 0
0, 0
0, 0
0, 0
0, 0
0, 0
0, 0
0, 0
0, 0
0, 0
0, 0
0, 0
0, 0
0, 0
1, 0
0, 0
0, 0
0, 0
0, 0
0, 0
0, 0
0, 0
0, 0
0, 0
0, 0
0, 0
0, 0
0, 0
0, 0
0, 0
0, 0
0, 0
0, 0
0, 0
0, 0
0, 0
0, 0
0, 0
0, 0
0, 0
0, 0
0, 0
0, 0
0, 0
0, 0
0, 0
0, 0
0, 0
0, 0
0, 0
0, 0
0, 0
0, 0
0, 0
0, 0
0, 0
0, 0
0, 0
0, 0
0, 0
0, 0
0, 0
0, 0
0, 0
0, 0
0, 0
0, 0
0, 0
0, 0
0, 0
0, 0
0, 0
0, 0
0, 0
0, 0
0, 0
0, 0
0, 0
0, 0
0, 0
0, 0
0, 0
0, 0
0, 0
0, 0
0, 0
0, 0
0, 0
0, 0
0, 0
0, 0
#ENDOFDATA     end of spectrum data