Folder: data-repository/host_upload/06-09-2024/ps_0852/dump3 (part 21)

File: ps__0852shot_2182.msa
#FORMAT      : EMSA/MAS spectral data file
#VERSION     : TC202v2.0 PIXL
#TITLE       : N/A
#DATE        :       Date in the format DD-MMM-YYYY, for example 07-JUL-2010
#TIME        :             The time of day at which the spectrum was recorded, in 24-hour format
#OWNER       : PIXL Flight Model       (PIXL will use this to indicate which instrument took the data.)
#NPOINTS     : 4096     Number of data points in the spectrum (This can be zero for configuration only files)
#NCOLUMNS    : 2     Number of data columns in the spectrum (This can be zero for configuration only files)
#XUNITS      : eV
#YUNITS      : COUNTS
#DATATYPE    : YY
#XPERCHAN    : 7.862, 7.881   eV per channel (separate by commas if more than one detector)
#OFFSET      : 18.5, -22.4         eV of first channel  (separate by commas if more than one detector
#SIGNALTYPE  : XRF
#YP_TEMP     : 2.749
#LIVETIME    : 8.55472, 8.56773   seconds (separate by commas if more than one detector)
#REALTIME    : 10, 10.0   seconds (separate by commas if more than one detector)
#SPECTRUM    : start of spectrum data
0, 0
0, 0
0, 0
0, 0
0, 0
0, 0
0, 0
0, 0
2, 3
1, 10
3, 5
47, 50
66, 60
9, 4
2, 8
85, 104
417, 443
114, 117
6, 5
0, 0
1, 4
6, 9
4, 2
10, 34
44, 536
78, 726
34, 87
8, 18
3, 5
6, 4
8, 1
4, 2
8, 1
49, 43
57, 86
16, 14
11, 36
23, 28
5, 13
3, 8
4, 3
10, 19
10, 17
34, 9
103, 4
51, 12
9, 6
8, 6
13, 8
37, 24
46, 25
57, 29
14, 36
31, 60
61, 60
21, 23
29, 43
414, 589
2010, 2177
1540, 1363
210, 136
25, 22
32, 38
120, 118
309, 338
226, 186
37, 29
4, 6
12, 8
6, 8
5, 11
2, 26
9, 22
29, 12
29, 8
15, 9
6, 5
5, 2
5, 3
6, 2
3, 5
2, 5
3, 5
3, 7
5, 1
3, 4
7, 1
4, 3
13, 5
3, 3
1, 4
4, 8
3, 2
3, 7
4, 8
8, 2
6, 3
5, 2
1, 4
1, 3
3, 3
1, 2
2, 3
3, 4
1, 4
1, 5
2, 2
1, 1
2, 4
6, 0
4, 3
3, 4
1, 1
2, 2
1, 2
3, 0
2, 2
3, 6
0, 0
1, 2
3, 2
7, 3
4, 2
1, 1
1, 1
2, 1
4, 1
2, 1
0, 0
3, 2
1, 1
0, 0
0, 0
0, 1
2, 2
1, 0
0, 0
0, 1
0, 1
2, 0
1, 2
1, 0
2, 1
1, 0
0, 0
1, 0
1, 0
0, 0
0, 0
1, 0
0, 0
0, 0
0, 1
1, 0
0, 0
0, 0
0, 1
1, 0
0, 0
0, 0
1, 0
0, 0
0, 1
0, 1
0, 0
1, 1
1, 0
0, 0
0, 1
2, 1
0, 0
0, 0
0, 1
0, 2
0, 1
0, 0
1, 0
0, 0
0, 0
0, 0
0, 0
0, 0
0, 1
0, 0
0, 1
0, 0
0, 0
0, 0
0, 0
0, 0
0, 0
1, 0
1, 0
1, 0
0, 0
0, 0
0, 0
0, 0
0, 0
0, 0
0, 0
0, 0
0, 0
0, 0
0, 0
0, 0
0, 0
0, 0
0, 0
0, 0
0, 0
0, 0
0, 0
0, 0
0, 0
0, 0
0, 0
0, 0
0, 0
0, 0
0, 0
0, 0
0, 0
0, 0
0, 0
0, 0
0, 0
0, 0
0, 0
0, 0
0, 0
0, 0
0, 0
0, 0
0, 0
0, 0
0, 0
1, 0
0, 0
0, 0
0, 0
0, 0
0, 0
0, 0
0, 0
0, 0
0, 0
0, 0
0, 0
0, 0
0, 0
0, 0
0, 0
0, 0
0, 0
0, 0
0, 0
0, 0
0, 0
0, 0
0, 0
0, 0
0, 0
0, 0
0, 0
0, 0
0, 0
0, 0
0, 0
0, 0
0, 0
0, 0
0, 0
0, 0
0, 0
0, 0
0, 0
0, 0
0, 0
0, 0
0, 0
0, 0
0, 0
0, 0
0, 0
0, 0
0, 0
0, 0
0, 0
0, 0
0, 0
0, 0
0, 0
0, 0
#ENDOFDATA     end of spectrum data

File: ps__0852shot_2183.msa
#FORMAT      : EMSA/MAS spectral data file
#VERSION     : TC202v2.0 PIXL
#TITLE       : N/A
#DATE        :       Date in the format DD-MMM-YYYY, for example 07-JUL-2010
#TIME        :             The time of day at which the spectrum was recorded, in 24-hour format
#OWNER       : PIXL Flight Model       (PIXL will use this to indicate which instrument took the data.)
#NPOINTS     : 4096     Number of data points in the spectrum (This can be zero for configuration only files)
#NCOLUMNS    : 2     Number of data columns in the spectrum (This can be zero for configuration only files)
#XUNITS      : eV
#YUNITS      : COUNTS
#DATATYPE    : YY
#XPERCHAN    : 7.862, 7.881   eV per channel (separate by commas if more than one detector)
#OFFSET      : 18.5, -22.4         eV of first channel  (separate by commas if more than one detector
#SIGNALTYPE  : XRF
#YP_TEMP     : 2.46
#LIVETIME    : 8.56031, 8.3635   seconds (separate by commas if more than one detector)
#REALTIME    : 10, 10.0   seconds (separate by commas if more than one detector)
#SPECTRUM    : start of spectrum data
0, 0
0, 0
0, 0
0, 0
0, 0
0, 0
0, 0
0, 1
0, 11
3, 28
6, 13
38, 53
77, 54
3, 4
5, 3
100, 112
418, 403
116, 106
4, 2
1, 0
1, 4
4, 9
3, 6
12, 88
80, 1510
135, 2084
49, 210
13, 11
1, 1
2, 3
1, 3
3, 1
3, 7
14, 16
25, 40
9, 8
25, 12
38, 14
11, 10
5, 10
0, 6
18, 11
14, 7
16, 9
13, 4
10, 2
6, 5
12, 8
26, 11
27, 14
44, 8
25, 13
8, 25
48, 53
61, 51
29, 14
27, 35
501, 641
2058, 2260
1525, 1382
238, 145
58, 31
43, 45
126, 129
338, 332
221, 177
31, 23
13, 9
14, 14
11, 6
5, 8
4, 7
13, 7
17, 9
10, 14
8, 22
8, 20
5, 6
7, 6
2, 5
0, 4
2, 5
11, 8
4, 14
13, 3
17, 3
2, 4
8, 3
5, 3
2, 1
5, 3
1, 7
1, 3
1, 2
0, 0
2, 2
2, 4
1, 5
6, 7
7, 3
4, 6
2, 3
2, 4
1, 1
0, 2
4, 4
3, 1
2, 6
3, 2
4, 0
7, 3
2, 4
3, 0
3, 1
1, 2
3, 1
6, 3
1, 1
2, 0
2, 3
2, 1
4, 0
2, 4
3, 1
0, 1
0, 0
1, 2
0, 1
1, 0
2, 2
2, 1
1, 0
1, 0
2, 0
1, 0
0, 0
3, 1
2, 0
0, 0
1, 1
0, 0
0, 1
0, 2
1, 1
1, 0
1, 0
0, 0
0, 0
0, 1
0, 0
0, 0
0, 1
0, 0
0, 0
1, 0
0, 1
0, 1
1, 0
0, 1
0, 0
0, 0
0, 0
0, 1
0, 1
0, 0
0, 1
0, 0
1, 1
0, 1
0, 0
0, 0
0, 0
1, 0
1, 0
0, 1
0, 0
0, 1
0, 1
0, 1
1, 1
0, 0
0, 0
0, 0
0, 0
0, 0
0, 0
1, 0
0, 0
0, 0
0, 0
0, 1
1, 0
0, 0
0, 0
0, 0
0, 0
0, 0
0, 1
0, 0
1, 0
0, 0
0, 0
0, 0
0, 0
0, 0
0, 0
0, 0
0, 0
0, 0
0, 0
1, 0
0, 0
0, 0
0, 0
1, 0
0, 0
0, 0
0, 0
0, 0
0, 0
0, 0
0, 0
0, 0
0, 0
0, 0
0, 0
0, 0
0, 0
0, 0
0, 0
0, 0
0, 0
0, 0
0, 0
0, 0
0, 0
0, 0
0, 0
0, 0
0, 0
0, 0
0, 0
0, 0
0, 0
0, 0
0, 0
0, 0
0, 0
0, 0
0, 0
0, 0
0, 0
0, 0
0, 0
0, 0
0, 0
0, 0
0, 0
0, 0
0, 0
0, 0
0, 0
0, 0
0, 0
0, 0
0, 0
0, 0
0, 0
0, 0
0, 0
0, 0
0, 0
0, 0
0, 0
0, 0
0, 0
0, 0
0, 0
0, 0
0, 0
0, 0
0, 0
0, 0
0, 0
0, 0
0, 0
0, 0
0, 0
0, 0
0, 0
0, 0
0, 0
0, 0
0, 0
#ENDOFDATA     end of spectrum data

File: ps__0852shot_2184.msa
#FORMAT      : EMSA/MAS spectral data file
#VERSION     : TC202v2.0 PIXL
#TITLE       : N/A
#DATE        :       Date in the format DD-MMM-YYYY, for example 07-JUL-2010
#TIME        :             The time of day at which the spectrum was recorded, in 24-hour format
#OWNER       : PIXL Flight Model       (PIXL will use this to indicate which instrument took the data.)
#NPOINTS     : 4096     Number of data points in the spectrum (This can be zero for configuration only files)
#NCOLUMNS    : 2     Number of data columns in the spectrum (This can be zero for configuration only files)
#XUNITS      : eV
#YUNITS      : COUNTS
#DATATYPE    : YY
#XPERCHAN    : 7.862, 7.881   eV per channel (separate by commas if more than one detector)
#OFFSET      : 18.5, -22.4         eV of first channel  (separate by commas if more than one detector
#SIGNALTYPE  : XRF
#YP_TEMP     : 2.267
#LIVETIME    : 8.56536, 8.55195   seconds (separate by commas if more than one detector)
#REALTIME    : 10, 10.0   seconds (separate by commas if more than one detector)
#SPECTRUM    : start of spectrum data
0, 0
0, 0
0, 0
0, 0
0, 0
0, 0
0, 0
1, 0
1, 5
5, 10
3, 3
43, 47
59, 73
5, 5
5, 7
93, 93
369, 435
88, 103
4, 4
2, 3
0, 4
3, 0
5, 3
10, 30
137, 512
227, 718
39, 107
15, 19
3, 1
1, 1
0, 5
1, 3
2, 0
7, 3
10, 6
4, 9
26, 28
36, 42
14, 8
2, 2
3, 5
8, 14
5, 13
11, 16
2, 8
4, 6
4, 2
8, 6
8, 12
17, 15
10, 12
6, 7
3, 12
33, 45
47, 44
20, 10
27, 27
496, 595
2066, 2372
1494, 1399
224, 179
35, 43
37, 36
104, 118
313, 361
238, 193
35, 26
11, 5
14, 15
9, 10
9, 3
4, 4
7, 6
15, 20
18, 7
7, 4
4, 4
5, 5
4, 5
3, 7
5, 6
3, 0
3, 1
3, 6
6, 11
2, 6
5, 6
4, 3
11, 4
2, 1
1, 4
5, 2
2, 3
3, 1
2, 2
4, 1
5, 0
2, 5
7, 8
3, 13
3, 4
6, 4
2, 4
3, 1
0, 3
1, 5
2, 3
1, 2
4, 4
1, 2
4, 4
2, 4
1, 0
3, 0
0, 1
3, 6
4, 5
2, 1
2, 3
2, 2
3, 0
1, 3
3, 8
2, 1
1, 0
1, 1
1, 2
1, 2
2, 0
1, 0
2, 0
0, 0
1, 0
1, 0
1, 1
1, 1
0, 0
1, 1
2, 0
1, 1
0, 2
0, 0
1, 1
1, 0
0, 1
0, 0
0, 1
1, 1
1, 1
0, 0
0, 3
1, 1
0, 0
0, 1
0, 0
1, 0
1, 0
2, 0
0, 1
0, 2
0, 0
0, 1
0, 0
0, 0
1, 1
0, 0
0, 0
0, 0
1, 1
0, 0
1, 0
0, 0
0, 0
1, 0
0, 1
1, 1
0, 0
0, 0
0, 0
0, 0
2, 0
0, 0
0, 0
0, 1
0, 0
0, 0
1, 1
1, 0
1, 0
0, 0
0, 0
0, 0
0, 0
0, 0
0, 0
0, 0
0, 0
0, 0
0, 0
0, 0
0, 0
0, 0
0, 0
0, 0
0, 0
0, 0
0, 0
0, 0
0, 0
0, 0
0, 0
0, 0
0, 0
0, 0
0, 0
0, 0
0, 0
0, 0
0, 0
0, 0
0, 0
0, 0
0, 0
0, 0
0, 0
0, 0
0, 0
0, 0
0, 0
0, 0
0, 0
0, 0
0, 0
0, 1
0, 0
0, 0
0, 0
0, 0
0, 0
0, 0
0, 0
0, 0
0, 0
0, 0
0, 0
0, 0
0, 0
0, 0
0, 0
0, 0
0, 0
0, 0
0, 0
0, 0
0, 0
0, 0
0, 0
0, 0
0, 0
0, 0
0, 0
0, 0
0, 0
0, 0
0, 0
0, 0
0, 0
0, 0
0, 0
0, 0
0, 0
0, 0
0, 0
0, 0
0, 0
0, 0
0, 0
0, 0
0, 0
0, 0
0, 0
0, 0
0, 0
0, 0
0, 0
0, 0
0, 0
0, 0
0, 0
0, 0
0, 0
0, 0
0, 0
0, 0
#ENDOFDATA     end of spectrum data

File: ps__0852shot_2185.msa
#FORMAT      : EMSA/MAS spectral data file
#VERSION     : TC202v2.0 PIXL
#TITLE       : N/A
#DATE        :       Date in the format DD-MMM-YYYY, for example 07-JUL-2010
#TIME        :             The time of day at which the spectrum was recorded, in 24-hour format
#OWNER       : PIXL Flight Model       (PIXL will use this to indicate which instrument took the data.)
#NPOINTS     : 4096     Number of data points in the spectrum (This can be zero for configuration only files)
#NCOLUMNS    : 2     Number of data columns in the spectrum (This can be zero for configuration only files)
#XUNITS      : eV
#YUNITS      : COUNTS
#DATATYPE    : YY
#XPERCHAN    : 7.862, 7.881   eV per channel (separate by commas if more than one detector)
#OFFSET      : 18.5, -22.4         eV of first channel  (separate by commas if more than one detector
#SIGNALTYPE  : XRF
#YP_TEMP     : 2.139
#LIVETIME    : 8.56675, 8.53949   seconds (separate by commas if more than one detector)
#REALTIME    : 10, 10.0   seconds (separate by commas if more than one detector)
#SPECTRUM    : start of spectrum data
0, 0
0, 0
0, 0
0, 0
0, 0
0, 0
0, 0
1, 0
0, 3
0, 7
1, 5
40, 54
63, 69
5, 6
4, 4
91, 95
400, 469
93, 99
7, 5
1, 1
1, 1
3, 3
1, 3
3, 27
76, 425
81, 572
37, 87
14, 16
7, 2
0, 4
3, 1
3, 0
0, 3
9, 11
17, 14
3, 5
8, 25
20, 21
27, 5
11, 2
2, 8
6, 9
9, 19
11, 59
6, 69
3, 20
6, 5
5, 5
7, 6
13, 14
25, 11
31, 8
17, 6
29, 49
57, 52
16, 19
23, 42
449, 584
2162, 2305
1459, 1514
197, 167
45, 37
46, 35
109, 104
326, 383
224, 188
33, 23
4, 16
10, 16
13, 9
5, 4
2, 3
2, 12
11, 5
18, 6
30, 8
45, 4
15, 4
5, 1
4, 7
1, 6
0, 1
5, 4
5, 8
7, 1
4, 1
5, 4
3, 6
3, 6
3, 4
3, 3
2, 2
5, 3
1, 5
2, 2
4, 3
3, 4
2, 3
4, 1
4, 6
4, 4
2, 5
2, 4
1, 2
2, 3
1, 1
3, 0
2, 1
2, 1
3, 5
1, 3
1, 1
4, 2
4, 3
3, 6
2, 5
1, 6
6, 1
1, 3
5, 1
0, 1
1, 6
0, 4
2, 4
0, 1
2, 3
0, 0
1, 3
1, 2
0, 1
1, 1
1, 1
2, 2
0, 1
2, 1
2, 0
1, 1
1, 0
2, 0
0, 0
2, 0
0, 1
0, 0
1, 1
0, 0
1, 0
0, 1
0, 0
2, 0
1, 0
0, 0
2, 1
1, 0
0, 0
1, 0
0, 0
0, 0
0, 0
0, 0
0, 1
0, 0
0, 0
0, 0
0, 0
0, 0
0, 0
0, 1
0, 1
0, 1
1, 0
0, 0
0, 0
1, 0
0, 0
0, 1
0, 0
0, 0
0, 0
0, 0
0, 0
0, 0
0, 1
0, 0
0, 0
0, 0
0, 0
0, 0
0, 0
0, 1
0, 1
0, 0
0, 0
0, 0
0, 0
0, 0
0, 0
0, 0
0, 0
0, 0
0, 0
0, 1
0, 0
0, 0
0, 0
0, 0
0, 0
0, 0
0, 0
0, 0
0, 0
0, 0
0, 0
0, 0
0, 0
0, 0
0, 0
0, 0
0, 0
0, 0
0, 0
0, 0
0, 0
0, 0
0, 0
0, 0
0, 0
0, 0
0, 0
0, 0
0, 0
0, 0
0, 0
0, 0
0, 0
0, 0
0, 0
0, 0
0, 0
0, 0
0, 0
0, 0
0, 0
0, 0
0, 0
0, 0
0, 0
0, 0
0, 0
0, 0
0, 0
0, 0
0, 0
0, 0
0, 0
0, 0
0, 0
0, 0
0, 0
0, 0
0, 0
0, 0
0, 0
0, 0
0, 0
0, 0
0, 0
0, 0
0, 0
0, 0
0, 0
0, 0
0, 0
0, 0
0, 0
0, 0
0, 0
0, 0
0, 0
0, 0
0, 0
0, 0
0, 0
0, 0
0, 0
0, 0
0, 0
0, 0
0, 0
0, 0
0, 0
0, 0
0, 0
0, 0
0, 0
#ENDOFDATA     end of spectrum data

File: ps__0852shot_2186.msa
#FORMAT      : EMSA/MAS spectral data file
#VERSION     : TC202v2.0 PIXL
#TITLE       : N/A
#DATE        :       Date in the format DD-MMM-YYYY, for example 07-JUL-2010
#TIME        :             The time of day at which the spectrum was recorded, in 24-hour format
#OWNER       : PIXL Flight Model       (PIXL will use this to indicate which instrument took the data.)
#NPOINTS     : 4096     Number of data points in the spectrum (This can be zero for configuration only files)
#NCOLUMNS    : 2     Number of data columns in the spectrum (This can be zero for configuration only files)
#XUNITS      : eV
#YUNITS      : COUNTS
#DATATYPE    : YY
#XPERCHAN    : 7.862, 7.881   eV per channel (separate by commas if more than one detector)
#OFFSET      : 18.5, -22.4         eV of first channel  (separate by commas if more than one detector
#SIGNALTYPE  : XRF
#YP_TEMP     : 2.267
#LIVETIME    : 8.5792, 8.55249   seconds (separate by commas if more than one detector)
#REALTIME    : 10, 10.0   seconds (separate by commas if more than one detector)
#SPECTRUM    : start of spectrum data
0, 0
0, 0
0, 0
0, 0
0, 0
0, 0
0, 0
0, 0
0, 3
1, 1
3, 5
50, 49
73, 59
10, 9
4, 3
74, 124
409, 538
105, 114
2, 9
2, 2
0, 0
2, 0
0, 4
3, 5
35, 59
44, 85
20, 18
19, 15
4, 3
1, 0
4, 5
1, 1
7, 2
8, 19
8, 11
6, 6
8, 8
32, 3
38, 5
11, 3
11, 9
8, 10
8, 34
8, 90
2, 83
7, 15
5, 8
5, 9
5, 10
11, 7
42, 8
61, 5
16, 10
33, 35
48, 57
12, 22
34, 65
455, 664
2057, 2407
1433, 1598
197, 206
21, 19
47, 20
109, 106
352, 356
220, 219
25, 23
5, 9
13, 8
4, 8
7, 4
6, 6
1, 6
2, 4
20, 6
68, 13
31, 4
18, 5
5, 5
3, 2
1, 3
1, 4
4, 1
2, 5
2, 3
5, 7
4, 3
1, 6
3, 4
3, 5
3, 5
1, 5
5, 5
3, 5
2, 8
1, 1
1, 2
2, 1
5, 3
3, 3
1, 4
6, 2
4, 5
3, 1
1, 2
0, 2
1, 0
0, 1
3, 1
2, 1
2, 0
1, 2
1, 2
2, 2
5, 3
6, 2
4, 7
2, 8
4, 4
4, 0
0, 1
1, 2
1, 4
1, 6
1, 2
1, 0
0, 0
2, 0
1, 0
1, 1
2, 2
1, 1
2, 0
1, 2
1, 2
1, 1
0, 1
0, 1
0, 0
0, 1
1, 0
0, 0
0, 0
0, 0
1, 0
0, 0
2, 0
1, 0
0, 0
1, 1
2, 0
0, 1
0, 0
0, 0
1, 1
1, 1
1, 1
0, 0
0, 0
0, 0
0, 0
0, 0
0, 2
1, 0
0, 0
0, 0
0, 0
0, 1
0, 0
1, 0
1, 0
0, 0
1, 0
0, 0
0, 0
1, 0
0, 0
1, 0
0, 0
0, 0
0, 0
0, 0
0, 0
0, 0
0, 0
0, 0
1, 0
0, 1
0, 0
0, 0
0, 0
0, 0
0, 1
0, 0
0, 0
0, 0
0, 0
0, 0
0, 0
0, 0
0, 0
0, 0
0, 0
0, 0
1, 1
0, 0
0, 0
0, 0
0, 0
0, 0
1, 0
0, 0
0, 0
0, 0
0, 0
0, 0
0, 0
0, 0
0, 0
0, 0
0, 0
0, 0
0, 0
0, 0
0, 0
0, 0
0, 0
0, 0
0, 0
0, 0
0, 0
0, 0
0, 0
0, 0
0, 0
0, 0
0, 0
0, 0
0, 0
0, 0
0, 0
0, 0
0, 0
0, 0
0, 0
0, 0
0, 0
0, 0
0, 0
0, 0
0, 0
0, 0
0, 0
0, 0
0, 0
0, 0
0, 0
0, 0
0, 0
0, 0
0, 0
0, 0
0, 0
0, 0
0, 0
0, 0
0, 0
0, 0
0, 0
0, 0
0, 0
0, 0
0, 0
0, 0
0, 0
0, 0
0, 0
0, 0
0, 0
0, 0
0, 0
0, 0
0, 0
0, 0
0, 0
0, 0
0, 0
0, 0
0, 0
0, 0
0, 0
0, 0
0, 0
0, 0
#ENDOFDATA     end of spectrum data

File: ps__0852shot_2187.msa
#FORMAT      : EMSA/MAS spectral data file
#VERSION     : TC202v2.0 PIXL
#TITLE       : N/A
#DATE        :       Date in the format DD-MMM-YYYY, for example 07-JUL-2010
#TIME        :             The time of day at which the spectrum was recorded, in 24-hour format
#OWNER       : PIXL Flight Model       (PIXL will use this to indicate which instrument took the data.)
#NPOINTS     : 4096     Number of data points in the spectrum (This can be zero for configuration only files)
#NCOLUMNS    : 2     Number of data columns in the spectrum (This can be zero for configuration only files)
#XUNITS      : eV
#YUNITS      : COUNTS
#DATATYPE    : YY
#XPERCHAN    : 7.862, 7.881   eV per channel (separate by commas if more than one detector)
#OFFSET      : 18.5, -22.4         eV of first channel  (separate by commas if more than one detector
#SIGNALTYPE  : XRF
#YP_TEMP     : 2.428
#LIVETIME    : 8.56907, 8.54811   seconds (separate by commas if more than one detector)
#REALTIME    : 10, 10.0   seconds (separate by commas if more than one detector)
#SPECTRUM    : start of spectrum data
0, 0
0, 0
0, 0
0, 0
0, 0
0, 0
0, 0
0, 0
2, 0
1, 1
3, 4
42, 57
65, 64
9, 11
3, 7
94, 102
392, 493
105, 110
3, 5
1, 0
1, 1
2, 3
1, 2
9, 6
101, 30
171, 28
35, 16
11, 16
3, 4
2, 2
1, 1
1, 1
1, 0
10, 16
17, 20
0, 7
6, 2
29, 7
49, 5
9, 2
5, 7
5, 8
12, 19
16, 90
3, 94
4, 16
2, 9
4, 16
6, 4
9, 21
30, 15
63, 6
16, 5
34, 37
52, 55
19, 30
30, 60
445, 617
1977, 2577
1455, 1605
168, 186
10, 30
35, 23
81, 118
336, 358
225, 198
33, 25
8, 10
16, 12
0, 10
3, 5
5, 3
3, 4
5, 12
18, 6
39, 11
41, 6
14, 5
2, 4
2, 6
3, 2
6, 1
4, 1
6, 4
2, 3
2, 4
2, 10
3, 11
4, 3
2, 5
3, 4
4, 5
2, 2
5, 14
2, 2
4, 3
3, 0
2, 2
5, 3
2, 3
3, 6
2, 2
1, 1
5, 1
2, 3
1, 3
1, 2
0, 1
1, 1
2, 2
0, 2
1, 3
1, 3
6, 2
1, 2
2, 5
3, 6
2, 6
4, 6
2, 5
0, 2
0, 1
0, 5
0, 3
2, 3
2, 3
0, 0
0, 2
1, 1
0, 1
1, 1
0, 1
0, 1
0, 0
0, 3
1, 2
0, 0
0, 0
0, 0
3, 1
0, 0
1, 0
0, 0
0, 2
0, 2
0, 2
0, 1
0, 1
1, 0
0, 1
0, 0
1, 0
0, 0
0, 0
0, 1
0, 0
1, 1
0, 0
0, 0
0, 1
0, 0
0, 2
0, 2
0, 1
0, 0
0, 0
0, 0
0, 0
0, 0
1, 0
0, 0
0, 0
0, 0
0, 0
0, 0
0, 0
0, 0
0, 0
0, 0
0, 0
0, 0
0, 1
0, 0
0, 0
0, 1
0, 0
0, 0
0, 0
0, 0
0, 0
0, 0
0, 0
0, 0
0, 0
0, 0
0, 0
0, 0
0, 0
1, 0
0, 0
0, 0
0, 0
0, 0
0, 0
0, 0
0, 0
0, 0
0, 0
0, 0
0, 0
0, 0
0, 0
0, 0
0, 0
0, 0
0, 0
0, 0
0, 0
0, 0
0, 0
0, 0
0, 0
0, 0
0, 0
0, 0
0, 0
0, 0
0, 0
0, 0
0, 0
0, 0
0, 0
0, 0
0, 0
0, 0
1, 0
0, 0
0, 0
0, 0
0, 0
0, 0
0, 0
0, 0
0, 0
0, 0
0, 0
0, 0
0, 0
0, 0
0, 0
0, 0
0, 0
0, 0
0, 0
0, 0
0, 0
0, 0
0, 0
0, 0
0, 0
0, 0
0, 0
0, 0
0, 0
0, 0
0, 0
0, 0
0, 0
0, 0
0, 0
0, 0
0, 0
0, 0
0, 0
0, 0
0, 0
0, 0
0, 0
0, 0
0, 0
0, 0
0, 0
0, 0
0, 0
0, 0
0, 0
0, 0
0, 0
0, 0
0, 0
0, 0
0, 0
0, 0
0, 0
#ENDOFDATA     end of spectrum data

File: ps__0852shot_2188.msa
#FORMAT      : EMSA/MAS spectral data file
#VERSION     : TC202v2.0 PIXL
#TITLE       : N/A
#DATE        :       Date in the format DD-MMM-YYYY, for example 07-JUL-2010
#TIME        :             The time of day at which the spectrum was recorded, in 24-hour format
#OWNER       : PIXL Flight Model       (PIXL will use this to indicate which instrument took the data.)
#NPOINTS     : 4096     Number of data points in the spectrum (This can be zero for configuration only files)
#NCOLUMNS    : 2     Number of data columns in the spectrum (This can be zero for configuration only files)
#XUNITS      : eV
#YUNITS      : COUNTS
#DATATYPE    : YY
#XPERCHAN    : 7.862, 7.881   eV per channel (separate by commas if more than one detector)
#OFFSET      : 18.5, -22.4         eV of first channel  (separate by commas if more than one detector
#SIGNALTYPE  : XRF
#YP_TEMP     : 2.203
#LIVETIME    : 8.5373, 8.57309   seconds (separate by commas if more than one detector)
#REALTIME    : 10, 10.0   seconds (separate by commas if more than one detector)
#SPECTRUM    : start of spectrum data
0, 0
0, 0
0, 0
0, 0
0, 0
0, 0
0, 0
0, 0
0, 2
6, 0
5, 1
42, 51
71, 54
8, 6
3, 5
88, 106
415, 493
88, 106
5, 4
0, 0
0, 0
4, 3
2, 1
20, 2
290, 21
508, 24
63, 8
9, 11
4, 5
1, 0
0, 4
1, 1
4, 3
9, 10
11, 13
3, 4
3, 2
30, 2
48, 1
14, 6
3, 8
4, 11
9, 18
6, 96
4, 100
7, 23
8, 5
5, 8
12, 9
11, 20
43, 15
41, 8
16, 14
43, 48
53, 65
20, 30
41, 96
446, 672
2090, 2361
1483, 1400
175, 150
30, 26
63, 20
138, 130
328, 358
222, 197
24, 19
8, 7
13, 15
5, 7
4, 4
3, 6
2, 8
10, 8
28, 6
59, 7
39, 1
14, 5
10, 4
5, 5
1, 5
3, 7
4, 1
2, 7
2, 5
1, 8
1, 10
1, 6
1, 11
2, 6
0, 5
5, 6
4, 5
4, 2
2, 2
1, 2
1, 1
2, 0
1, 5
4, 7
2, 4
2, 1
2, 0
2, 4
2, 2
2, 0
2, 2
2, 2
1, 2
2, 1
2, 1
2, 2
3, 1
5, 2
4, 4
5, 6
4, 0
5, 2
3, 1
3, 3
1, 1
2, 1
1, 2
3, 1
1, 5
2, 0
2, 1
0, 0
2, 3
2, 0
1, 0
1, 2
1, 2
1, 1
0, 2
3, 1
1, 1
0, 0
1, 0
2, 1
0, 1
0, 0
0, 1
0, 0
0, 0
1, 0
0, 0
1, 1
0, 0
1, 0
1, 0
2, 0
0, 1
0, 0
1, 1
0, 1
1, 0
0, 1
0, 0
1, 0
1, 0
0, 2
1, 0
1, 0
0, 0
1, 0
0, 0
0, 0
0, 1
0, 0
0, 0
0, 0
0, 0
1, 0
0, 1
0, 0
0, 0
1, 0
0, 0
0, 0
0, 0
0, 0
0, 0
0, 0
0, 0
0, 0
0, 0
0, 1
0, 0
0, 0
0, 0
0, 0
0, 0
0, 0
1, 1
0, 0
0, 0
0, 0
0, 0
0, 0
0, 0
0, 0
0, 0
0, 0
1, 0
0, 0
0, 0
0, 0
0, 0
0, 0
0, 0
0, 0
0, 0
0, 0
0, 0
0, 0
0, 0
0, 0
0, 0
0, 0
0, 0
0, 0
0, 0
0, 0
0, 0
0, 0
0, 0
0, 0
0, 0
0, 0
0, 0
0, 0
0, 0
0, 0
0, 0
0, 0
0, 0
0, 0
0, 0
0, 0
0, 0
0, 0
0, 0
0, 0
0, 0
0, 0
0, 0
0, 0
0, 0
0, 0
0, 0
0, 0
0, 0
0, 0
0, 0
0, 0
0, 0
0, 0
0, 0
0, 0
0, 0
0, 0
0, 0
0, 0
0, 0
0, 0
0, 0
0, 0
0, 0
0, 0
0, 0
0, 0
0, 0
0, 0
0, 0
0, 0
0, 0
0, 0
0, 0
0, 0
0, 0
0, 0
0, 0
0, 0
0, 0
0, 0
0, 0
0, 0
0, 0
0, 0
0, 0
0, 0
0, 0
0, 0
#ENDOFDATA     end of spectrum data

File: ps__0852shot_2189.msa
#FORMAT      : EMSA/MAS spectral data file
#VERSION     : TC202v2.0 PIXL
#TITLE       : N/A
#DATE        :       Date in the format DD-MMM-YYYY, for example 07-JUL-2010
#TIME        :             The time of day at which the spectrum was recorded, in 24-hour format
#OWNER       : PIXL Flight Model       (PIXL will use this to indicate which instrument took the data.)
#NPOINTS     : 4096     Number of data points in the spectrum (This can be zero for configuration only files)
#NCOLUMNS    : 2     Number of data columns in the spectrum (This can be zero for configuration only files)
#XUNITS      : eV
#YUNITS      : COUNTS
#DATATYPE    : YY
#XPERCHAN    : 7.862, 7.881   eV per channel (separate by commas if more than one detector)
#OFFSET      : 18.5, -22.4         eV of first channel  (separate by commas if more than one detector
#SIGNALTYPE  : XRF
#YP_TEMP     : 2.267
#LIVETIME    : 8.55916, 8.5331   seconds (separate by commas if more than one detector)
#REALTIME    : 10, 10.0   seconds (separate by commas if more than one detector)
#SPECTRUM    : start of spectrum data
0, 0
0, 0
0, 0
0, 0
0, 0
0, 0
0, 0
0, 0
6, 0
21, 0
9, 3
54, 52
66, 58
6, 7
8, 0
83, 115
417, 474
100, 101
9, 7
0, 0
1, 1
2, 2
3, 3
39, 7
818, 18
1347, 25
214, 30
19, 8
2, 7
2, 1
0, 0
1, 1
3, 1
12, 10
26, 12
7, 6
6, 4
28, 7
47, 3
20, 0
4, 6
11, 18
13, 17
7, 104
3, 134
5, 16
8, 4
6, 5
6, 5
17, 15
23, 17
34, 12
16, 8
41, 36
59, 54
23, 41
29, 83
440, 615
2141, 2251
1567, 1375
177, 157
45, 25
117, 21
222, 110
347, 344
225, 202
27, 15
8, 8
11, 17
10, 8
9, 4
2, 2
3, 6
7, 5
23, 1
64, 6
60, 3
17, 4
1, 1
4, 4
2, 0
5, 2
5, 1
6, 3
6, 8
4, 9
0, 7
5, 11
3, 5
2, 5
2, 3
1, 6
2, 1
4, 2
0, 2
2, 2
3, 1
1, 3
3, 3
4, 3
7, 3
7, 5
4, 5
2, 2
2, 3
0, 1
1, 3
1, 3
1, 3
0, 0
2, 1
3, 2
6, 1
2, 1
1, 2
4, 2
4, 2
4, 3
1, 1
0, 2
2, 2
0, 0
2, 2
0, 2
1, 0
0, 0
0, 0
2, 0
3, 0
0, 2
0, 3
1, 0
0, 2
2, 1
2, 0
1, 1
1, 0
2, 1
1, 2
1, 0
0, 1
0, 0
1, 1
0, 0
0, 2
3, 0
1, 0
1, 1
0, 0
1, 0
2, 0
0, 0
0, 0
0, 1
0, 1
0, 1
0, 0
0, 1
1, 0
0, 0
0, 0
0, 0
0, 0
0, 0
1, 0
0, 0
0, 1
0, 0
0, 0
1, 1
0, 0
0, 0
0, 0
0, 0
0, 0
0, 0
0, 0
0, 0
0, 0
0, 0
0, 0
1, 0
0, 0
0, 0
1, 0
0, 0
0, 0
0, 1
0, 0
0, 0
0, 0
0, 0
0, 0
0, 0
0, 0
0, 0
1, 0
0, 0
0, 0
0, 0
0, 0
0, 0
0, 0
0, 0
0, 0
0, 0
1, 0
0, 1
0, 0
0, 0
0, 0
0, 0
0, 0
0, 0
0, 0
0, 0
0, 0
0, 0
0, 0
0, 0
0, 0
0, 0
0, 0
0, 0
0, 0
0, 0
0, 0
0, 0
0, 0
0, 0
0, 0
0, 0
0, 0
0, 0
0, 0
0, 0
0, 0
0, 0
0, 0
0, 0
0, 0
0, 0
0, 0
0, 0
0, 0
0, 0
0, 0
0, 0
0, 0
0, 0
0, 0
0, 0
0, 0
0, 0
0, 0
0, 0
0, 0
0, 0
0, 0
0, 0
0, 0
0, 0
0, 0
0, 0
0, 0
0, 0
0, 0
0, 0
0, 0
0, 0
0, 0
0, 0
0, 0
0, 0
0, 0
0, 0
0, 0
0, 0
0, 0
0, 0
0, 0
0, 0
0, 0
0, 0
0, 0
0, 0
0, 0
0, 0
0, 0
0, 0
0, 0
0, 0
0, 0
0, 0
#ENDOFDATA     end of spectrum data

File: ps__0852shot_2190.msa
#FORMAT      : EMSA/MAS spectral data file
#VERSION     : TC202v2.0 PIXL
#TITLE       : N/A
#DATE        :       Date in the format DD-MMM-YYYY, for example 07-JUL-2010
#TIME        :             The time of day at which the spectrum was recorded, in 24-hour format
#OWNER       : PIXL Flight Model       (PIXL will use this to indicate which instrument took the data.)
#NPOINTS     : 4096     Number of data points in the spectrum (This can be zero for configuration only files)
#NCOLUMNS    : 2     Number of data columns in the spectrum (This can be zero for configuration only files)
#XUNITS      : eV
#YUNITS      : COUNTS
#DATATYPE    : YY
#XPERCHAN    : 7.862, 7.881   eV per channel (separate by commas if more than one detector)
#OFFSET      : 18.5, -22.4         eV of first channel  (separate by commas if more than one detector
#SIGNALTYPE  : XRF
#YP_TEMP     : 2.588
#LIVETIME    : 8.53998, 8.50689   seconds (separate by commas if more than one detector)
#REALTIME    : 10, 10.0   seconds (separate by commas if more than one detector)
#SPECTRUM    : start of spectrum data
0, 0
0, 0
0, 0
0, 0
0, 0
0, 0
0, 0
0, 0
4, 1
27, 0
2, 1
37, 54
58, 67
4, 1
4, 6
99, 116
422, 413
79, 107
0, 7
6, 2
1, 1
6, 5
4, 2
52, 7
1074, 19
1872, 30
260, 23
17, 18
3, 5
0, 4
5, 1
1, 1
1, 3
18, 19
19, 16
3, 4
4, 3
27, 2
48, 6
14, 2
7, 5
9, 21
13, 16
10, 95
7, 128
6, 25
0, 4
1, 4
10, 4
23, 21
24, 18
33, 15
14, 10
30, 53
53, 61
19, 42
30, 91
416, 667
1973, 2430
1433, 1415
183, 151
30, 20
117, 25
193, 139
330, 365
189, 214
26, 20
7, 6
15, 13
15, 9
3, 8
1, 0
0, 5
7, 3
30, 9
59, 9
51, 2
17, 6
4, 6
4, 8
1, 9
2, 4
3, 6
7, 9
2, 8
2, 8
6, 4
2, 6
6, 5
3, 3
6, 5
3, 2
1, 2
0, 3
2, 2
2, 3
1, 2
5, 2
1, 0
8, 5
4, 3
4, 7
3, 3
4, 1
1, 0
1, 0
2, 2
2, 0
4, 2
0, 0
1, 4
2, 1
3, 6
4, 3
3, 2
2, 4
2, 3
1, 1
2, 1
1, 1
3, 2
2, 0
3, 3
1, 1
2, 1
0, 0
0, 2
1, 0
2, 2
1, 0
1, 0
2, 0
1, 0
0, 0
0, 1
0, 0
1, 1
0, 1
1, 2
2, 0
0, 0
0, 2
3, 1
0, 0
2, 0
0, 0
0, 2
1, 0
0, 1
0, 0
2, 1
0, 0
0, 0
1, 0
0, 0
0, 0
0, 0
0, 0
0, 0
0, 1
0, 0
0, 0
0, 1
0, 1
0, 0
0, 1
0, 1
1, 0
0, 1
0, 0
0, 0
0, 1
0, 0
0, 0
0, 0
0, 0
0, 0
0, 0
0, 1
0, 1
0, 0
1, 0
0, 0
0, 0
0, 0
0, 0
0, 0
0, 0
0, 0
0, 0
0, 0
0, 2
0, 0
0, 0
0, 0
0, 0
0, 1
0, 0
0, 0
0, 0
0, 0
0, 0
1, 0
0, 0
0, 0
0, 0
0, 0
0, 0
0, 0
0, 0
0, 0
0, 0
0, 0
0, 0
0, 0
0, 0
0, 0
0, 0
0, 0
0, 0
0, 0
0, 0
0, 0
0, 0
0, 0
0, 0
0, 0
0, 0
0, 0
0, 0
0, 0
0, 0
0, 0
0, 0
0, 0
0, 0
0, 0
0, 0
0, 0
0, 0
0, 0
0, 0
0, 0
0, 0
0, 0
0, 0
0, 0
0, 0
0, 0
0, 0
0, 0
0, 0
0, 0
0, 0
0, 0
0, 0
0, 0
0, 0
0, 0
0, 0
0, 0
0, 0
0, 0
0, 0
0, 0
0, 0
0, 0
0, 0
0, 0
0, 0
0, 0
0, 0
0, 0
0, 0
0, 0
0, 0
0, 0
0, 0
0, 0
0, 0
0, 0
0, 0
0, 0
0, 0
0, 0
0, 0
0, 0
0, 0
0, 0
0, 0
0, 0
0, 0
0, 0
0, 0
#ENDOFDATA     end of spectrum data