Folder: data-repository/host_upload/06-09-2024/ps_0852/dump3 (part 44)

File: ps__0852shot_2392.msa
#FORMAT      : EMSA/MAS spectral data file
#VERSION     : TC202v2.0 PIXL
#TITLE       : N/A
#DATE        :       Date in the format DD-MMM-YYYY, for example 07-JUL-2010
#TIME        :             The time of day at which the spectrum was recorded, in 24-hour format
#OWNER       : PIXL Flight Model       (PIXL will use this to indicate which instrument took the data.)
#NPOINTS     : 4096     Number of data points in the spectrum (This can be zero for configuration only files)
#NCOLUMNS    : 2     Number of data columns in the spectrum (This can be zero for configuration only files)
#XUNITS      : eV
#YUNITS      : COUNTS
#DATATYPE    : YY
#XPERCHAN    : 7.862, 7.881   eV per channel (separate by commas if more than one detector)
#OFFSET      : 18.5, -22.4         eV of first channel  (separate by commas if more than one detector
#SIGNALTYPE  : XRF
#YP_TEMP     : 2.235
#LIVETIME    : 8.56479, 8.56108   seconds (separate by commas if more than one detector)
#REALTIME    : 10, 10.0   seconds (separate by commas if more than one detector)
#SPECTRUM    : start of spectrum data
0, 0
0, 0
0, 0
0, 0
0, 0
0, 0
0, 0
0, 0
0, 0
0, 1
5, 1
46, 44
75, 51
6, 5
6, 4
106, 84
494, 389
111, 92
9, 6
3, 1
1, 2
8, 7
5, 3
17, 4
49, 33
52, 33
30, 19
13, 12
6, 5
1, 7
4, 7
2, 2
2, 0
15, 15
22, 12
8, 1
5, 3
8, 7
9, 4
20, 5
30, 5
10, 7
11, 12
12, 6
8, 13
9, 21
4, 17
4, 9
7, 9
16, 8
24, 12
22, 6
33, 10
62, 40
85, 51
25, 21
36, 29
483, 560
2342, 2181
1752, 1271
206, 112
25, 12
28, 20
95, 120
363, 348
270, 187
46, 26
6, 11
15, 26
13, 12
8, 5
5, 5
8, 1
1, 4
7, 6
4, 7
4, 12
2, 14
5, 7
20, 9
18, 6
6, 8
8, 8
3, 1
2, 4
3, 4
7, 23
9, 29
6, 15
12, 6
5, 1
5, 3
2, 6
5, 3
2, 4
5, 4
2, 1
2, 3
2, 2
4, 1
5, 4
3, 2
6, 0
4, 2
5, 3
3, 1
6, 2
4, 5
1, 10
1, 8
4, 3
2, 0
2, 2
2, 2
2, 0
3, 4
6, 2
3, 2
3, 2
1, 0
1, 3
1, 1
4, 2
1, 2
2, 1
3, 3
1, 1
3, 2
1, 1
1, 0
1, 1
1, 0
0, 1
1, 1
0, 0
1, 0
1, 3
0, 3
1, 3
0, 1
0, 0
0, 0
0, 0
1, 1
1, 1
2, 0
0, 0
0, 0
2, 0
0, 0
1, 0
0, 1
0, 0
0, 0
1, 0
1, 0
1, 1
0, 0
0, 0
1, 1
0, 1
0, 0
1, 1
0, 1
0, 0
1, 0
2, 0
0, 0
0, 0
0, 1
0, 0
1, 1
0, 1
0, 0
0, 0
0, 0
0, 1
0, 1
1, 0
0, 0
0, 0
0, 0
0, 2
0, 0
0, 0
0, 0
0, 0
0, 0
0, 0
0, 0
0, 0
0, 0
1, 1
0, 0
0, 0
0, 0
0, 0
0, 0
0, 0
0, 0
0, 0
0, 0
0, 0
0, 0
0, 0
0, 0
0, 0
0, 0
0, 0
0, 0
0, 0
0, 0
0, 0
0, 0
0, 0
0, 0
0, 0
0, 0
0, 0
0, 0
0, 0
0, 0
0, 0
0, 0
0, 0
0, 0
0, 0
0, 0
0, 0
0, 0
0, 0
0, 0
0, 0
0, 0
0, 0
0, 0
0, 0
0, 0
0, 0
0, 0
0, 0
0, 0
0, 0
0, 0
0, 0
0, 0
0, 0
0, 0
0, 0
0, 0
0, 0
0, 0
0, 0
0, 0
0, 0
0, 0
0, 0
0, 0
0, 0
0, 0
0, 0
0, 0
0, 0
0, 0
0, 0
0, 0
0, 0
0, 0
0, 0
0, 0
0, 0
0, 0
0, 0
0, 0
0, 0
0, 0
0, 0
0, 0
0, 0
0, 0
0, 0
0, 0
0, 0
0, 0
0, 0
0, 0
0, 0
0, 0
0, 0
0, 0
0, 0
0, 0
0, 0
0, 0
#ENDOFDATA     end of spectrum data

File: ps__0852shot_2393.msa
#FORMAT      : EMSA/MAS spectral data file
#VERSION     : TC202v2.0 PIXL
#TITLE       : N/A
#DATE        :       Date in the format DD-MMM-YYYY, for example 07-JUL-2010
#TIME        :             The time of day at which the spectrum was recorded, in 24-hour format
#OWNER       : PIXL Flight Model       (PIXL will use this to indicate which instrument took the data.)
#NPOINTS     : 4096     Number of data points in the spectrum (This can be zero for configuration only files)
#NCOLUMNS    : 2     Number of data columns in the spectrum (This can be zero for configuration only files)
#XUNITS      : eV
#YUNITS      : COUNTS
#DATATYPE    : YY
#XPERCHAN    : 7.862, 7.881   eV per channel (separate by commas if more than one detector)
#OFFSET      : 18.5, -22.4         eV of first channel  (separate by commas if more than one detector
#SIGNALTYPE  : XRF
#YP_TEMP     : 2.267
#LIVETIME    : 8.56884, 8.57375   seconds (separate by commas if more than one detector)
#REALTIME    : 10, 10.0   seconds (separate by commas if more than one detector)
#SPECTRUM    : start of spectrum data
0, 0
0, 0
0, 0
0, 0
0, 0
0, 0
0, 0
0, 0
0, 1
2, 1
2, 2
62, 42
75, 71
6, 5
2, 4
95, 95
482, 424
110, 105
11, 4
3, 0
1, 0
7, 3
2, 1
4, 8
41, 38
33, 28
27, 18
16, 12
2, 6
4, 0
3, 3
2, 4
2, 1
11, 9
20, 16
7, 2
3, 3
4, 3
6, 1
2, 5
4, 3
12, 4
16, 16
12, 11
6, 9
7, 40
2, 38
6, 18
5, 6
16, 14
18, 6
10, 8
6, 8
38, 38
54, 49
22, 18
30, 50
529, 609
2291, 2361
1669, 1363
224, 167
18, 19
28, 16
99, 119
390, 385
258, 196
45, 20
4, 28
18, 44
9, 42
8, 14
10, 0
13, 3
5, 4
5, 4
4, 8
6, 13
3, 4
8, 3
18, 5
9, 2
10, 1
3, 8
1, 4
4, 2
6, 4
1, 8
3, 13
10, 12
17, 3
6, 6
2, 4
0, 5
2, 2
2, 3
5, 4
2, 3
2, 1
6, 3
1, 2
1, 3
4, 3
2, 2
3, 4
3, 2
3, 4
5, 5
1, 3
3, 2
0, 1
2, 3
3, 1
1, 3
4, 2
1, 1
2, 3
2, 3
5, 4
1, 2
4, 2
1, 3
2, 3
3, 0
1, 3
4, 0
3, 1
1, 0
1, 1
0, 0
2, 0
1, 0
1, 0
0, 1
2, 0
1, 0
1, 1
0, 2
0, 0
0, 1
0, 0
1, 1
0, 0
0, 1
1, 0
1, 0
1, 0
1, 0
1, 0
0, 1
1, 0
1, 0
0, 0
0, 0
0, 0
0, 0
1, 0
0, 0
1, 0
0, 1
0, 0
0, 0
0, 0
0, 0
0, 0
0, 0
0, 0
0, 0
1, 0
0, 3
0, 1
0, 0
0, 0
0, 1
0, 0
0, 0
0, 0
0, 0
0, 0
0, 0
0, 0
0, 0
1, 2
0, 1
1, 0
0, 0
0, 0
0, 0
0, 0
0, 0
0, 0
0, 0
0, 0
0, 0
0, 0
0, 0
0, 0
0, 0
0, 0
0, 0
0, 0
0, 0
0, 0
0, 0
0, 0
0, 0
0, 0
0, 0
0, 0
0, 0
0, 0
0, 0
0, 0
0, 0
0, 0
0, 0
0, 0
0, 0
0, 0
0, 0
0, 0
0, 0
0, 0
0, 0
0, 0
0, 0
0, 0
0, 0
0, 0
0, 0
0, 0
0, 0
0, 0
0, 0
0, 0
0, 0
0, 0
0, 0
0, 0
0, 0
0, 0
0, 0
0, 0
0, 0
0, 0
0, 0
0, 0
0, 0
0, 0
0, 0
0, 0
0, 0
0, 0
0, 0
0, 0
0, 0
0, 0
0, 0
0, 0
0, 0
0, 0
0, 0
0, 0
0, 0
0, 0
0, 0
0, 0
0, 0
0, 0
0, 0
0, 0
0, 0
0, 0
0, 0
0, 0
0, 0
0, 0
0, 0
0, 0
0, 0
0, 0
0, 0
0, 0
0, 0
0, 0
0, 0
0, 0
0, 0
0, 0
0, 0
0, 0
0, 0
0, 0
0, 0
0, 0
#ENDOFDATA     end of spectrum data

File: ps__0852shot_2394.msa
#FORMAT      : EMSA/MAS spectral data file
#VERSION     : TC202v2.0 PIXL
#TITLE       : N/A
#DATE        :       Date in the format DD-MMM-YYYY, for example 07-JUL-2010
#TIME        :             The time of day at which the spectrum was recorded, in 24-hour format
#OWNER       : PIXL Flight Model       (PIXL will use this to indicate which instrument took the data.)
#NPOINTS     : 4096     Number of data points in the spectrum (This can be zero for configuration only files)
#NCOLUMNS    : 2     Number of data columns in the spectrum (This can be zero for configuration only files)
#XUNITS      : eV
#YUNITS      : COUNTS
#DATATYPE    : YY
#XPERCHAN    : 7.862, 7.881   eV per channel (separate by commas if more than one detector)
#OFFSET      : 18.5, -22.4         eV of first channel  (separate by commas if more than one detector
#SIGNALTYPE  : XRF
#YP_TEMP     : 2.267
#LIVETIME    : 8.56706, 8.5803   seconds (separate by commas if more than one detector)
#REALTIME    : 10, 10.0   seconds (separate by commas if more than one detector)
#SPECTRUM    : start of spectrum data
0, 0
0, 0
0, 0
0, 0
0, 0
0, 0
0, 0
0, 0
0, 0
0, 1
6, 0
44, 39
73, 66
8, 1
7, 5
91, 109
433, 450
100, 108
8, 5
0, 2
3, 3
5, 8
6, 2
10, 9
36, 34
54, 40
21, 20
16, 13
7, 4
3, 1
2, 4
1, 3
2, 4
9, 14
19, 12
2, 7
4, 8
4, 6
8, 12
5, 6
4, 6
12, 11
16, 11
16, 13
8, 11
5, 29
10, 38
10, 16
10, 8
19, 32
11, 31
11, 8
15, 14
39, 51
58, 71
32, 21
26, 32
486, 608
2209, 2535
1646, 1449
193, 143
20, 21
20, 22
104, 141
351, 411
268, 219
41, 28
14, 15
10, 35
11, 36
6, 12
9, 4
9, 6
7, 8
6, 5
5, 6
4, 4
5, 1
9, 4
7, 1
9, 4
4, 0
8, 1
6, 5
7, 3
3, 2
0, 1
4, 5
7, 8
3, 2
2, 2
4, 4
4, 7
1, 10
4, 3
2, 4
4, 2
5, 2
2, 2
3, 1
3, 5
5, 2
2, 2
4, 2
1, 0
1, 1
4, 0
1, 2
2, 5
0, 2
0, 0
2, 6
1, 4
4, 1
6, 1
5, 6
0, 5
5, 3
1, 1
1, 2
0, 1
6, 2
0, 3
3, 3
0, 1
0, 0
1, 5
0, 3
0, 0
3, 1
4, 0
2, 1
1, 1
1, 1
0, 1
0, 1
1, 1
0, 2
0, 0
0, 1
0, 0
0, 0
0, 1
0, 1
1, 0
0, 2
3, 0
1, 1
0, 0
0, 0
0, 0
0, 2
2, 0
1, 1
3, 1
0, 4
0, 0
0, 1
0, 0
1, 0
1, 0
0, 0
0, 1
1, 1
0, 0
0, 1
1, 0
0, 0
0, 1
0, 0
0, 0
2, 0
0, 0
0, 0
1, 0
0, 0
0, 0
0, 0
0, 0
1, 0
1, 0
1, 0
0, 0
0, 0
0, 0
0, 0
0, 0
0, 0
0, 0
0, 0
0, 0
0, 0
0, 1
0, 0
0, 0
0, 0
0, 0
0, 0
0, 0
0, 0
0, 0
0, 0
0, 0
0, 0
0, 0
0, 0
0, 0
0, 0
0, 0
0, 0
0, 0
0, 0
0, 0
0, 0
0, 0
0, 0
0, 0
0, 0
0, 0
1, 0
0, 0
0, 0
0, 0
0, 0
0, 0
0, 0
0, 0
0, 0
0, 0
0, 0
0, 0
0, 0
0, 0
0, 0
0, 0
0, 0
0, 0
0, 0
0, 0
0, 0
0, 0
0, 0
0, 0
0, 0
0, 0
0, 0
0, 0
0, 0
0, 0
0, 0
0, 0
0, 0
0, 0
0, 0
0, 0
0, 0
0, 0
0, 0
0, 0
0, 0
0, 0
0, 0
0, 0
0, 0
0, 0
0, 0
0, 0
0, 0
0, 0
0, 0
0, 0
0, 0
0, 0
0, 0
0, 0
0, 0
0, 0
0, 0
0, 0
0, 0
0, 0
0, 0
0, 0
0, 0
0, 0
0, 0
0, 0
0, 0
0, 0
0, 0
0, 0
0, 0
0, 0
0, 0
#ENDOFDATA     end of spectrum data

File: ps__0852shot_2395.msa
#FORMAT      : EMSA/MAS spectral data file
#VERSION     : TC202v2.0 PIXL
#TITLE       : N/A
#DATE        :       Date in the format DD-MMM-YYYY, for example 07-JUL-2010
#TIME        :             The time of day at which the spectrum was recorded, in 24-hour format
#OWNER       : PIXL Flight Model       (PIXL will use this to indicate which instrument took the data.)
#NPOINTS     : 4096     Number of data points in the spectrum (This can be zero for configuration only files)
#NCOLUMNS    : 2     Number of data columns in the spectrum (This can be zero for configuration only files)
#XUNITS      : eV
#YUNITS      : COUNTS
#DATATYPE    : YY
#XPERCHAN    : 7.862, 7.881   eV per channel (separate by commas if more than one detector)
#OFFSET      : 18.5, -22.4         eV of first channel  (separate by commas if more than one detector
#SIGNALTYPE  : XRF
#YP_TEMP     : 2.396
#LIVETIME    : 8.56917, 8.55612   seconds (separate by commas if more than one detector)
#REALTIME    : 10, 10.0   seconds (separate by commas if more than one detector)
#SPECTRUM    : start of spectrum data
0, 0
0, 0
0, 0
0, 0
0, 0
0, 0
0, 0
0, 0
0, 1
0, 0
3, 1
47, 56
57, 52
2, 2
3, 9
85, 101
408, 441
110, 102
4, 3
2, 3
4, 2
4, 8
1, 3
6, 8
39, 58
39, 44
14, 21
17, 13
3, 4
4, 1
1, 2
1, 3
3, 6
12, 18
15, 30
6, 7
5, 6
4, 11
9, 9
5, 10
7, 7
15, 9
12, 12
16, 14
8, 6
9, 8
12, 10
10, 8
5, 24
12, 49
14, 33
13, 13
21, 12
34, 47
62, 44
20, 22
38, 33
477, 643
2086, 2450
1695, 1396
192, 163
15, 22
23, 19
104, 105
338, 377
233, 216
34, 30
13, 10
15, 18
4, 9
5, 7
6, 5
5, 4
6, 9
9, 11
7, 8
1, 12
5, 4
8, 4
8, 7
9, 3
5, 4
1, 4
10, 6
7, 11
9, 13
3, 4
3, 2
4, 3
4, 2
4, 5
4, 5
4, 5
2, 7
2, 8
2, 8
4, 5
2, 4
4, 4
1, 3
4, 3
2, 1
5, 0
3, 2
1, 2
1, 3
2, 4
3, 7
0, 3
4, 2
2, 5
3, 0
5, 2
1, 1
2, 2
3, 2
4, 4
3, 4
2, 2
2, 1
1, 1
1, 1
2, 4
1, 1
1, 0
0, 1
1, 4
2, 1
1, 0
1, 0
0, 0
0, 0
1, 0
0, 1
1, 0
1, 0
2, 0
0, 2
0, 1
1, 2
1, 0
2, 1
1, 0
0, 1
2, 1
0, 0
0, 1
1, 0
1, 1
1, 0
0, 0
1, 1
0, 0
0, 0
1, 0
0, 0
0, 2
1, 0
0, 0
0, 0
0, 2
0, 0
0, 0
0, 0
0, 0
1, 0
0, 0
0, 0
0, 1
0, 0
0, 0
0, 0
0, 0
0, 0
0, 0
0, 0
0, 0
0, 2
0, 0
0, 0
0, 2
0, 1
0, 0
0, 0
2, 0
0, 0
0, 0
0, 0
1, 0
0, 0
0, 0
0, 0
0, 0
0, 0
0, 0
0, 0
0, 0
0, 0
0, 0
0, 0
0, 0
0, 0
0, 0
0, 0
0, 0
0, 0
0, 0
0, 0
0, 0
0, 0
0, 0
0, 0
0, 1
0, 0
0, 0
0, 0
0, 0
0, 0
0, 0
0, 0
0, 0
0, 0
0, 0
0, 0
0, 0
0, 0
0, 0
0, 0
0, 0
0, 0
0, 0
0, 0
0, 0
0, 0
0, 0
0, 0
0, 0
0, 0
0, 0
0, 0
0, 0
0, 0
0, 0
0, 0
0, 0
0, 0
0, 0
0, 0
0, 0
0, 0
0, 0
0, 0
0, 0
0, 0
0, 0
0, 0
0, 0
0, 0
0, 0
0, 0
0, 0
0, 0
0, 0
0, 0
0, 0
0, 0
0, 0
0, 0
0, 0
0, 0
0, 0
0, 0
0, 0
0, 0
0, 0
0, 0
0, 0
0, 0
0, 0
0, 0
0, 0
0, 0
0, 0
0, 0
0, 0
0, 0
0, 0
0, 0
0, 0
0, 0
0, 0
0, 0
0, 0
0, 0
#ENDOFDATA     end of spectrum data

File: ps__0852shot_2396.msa
#FORMAT      : EMSA/MAS spectral data file
#VERSION     : TC202v2.0 PIXL
#TITLE       : N/A
#DATE        :       Date in the format DD-MMM-YYYY, for example 07-JUL-2010
#TIME        :             The time of day at which the spectrum was recorded, in 24-hour format
#OWNER       : PIXL Flight Model       (PIXL will use this to indicate which instrument took the data.)
#NPOINTS     : 4096     Number of data points in the spectrum (This can be zero for configuration only files)
#NCOLUMNS    : 2     Number of data columns in the spectrum (This can be zero for configuration only files)
#XUNITS      : eV
#YUNITS      : COUNTS
#DATATYPE    : YY
#XPERCHAN    : 7.862, 7.881   eV per channel (separate by commas if more than one detector)
#OFFSET      : 18.5, -22.4         eV of first channel  (separate by commas if more than one detector
#SIGNALTYPE  : XRF
#YP_TEMP     : 2.396
#LIVETIME    : 8.57474, 8.55967   seconds (separate by commas if more than one detector)
#REALTIME    : 10, 10.0   seconds (separate by commas if more than one detector)
#SPECTRUM    : start of spectrum data
0, 0
0, 0
0, 0
0, 0
0, 0
0, 0
0, 0
0, 0
1, 1
2, 2
0, 5
34, 40
45, 41
4, 7
5, 2
99, 104
394, 425
103, 126
5, 11
0, 1
1, 0
4, 7
5, 3
12, 14
43, 55
44, 60
33, 30
8, 16
2, 7
4, 0
3, 5
2, 2
3, 4
12, 8
12, 8
5, 6
2, 5
3, 4
5, 9
19, 6
17, 3
10, 13
16, 20
14, 5
5, 3
6, 4
5, 3
6, 29
7, 63
9, 30
21, 12
11, 10
8, 11
37, 56
67, 42
19, 19
39, 36
439, 678
2092, 2633
1529, 1466
198, 158
10, 33
20, 22
104, 137
335, 420
247, 220
21, 23
7, 6
10, 11
14, 12
7, 4
5, 5
2, 8
2, 16
9, 3
4, 7
5, 4
4, 4
4, 3
4, 3
5, 1
5, 4
3, 6
5, 7
1, 24
2, 17
1, 5
5, 4
6, 0
5, 3
18, 3
17, 0
11, 1
4, 2
0, 2
2, 9
4, 4
5, 10
1, 2
3, 2
0, 1
1, 3
1, 3
1, 4
3, 2
0, 5
1, 1
1, 4
2, 7
2, 6
4, 2
2, 1
2, 1
4, 1
4, 1
5, 5
2, 7
4, 5
0, 3
3, 2
1, 2
0, 1
1, 2
1, 8
0, 0
0, 1
0, 2
1, 2
1, 0
2, 1
1, 0
0, 1
0, 2
2, 1
0, 0
1, 1
1, 0
0, 0
3, 0
2, 0
1, 0
1, 0
0, 0
0, 0
0, 0
1, 2
0, 0
0, 0
1, 0
0, 1
2, 1
0, 0
1, 1
1, 0
3, 1
0, 0
0, 0
0, 0
1, 0
0, 0
0, 0
0, 1
0, 0
0, 0
1, 0
1, 0
0, 0
0, 0
0, 0
1, 0
1, 0
0, 0
1, 0
1, 0
0, 0
0, 0
0, 0
0, 0
1, 0
0, 0
0, 0
0, 0
0, 0
0, 0
0, 0
0, 0
0, 0
0, 0
0, 0
0, 0
0, 0
0, 0
0, 0
0, 0
0, 0
0, 0
0, 0
0, 0
1, 0
0, 0
1, 0
0, 0
0, 0
0, 0
0, 0
0, 0
0, 0
0, 0
0, 0
0, 0
0, 0
0, 0
0, 0
0, 0
0, 0
0, 0
0, 0
0, 0
0, 0
0, 0
0, 0
0, 0
0, 0
0, 0
0, 0
0, 0
0, 0
0, 0
0, 0
0, 0
0, 0
0, 0
0, 0
0, 0
0, 0
0, 0
0, 0
0, 0
0, 0
0, 0
0, 0
0, 0
0, 0
0, 0
0, 0
0, 0
0, 0
0, 0
0, 0
0, 0
0, 0
0, 0
0, 0
0, 0
0, 0
0, 0
0, 0
0, 0
0, 0
0, 0
0, 0
0, 0
0, 0
0, 0
0, 0
0, 0
0, 0
0, 0
0, 0
0, 0
0, 0
0, 0
0, 0
0, 0
0, 0
0, 0
0, 0
0, 0
0, 0
0, 0
0, 0
0, 0
0, 0
0, 0
0, 0
0, 0
0, 0
0, 0
0, 0
0, 0
0, 0
0, 0
0, 0
0, 0
#ENDOFDATA     end of spectrum data

File: ps__0852shot_2397.msa
#FORMAT      : EMSA/MAS spectral data file
#VERSION     : TC202v2.0 PIXL
#TITLE       : N/A
#DATE        :       Date in the format DD-MMM-YYYY, for example 07-JUL-2010
#TIME        :             The time of day at which the spectrum was recorded, in 24-hour format
#OWNER       : PIXL Flight Model       (PIXL will use this to indicate which instrument took the data.)
#NPOINTS     : 4096     Number of data points in the spectrum (This can be zero for configuration only files)
#NCOLUMNS    : 2     Number of data columns in the spectrum (This can be zero for configuration only files)
#XUNITS      : eV
#YUNITS      : COUNTS
#DATATYPE    : YY
#XPERCHAN    : 7.862, 7.881   eV per channel (separate by commas if more than one detector)
#OFFSET      : 18.5, -22.4         eV of first channel  (separate by commas if more than one detector
#SIGNALTYPE  : XRF
#YP_TEMP     : 2.107
#LIVETIME    : 8.57781, 8.56642   seconds (separate by commas if more than one detector)
#REALTIME    : 10, 10.0   seconds (separate by commas if more than one detector)
#SPECTRUM    : start of spectrum data
0, 0
0, 0
0, 0
0, 0
0, 0
0, 0
0, 0
0, 1
1, 5
3, 11
3, 4
27, 44
57, 54
4, 5
3, 6
93, 100
443, 478
106, 113
2, 4
3, 2
1, 2
4, 14
3, 7
8, 38
51, 420
39, 485
28, 51
8, 8
5, 6
9, 1
4, 2
2, 4
1, 5
5, 8
13, 12
5, 8
5, 1
10, 4
9, 15
23, 22
7, 5
4, 11
8, 19
24, 12
54, 8
23, 9
9, 6
7, 16
7, 50
16, 39
16, 16
15, 3
17, 12
35, 49
66, 57
29, 30
25, 34
501, 624
2124, 2440
1504, 1406
171, 140
26, 12
18, 19
101, 131
313, 390
233, 215
30, 19
9, 8
12, 15
13, 7
8, 4
2, 8
6, 14
10, 23
14, 14
3, 2
5, 3
0, 4
2, 0
3, 3
3, 7
4, 4
5, 7
3, 8
2, 19
2, 16
2, 8
3, 3
6, 1
2, 5
2, 1
14, 3
6, 3
2, 2
4, 4
1, 4
6, 7
3, 6
3, 4
1, 4
3, 4
2, 1
3, 1
2, 0
5, 1
1, 2
4, 4
2, 2
2, 8
2, 6
6, 4
3, 0
7, 2
3, 1
4, 2
1, 1
4, 8
4, 5
0, 5
0, 0
1, 2
0, 0
0, 1
1, 1
1, 1
1, 1
0, 0
1, 1
1, 0
0, 1
1, 2
2, 1
0, 2
1, 0
0, 1
0, 0
0, 0
0, 2
1, 1
0, 2
0, 0
1, 0
0, 0
1, 0
0, 0
0, 1
1, 1
0, 1
0, 0
1, 0
3, 0
0, 0
1, 0
0, 2
2, 1
1, 0
0, 0
1, 0
0, 0
0, 0
0, 0
1, 0
0, 1
1, 0
1, 0
2, 0
0, 1
0, 0
0, 0
0, 0
0, 0
0, 1
1, 0
1, 0
0, 0
1, 0
1, 0
0, 1
0, 0
0, 0
0, 1
0, 0
0, 0
0, 0
0, 0
0, 0
0, 0
0, 0
0, 0
0, 0
0, 0
0, 0
0, 0
0, 0
0, 0
0, 1
0, 0
0, 0
0, 0
0, 0
0, 0
0, 0
0, 0
0, 0
0, 0
0, 0
0, 0
0, 0
0, 0
0, 0
0, 0
0, 0
0, 0
0, 0
0, 0
0, 0
0, 0
0, 0
0, 0
0, 0
0, 0
0, 0
0, 0
0, 0
0, 0
0, 0
0, 0
0, 0
0, 0
0, 0
0, 0
0, 0
0, 0
0, 0
0, 0
0, 0
0, 0
0, 0
0, 0
0, 0
0, 0
0, 0
0, 0
0, 0
0, 0
0, 0
0, 0
0, 0
0, 0
0, 0
0, 0
0, 0
0, 0
0, 0
0, 0
0, 0
0, 0
0, 0
0, 0
0, 0
0, 0
0, 0
0, 0
0, 0
0, 0
0, 0
0, 0
0, 0
0, 0
0, 0
0, 0
0, 0
0, 0
0, 0
0, 0
0, 0
0, 0
0, 0
0, 0
0, 0
0, 0
0, 0
0, 0
0, 0
0, 0
0, 0
0, 0
0, 0
0, 0
0, 0
0, 0
0, 0
0, 0
0, 0
#ENDOFDATA     end of spectrum data

File: ps__0852shot_2398.msa
#FORMAT      : EMSA/MAS spectral data file
#VERSION     : TC202v2.0 PIXL
#TITLE       : N/A
#DATE        :       Date in the format DD-MMM-YYYY, for example 07-JUL-2010
#TIME        :             The time of day at which the spectrum was recorded, in 24-hour format
#OWNER       : PIXL Flight Model       (PIXL will use this to indicate which instrument took the data.)
#NPOINTS     : 4096     Number of data points in the spectrum (This can be zero for configuration only files)
#NCOLUMNS    : 2     Number of data columns in the spectrum (This can be zero for configuration only files)
#XUNITS      : eV
#YUNITS      : COUNTS
#DATATYPE    : YY
#XPERCHAN    : 7.862, 7.881   eV per channel (separate by commas if more than one detector)
#OFFSET      : 18.5, -22.4         eV of first channel  (separate by commas if more than one detector
#SIGNALTYPE  : XRF
#YP_TEMP     : 2.364
#LIVETIME    : 8.55976, 8.56682   seconds (separate by commas if more than one detector)
#REALTIME    : 10, 10.0   seconds (separate by commas if more than one detector)
#SPECTRUM    : start of spectrum data
0, 0
0, 0
0, 0
0, 0
0, 0
0, 0
0, 0
0, 0
1, 8
1, 24
2, 3
43, 49
66, 53
3, 5
4, 5
104, 97
433, 415
108, 91
6, 4
1, 0
2, 4
3, 4
5, 9
5, 68
45, 919
28, 1284
16, 133
10, 15
7, 7
9, 2
5, 4
4, 2
1, 5
9, 5
13, 12
6, 5
11, 5
4, 8
5, 25
6, 29
2, 8
10, 6
12, 14
29, 13
62, 6
34, 10
7, 6
5, 13
8, 40
16, 65
9, 14
19, 8
24, 12
33, 37
59, 59
19, 11
32, 30
552, 524
2310, 2225
1666, 1331
219, 141
25, 20
21, 41
90, 127
387, 341
228, 197
37, 22
4, 9
9, 13
9, 9
6, 3
4, 6
7, 21
13, 28
14, 16
3, 6
7, 3
2, 3
7, 3
5, 4
2, 2
12, 1
4, 5
7, 7
1, 5
1, 8
5, 4
5, 4
3, 2
8, 1
2, 2
5, 5
1, 3
6, 0
6, 2
12, 2
7, 1
3, 3
2, 5
1, 2
1, 3
5, 0
3, 1
7, 3
1, 2
4, 0
2, 5
1, 1
3, 2
2, 2
1, 1
1, 1
0, 2
3, 1
2, 2
2, 6
2, 2
4, 1
4, 3
1, 2
0, 0
1, 5
1, 0
3, 2
4, 1
0, 2
1, 0
1, 0
0, 0
1, 2
1, 0
3, 0
2, 1
1, 1
0, 1
2, 3
1, 2
0, 1
1, 0
2, 1
0, 0
1, 0
1, 1
0, 1
1, 1
1, 1
0, 0
3, 2
2, 0
1, 0
0, 0
0, 0
2, 0
0, 0
1, 2
1, 0
0, 0
0, 0
2, 1
0, 0
0, 0
0, 1
0, 1
1, 0
0, 0
0, 2
0, 1
1, 1
0, 0
0, 0
0, 1
1, 0
0, 0
0, 0
0, 0
0, 0
0, 0
0, 1
0, 0
0, 0
0, 0
0, 0
1, 1
0, 0
0, 0
0, 0
0, 0
0, 0
0, 0
0, 0
0, 2
0, 0
0, 1
0, 0
0, 0
0, 0
0, 0
1, 0
0, 0
0, 0
0, 0
0, 0
0, 0
0, 0
0, 0
0, 0
0, 0
0, 0
0, 0
0, 0
0, 0
0, 0
0, 0
0, 0
0, 0
0, 0
0, 0
0, 0
0, 0
0, 0
0, 0
0, 0
0, 0
0, 0
0, 0
0, 0
0, 0
0, 0
0, 0
0, 0
0, 0
0, 0
0, 0
0, 0
0, 0
0, 0
0, 0
0, 0
0, 0
0, 0
0, 0
0, 0
0, 0
0, 0
0, 0
0, 0
0, 0
0, 0
0, 0
0, 0
0, 0
0, 0
0, 0
0, 0
0, 0
0, 0
0, 0
0, 0
0, 0
0, 0
0, 0
0, 0
0, 0
0, 0
0, 0
0, 0
0, 0
0, 0
0, 0
0, 0
0, 0
0, 0
0, 0
0, 0
0, 0
0, 0
0, 0
0, 0
0, 0
0, 0
0, 0
0, 0
0, 0
0, 0
0, 0
0, 0
0, 0
0, 0
0, 0
0, 0
0, 0
0, 0
0, 0
0, 0
#ENDOFDATA     end of spectrum data

File: ps__0852shot_2399.msa
#FORMAT      : EMSA/MAS spectral data file
#VERSION     : TC202v2.0 PIXL
#TITLE       : N/A
#DATE        :       Date in the format DD-MMM-YYYY, for example 07-JUL-2010
#TIME        :             The time of day at which the spectrum was recorded, in 24-hour format
#OWNER       : PIXL Flight Model       (PIXL will use this to indicate which instrument took the data.)
#NPOINTS     : 4096     Number of data points in the spectrum (This can be zero for configuration only files)
#NCOLUMNS    : 2     Number of data columns in the spectrum (This can be zero for configuration only files)
#XUNITS      : eV
#YUNITS      : COUNTS
#DATATYPE    : YY
#XPERCHAN    : 7.862, 7.881   eV per channel (separate by commas if more than one detector)
#OFFSET      : 18.5, -22.4         eV of first channel  (separate by commas if more than one detector
#SIGNALTYPE  : XRF
#YP_TEMP     : 2.428
#LIVETIME    : 8.57316, 8.57173   seconds (separate by commas if more than one detector)
#REALTIME    : 10, 10.0   seconds (separate by commas if more than one detector)
#SPECTRUM    : start of spectrum data
0, 0
0, 0
0, 0
0, 0
0, 0
0, 0
0, 0
0, 0
0, 17
0, 64
3, 12
53, 42
71, 54
7, 9
1, 9
99, 88
430, 401
118, 101
6, 7
0, 4
3, 4
5, 10
4, 13
8, 108
16, 2086
27, 3136
21, 350
11, 12
5, 6
7, 1
4, 3
1, 2
0, 2
9, 7
13, 13
11, 6
28, 4
34, 8
7, 44
4, 90
3, 21
9, 15
11, 13
31, 9
60, 4
26, 5
12, 7
13, 7
8, 38
9, 99
17, 30
11, 4
13, 15
49, 51
74, 47
40, 23
40, 29
507, 598
2311, 2167
1742, 1293
209, 119
23, 11
27, 44
96, 124
365, 344
240, 181
40, 21
11, 14
19, 10
12, 10
6, 2
2, 6
5, 27
11, 73
8, 46
6, 14
5, 5
4, 4
3, 9
2, 2
8, 4
2, 2
4, 7
1, 12
3, 7
2, 4
6, 5
3, 9
3, 3
4, 5
4, 1
2, 2
2, 2
2, 7
14, 1
22, 4
15, 3
4, 9
1, 5
1, 4
0, 4
4, 1
2, 2
3, 1
1, 0
0, 6
3, 2
1, 7
2, 4
5, 3
6, 3
0, 7
5, 3
0, 0
0, 3
4, 3
2, 1
0, 3
0, 4
2, 1
2, 2
1, 4
3, 4
0, 3
0, 3
1, 0
0, 1
2, 0
0, 0
1, 1
1, 1
1, 3
2, 1
0, 2
0, 0
0, 1
1, 0
1, 1
2, 0
0, 0
0, 0
0, 1
0, 0
0, 0
1, 2
1, 0
3, 0
3, 2
0, 1
0, 1
0, 1
0, 1
1, 0
2, 0
0, 0
0, 1
0, 0
2, 0
0, 0
1, 0
0, 0
1, 0
1, 1
0, 1
0, 0
0, 0
0, 0
0, 0
0, 0
0, 1
0, 0
0, 1
1, 0
0, 0
1, 0
0, 0
0, 0
1, 0
0, 1
0, 0
0, 0
0, 0
1, 1
0, 0
0, 0
0, 1
0, 0
0, 0
0, 1
0, 0
0, 0
0, 0
0, 1
0, 0
0, 0
0, 0
0, 0
0, 0
1, 0
0, 0
0, 0
0, 1
0, 0
0, 0
0, 0
0, 0
0, 0
0, 0
0, 0
0, 0
0, 0
0, 0
0, 0
0, 0
0, 0
1, 0
0, 0
0, 0
0, 0
0, 0
0, 0
0, 0
0, 0
0, 0
0, 0
0, 0
0, 0
0, 0
0, 0
0, 0
0, 0
0, 0
0, 0
0, 0
0, 0
0, 0
0, 0
0, 0
0, 0
0, 0
0, 0
0, 0
0, 0
0, 0
0, 0
0, 0
0, 0
0, 0
0, 0
0, 0
0, 0
0, 0
0, 0
0, 0
0, 0
0, 0
0, 0
0, 0
0, 0
0, 0
0, 0
0, 0
0, 0
0, 0
0, 0
0, 0
0, 0
0, 0
0, 0
0, 0
0, 0
0, 0
0, 0
0, 0
0, 0
0, 0
0, 0
0, 0
0, 0
0, 0
0, 0
0, 0
0, 0
0, 0
0, 0
0, 0
0, 0
0, 0
0, 0
0, 0
0, 0
0, 0
0, 0
0, 0
#ENDOFDATA     end of spectrum data

File: ps__0852shot_2400.msa
#FORMAT      : EMSA/MAS spectral data file
#VERSION     : TC202v2.0 PIXL
#TITLE       : N/A
#DATE        :       Date in the format DD-MMM-YYYY, for example 07-JUL-2010
#TIME        :             The time of day at which the spectrum was recorded, in 24-hour format
#OWNER       : PIXL Flight Model       (PIXL will use this to indicate which instrument took the data.)
#NPOINTS     : 4096     Number of data points in the spectrum (This can be zero for configuration only files)
#NCOLUMNS    : 2     Number of data columns in the spectrum (This can be zero for configuration only files)
#XUNITS      : eV
#YUNITS      : COUNTS
#DATATYPE    : YY
#XPERCHAN    : 7.862, 7.881   eV per channel (separate by commas if more than one detector)
#OFFSET      : 18.5, -22.4         eV of first channel  (separate by commas if more than one detector
#SIGNALTYPE  : XRF
#YP_TEMP     : 2.3
#LIVETIME    : 8.56812, 8.56801   seconds (separate by commas if more than one detector)
#REALTIME    : 10, 10.0   seconds (separate by commas if more than one detector)
#SPECTRUM    : start of spectrum data
0, 0
0, 0
0, 0
0, 0
0, 0
0, 0
0, 0
0, 0
0, 7
1, 20
1, 6
50, 53
61, 71
6, 7
5, 2
124, 86
405, 433
90, 89
3, 6
1, 3
3, 1
4, 2
0, 7
3, 36
21, 497
26, 848
19, 93
13, 10
8, 3
1, 0
1, 1
2, 3
7, 2
18, 9
12, 11
8, 3
53, 3
54, 5
22, 67
10, 118
8, 25
14, 10
7, 15
14, 9
5, 16
4, 12
2, 14
6, 7
9, 9
16, 20
15, 11
48, 14
32, 27
36, 83
52, 78
16, 24
26, 43
443, 610
2241, 2337
1647, 1332
216, 149
19, 27
15, 39
88, 118
362, 385
209, 185
39, 38
12, 39
13, 22
6, 8
3, 8
5, 1
6, 6
6, 12
4, 17
6, 23
9, 18
8, 7
3, 10
6, 7
7, 2
4, 8
2, 12
1, 9
2, 5
5, 4
10, 1
13, 3
5, 4
3, 10
4, 5
3, 2
0, 2
5, 5
8, 1
6, 2
2, 1
6, 3
2, 0
2, 5
3, 1
1, 3
2, 0
0, 3
5, 0
1, 5
3, 2
0, 4
4, 3
2, 4
0, 2
2, 1
5, 5
1, 0
1, 1
3, 0
4, 7
1, 1
3, 3
0, 0
1, 1
1, 1
3, 0
3, 3
3, 0
0, 4
0, 1
1, 2
0, 0
0, 0
0, 0
2, 0
2, 4
0, 1
0, 3
0, 1
1, 1
1, 2
0, 0
0, 0
0, 0
0, 0
0, 0
2, 1
1, 0
2, 0
1, 1
2, 0
0, 0
2, 0
0, 1
0, 0
2, 0
1, 1
2, 0
0, 1
0, 0
0, 0
0, 0
0, 0
0, 0
0, 0
0, 0
0, 1
0, 0
1, 0
1, 1
0, 0
0, 0
0, 0
0, 0
0, 0
0, 1
0, 0
0, 0
0, 1
0, 0
0, 0
0, 0
2, 1
0, 1
0, 0
0, 2
0, 0
0, 0
0, 0
0, 0
0, 0
0, 0
0, 0
0, 0
0, 0
0, 0
0, 0
0, 0
0, 1
0, 0
0, 0
0, 0
1, 0
0, 0
0, 0
0, 0
0, 0
0, 0
0, 0
0, 0
0, 0
0, 0
0, 0
0, 0
0, 0
0, 0
0, 0
0, 0
0, 0
0, 0
0, 0
0, 0
0, 0
0, 0
0, 0
0, 0
0, 0
0, 0
0, 0
0, 0
0, 0
0, 0
0, 0
0, 0
0, 0
0, 0
0, 0
0, 0
0, 0
0, 0
0, 0
0, 0
0, 0
0, 0
0, 0
0, 0
0, 0
0, 0
0, 0
0, 0
0, 0
0, 0
0, 0
0, 0
0, 0
0, 0
0, 0
0, 0
0, 0
0, 0
0, 0
0, 0
0, 0
0, 0
0, 0
0, 0
0, 0
0, 0
0, 0
0, 0
0, 0
0, 0
0, 0
0, 0
0, 0
0, 0
0, 0
0, 0
0, 0
0, 0
0, 0
0, 0
0, 0
0, 0
0, 0
0, 0
0, 0
0, 0
0, 0
0, 0
0, 0
0, 0
0, 0
0, 0
0, 0
0, 0
0, 0
#ENDOFDATA     end of spectrum data