Folder: data-repository/host_upload/06-09-2024/ps_0852/dump3 (part 14)

File: ps__0852shot_2119.msa
#FORMAT      : EMSA/MAS spectral data file
#VERSION     : TC202v2.0 PIXL
#TITLE       : N/A
#DATE        :       Date in the format DD-MMM-YYYY, for example 07-JUL-2010
#TIME        :             The time of day at which the spectrum was recorded, in 24-hour format
#OWNER       : PIXL Flight Model       (PIXL will use this to indicate which instrument took the data.)
#NPOINTS     : 4096     Number of data points in the spectrum (This can be zero for configuration only files)
#NCOLUMNS    : 2     Number of data columns in the spectrum (This can be zero for configuration only files)
#XUNITS      : eV
#YUNITS      : COUNTS
#DATATYPE    : YY
#XPERCHAN    : 7.862, 7.881   eV per channel (separate by commas if more than one detector)
#OFFSET      : 18.5, -22.4         eV of first channel  (separate by commas if more than one detector
#SIGNALTYPE  : XRF
#YP_TEMP     : 2.588
#LIVETIME    : 8.55441, 8.57333   seconds (separate by commas if more than one detector)
#REALTIME    : 10, 10.0   seconds (separate by commas if more than one detector)
#SPECTRUM    : start of spectrum data
0, 0
0, 0
0, 0
0, 0
0, 0
0, 0
0, 0
1, 0
0, 0
2, 1
5, 1
64, 58
66, 62
3, 6
4, 6
120, 85
428, 413
102, 112
5, 3
3, 3
3, 4
6, 16
5, 10
5, 20
21, 42
54, 50
31, 38
24, 8
3, 4
2, 3
3, 2
1, 3
2, 4
26, 12
28, 21
9, 8
8, 7
10, 6
8, 17
5, 8
3, 9
12, 15
16, 30
10, 22
10, 11
7, 11
11, 6
21, 11
22, 11
57, 19
58, 29
19, 14
13, 16
38, 35
68, 60
21, 23
31, 36
477, 550
2127, 2231
1632, 1372
216, 148
22, 23
37, 31
100, 115
343, 361
225, 234
41, 21
7, 7
12, 11
7, 8
7, 5
3, 6
4, 7
6, 5
3, 5
4, 7
6, 7
3, 9
2, 7
3, 2
6, 2
7, 6
8, 5
1, 9
2, 8
2, 13
3, 11
7, 3
5, 0
6, 4
2, 4
5, 0
6, 2
9, 7
6, 1
1, 3
3, 6
4, 3
4, 2
4, 3
0, 3
2, 3
1, 4
0, 5
4, 3
3, 2
3, 4
3, 1
0, 3
3, 3
2, 1
4, 2
1, 1
2, 1
1, 3
3, 3
8, 6
2, 1
0, 3
2, 0
1, 5
1, 1
3, 2
1, 0
1, 2
2, 0
2, 0
2, 0
2, 3
1, 2
3, 1
2, 1
0, 1
0, 2
1, 0
0, 0
0, 0
0, 2
2, 1
0, 0
1, 0
1, 2
1, 2
2, 1
0, 0
0, 1
0, 0
0, 0
1, 0
0, 0
0, 0
1, 0
0, 0
0, 0
1, 0
1, 0
0, 0
0, 0
1, 0
2, 0
1, 0
2, 0
0, 0
1, 1
0, 1
0, 0
0, 0
0, 1
0, 0
0, 0
1, 1
0, 1
0, 0
0, 0
1, 0
1, 0
0, 0
0, 0
0, 0
0, 1
0, 0
0, 0
1, 0
0, 0
1, 1
1, 0
0, 0
0, 0
0, 0
0, 0
1, 0
0, 0
0, 0
0, 0
0, 0
1, 0
0, 0
0, 0
1, 0
1, 0
0, 0
0, 0
0, 0
0, 0
0, 0
0, 0
0, 0
0, 0
0, 0
0, 0
0, 0
0, 0
0, 0
0, 0
0, 0
0, 0
0, 0
0, 0
0, 0
0, 0
0, 0
0, 0
0, 0
0, 0
0, 0
0, 0
0, 0
0, 0
0, 0
0, 0
0, 0
0, 0
0, 0
0, 0
0, 0
0, 0
0, 0
0, 0
0, 1
0, 0
0, 0
0, 0
0, 0
0, 0
0, 0
0, 0
0, 0
0, 0
0, 0
0, 0
0, 0
0, 0
0, 0
0, 0
0, 0
0, 0
0, 0
0, 0
0, 0
0, 0
0, 0
0, 0
0, 0
0, 0
0, 0
0, 0
0, 0
0, 0
0, 0
0, 0
0, 0
0, 0
0, 0
0, 0
0, 0
0, 0
0, 0
0, 0
0, 0
0, 0
0, 0
0, 0
0, 0
0, 0
0, 0
0, 0
0, 0
0, 0
0, 0
0, 0
0, 0
0, 0
0, 0
0, 0
#ENDOFDATA     end of spectrum data

File: ps__0852shot_2120.msa
#FORMAT      : EMSA/MAS spectral data file
#VERSION     : TC202v2.0 PIXL
#TITLE       : N/A
#DATE        :       Date in the format DD-MMM-YYYY, for example 07-JUL-2010
#TIME        :             The time of day at which the spectrum was recorded, in 24-hour format
#OWNER       : PIXL Flight Model       (PIXL will use this to indicate which instrument took the data.)
#NPOINTS     : 4096     Number of data points in the spectrum (This can be zero for configuration only files)
#NCOLUMNS    : 2     Number of data columns in the spectrum (This can be zero for configuration only files)
#XUNITS      : eV
#YUNITS      : COUNTS
#DATATYPE    : YY
#XPERCHAN    : 7.862, 7.881   eV per channel (separate by commas if more than one detector)
#OFFSET      : 18.5, -22.4         eV of first channel  (separate by commas if more than one detector
#SIGNALTYPE  : XRF
#YP_TEMP     : 2.46
#LIVETIME    : 8.57087, 8.55321   seconds (separate by commas if more than one detector)
#REALTIME    : 10, 10.0   seconds (separate by commas if more than one detector)
#SPECTRUM    : start of spectrum data
0, 0
0, 0
0, 0
0, 0
0, 0
0, 0
0, 0
0, 0
0, 1
3, 1
1, 6
45, 44
55, 58
9, 6
3, 1
90, 110
468, 419
109, 97
9, 3
2, 1
1, 2
8, 9
8, 6
11, 10
40, 39
44, 54
33, 44
21, 16
3, 3
1, 0
4, 3
1, 7
10, 6
76, 74
114, 100
22, 17
14, 15
16, 16
18, 15
8, 11
4, 7
13, 13
26, 30
15, 16
12, 18
8, 8
8, 12
4, 5
22, 11
49, 34
57, 22
19, 13
17, 17
48, 43
56, 42
28, 24
37, 50
456, 523
1981, 1957
1435, 1281
190, 127
28, 14
44, 26
90, 106
298, 365
201, 179
31, 24
6, 17
10, 18
6, 10
4, 4
3, 8
7, 4
6, 3
7, 3
7, 8
4, 7
3, 9
6, 9
12, 4
6, 7
9, 5
4, 4
3, 4
7, 11
5, 5
1, 6
2, 2
1, 1
5, 3
8, 4
8, 2
6, 2
6, 4
3, 2
3, 1
4, 1
4, 4
0, 3
9, 1
2, 1
3, 4
0, 4
3, 0
0, 3
6, 3
6, 6
3, 2
0, 3
3, 3
0, 2
0, 1
2, 1
0, 3
3, 0
3, 3
1, 4
5, 0
2, 2
2, 3
1, 1
2, 1
3, 5
1, 1
1, 1
1, 0
0, 1
2, 1
1, 1
0, 3
1, 1
0, 2
0, 2
2, 0
1, 0
0, 0
0, 1
0, 0
0, 1
1, 0
1, 1
1, 0
0, 0
0, 0
1, 2
0, 1
0, 1
1, 2
1, 1
0, 0
1, 0
0, 0
0, 0
2, 0
2, 0
2, 0
0, 0
0, 0
2, 0
0, 0
0, 0
0, 0
1, 0
1, 0
0, 0
0, 0
1, 0
1, 0
0, 1
0, 0
0, 0
0, 1
0, 0
0, 0
0, 0
0, 0
1, 0
0, 0
0, 0
0, 0
0, 0
0, 0
1, 0
1, 0
0, 0
0, 0
1, 0
0, 0
0, 0
0, 0
0, 0
0, 0
0, 0
0, 0
0, 0
0, 0
0, 0
0, 0
0, 0
0, 0
0, 0
0, 0
0, 0
0, 0
0, 0
0, 0
0, 0
0, 0
0, 1
0, 0
0, 0
0, 0
0, 0
0, 0
0, 0
0, 0
0, 0
0, 0
0, 0
0, 0
0, 0
0, 0
0, 0
0, 0
0, 0
0, 0
0, 0
0, 0
0, 0
0, 0
0, 0
0, 0
0, 0
0, 0
0, 0
0, 0
0, 0
0, 0
0, 0
0, 0
0, 0
0, 0
0, 0
0, 0
0, 0
0, 0
0, 0
0, 0
0, 0
0, 0
0, 0
0, 0
0, 0
0, 0
0, 0
0, 0
0, 0
0, 0
0, 0
0, 0
0, 0
0, 0
0, 0
0, 0
0, 0
0, 0
0, 0
0, 0
0, 0
0, 0
0, 0
0, 0
0, 0
0, 0
0, 0
0, 0
0, 0
0, 0
0, 0
0, 0
0, 0
0, 0
0, 0
0, 0
0, 0
0, 0
0, 0
0, 0
0, 0
0, 0
0, 0
0, 0
0, 0
0, 0
#ENDOFDATA     end of spectrum data

File: ps__0852shot_2121.msa
#FORMAT      : EMSA/MAS spectral data file
#VERSION     : TC202v2.0 PIXL
#TITLE       : N/A
#DATE        :       Date in the format DD-MMM-YYYY, for example 07-JUL-2010
#TIME        :             The time of day at which the spectrum was recorded, in 24-hour format
#OWNER       : PIXL Flight Model       (PIXL will use this to indicate which instrument took the data.)
#NPOINTS     : 4096     Number of data points in the spectrum (This can be zero for configuration only files)
#NCOLUMNS    : 2     Number of data columns in the spectrum (This can be zero for configuration only files)
#XUNITS      : eV
#YUNITS      : COUNTS
#DATATYPE    : YY
#XPERCHAN    : 7.862, 7.881   eV per channel (separate by commas if more than one detector)
#OFFSET      : 18.5, -22.4         eV of first channel  (separate by commas if more than one detector
#SIGNALTYPE  : XRF
#YP_TEMP     : 2.524
#LIVETIME    : 8.56646, 8.57279   seconds (separate by commas if more than one detector)
#REALTIME    : 10, 10.0   seconds (separate by commas if more than one detector)
#SPECTRUM    : start of spectrum data
0, 0
0, 0
0, 0
0, 0
0, 0
0, 0
0, 0
0, 0
0, 0
2, 7
1, 1
47, 39
56, 48
8, 8
1, 3
106, 99
473, 403
137, 103
8, 5
2, 1
1, 4
4, 3
5, 3
8, 5
39, 42
69, 51
29, 32
23, 11
9, 3
1, 4
4, 4
5, 2
21, 15
139, 155
243, 195
52, 30
33, 26
39, 19
11, 20
11, 12
14, 14
34, 15
21, 18
14, 6
8, 10
8, 14
12, 8
9, 6
19, 14
55, 48
39, 23
10, 20
12, 23
43, 52
59, 57
21, 30
33, 38
408, 452
1791, 1737
1415, 1025
158, 112
15, 12
14, 17
93, 109
318, 294
231, 160
24, 26
9, 11
11, 10
10, 5
7, 3
6, 2
3, 4
10, 9
7, 10
7, 8
4, 8
4, 4
5, 7
7, 12
4, 5
4, 6
2, 4
6, 2
11, 4
12, 8
5, 2
6, 0
4, 8
3, 1
2, 2
2, 5
4, 6
1, 6
1, 4
3, 2
10, 1
3, 3
6, 1
3, 0
2, 3
4, 4
0, 2
3, 1
4, 4
2, 4
4, 3
2, 1
6, 1
5, 3
9, 1
2, 1
2, 2
4, 3
2, 0
3, 3
0, 6
3, 2
1, 0
0, 1
2, 1
1, 3
2, 1
0, 1
0, 2
0, 2
2, 1
1, 1
0, 2
0, 2
2, 3
2, 3
1, 0
1, 1
1, 2
1, 0
2, 0
1, 1
2, 0
1, 0
1, 0
1, 0
0, 2
0, 1
0, 0
0, 0
1, 1
2, 1
0, 1
0, 1
2, 1
0, 0
0, 0
0, 0
0, 1
0, 1
0, 0
1, 0
0, 0
1, 0
1, 0
0, 0
0, 0
1, 0
1, 0
0, 0
0, 0
0, 0
0, 1
2, 0
0, 0
1, 1
0, 0
0, 0
0, 0
0, 0
0, 0
0, 0
0, 0
0, 0
0, 0
0, 0
0, 0
0, 1
0, 0
0, 0
0, 0
0, 0
0, 0
0, 0
0, 0
0, 0
0, 0
0, 0
0, 0
0, 0
0, 0
0, 0
1, 0
0, 0
0, 0
0, 0
0, 0
0, 0
0, 0
0, 0
0, 0
0, 0
0, 0
0, 0
0, 0
0, 0
0, 0
0, 0
0, 0
0, 0
0, 0
0, 0
0, 0
0, 0
0, 0
0, 0
0, 0
0, 0
0, 0
0, 0
0, 0
0, 0
0, 0
0, 0
0, 0
0, 0
0, 0
0, 0
0, 0
0, 0
0, 0
0, 0
0, 0
0, 0
0, 0
0, 0
0, 0
0, 0
0, 0
0, 0
0, 0
0, 0
0, 0
0, 0
0, 0
0, 0
0, 0
0, 0
0, 0
0, 0
0, 0
0, 0
0, 0
0, 0
0, 0
0, 0
0, 0
0, 0
0, 0
0, 0
0, 0
0, 0
0, 0
0, 0
0, 0
0, 0
0, 0
0, 0
0, 0
0, 0
0, 0
0, 0
0, 0
0, 0
0, 0
0, 0
0, 0
0, 0
0, 0
0, 0
0, 0
0, 0
0, 0
0, 0
0, 0
0, 0
0, 0
0, 0
#ENDOFDATA     end of spectrum data

File: ps__0852shot_2122.msa
#FORMAT      : EMSA/MAS spectral data file
#VERSION     : TC202v2.0 PIXL
#TITLE       : N/A
#DATE        :       Date in the format DD-MMM-YYYY, for example 07-JUL-2010
#TIME        :             The time of day at which the spectrum was recorded, in 24-hour format
#OWNER       : PIXL Flight Model       (PIXL will use this to indicate which instrument took the data.)
#NPOINTS     : 4096     Number of data points in the spectrum (This can be zero for configuration only files)
#NCOLUMNS    : 2     Number of data columns in the spectrum (This can be zero for configuration only files)
#XUNITS      : eV
#YUNITS      : COUNTS
#DATATYPE    : YY
#XPERCHAN    : 7.862, 7.881   eV per channel (separate by commas if more than one detector)
#OFFSET      : 18.5, -22.4         eV of first channel  (separate by commas if more than one detector
#SIGNALTYPE  : XRF
#YP_TEMP     : 2.332
#LIVETIME    : 8.56876, 8.57036   seconds (separate by commas if more than one detector)
#REALTIME    : 10, 10.0   seconds (separate by commas if more than one detector)
#SPECTRUM    : start of spectrum data
0, 0
0, 0
0, 0
0, 0
0, 0
0, 0
0, 0
0, 0
0, 0
1, 3
0, 1
44, 41
63, 50
6, 9
6, 4
117, 87
447, 379
131, 95
4, 7
0, 1
3, 2
13, 13
10, 2
19, 12
38, 42
60, 43
24, 22
14, 14
5, 5
3, 3
4, 3
5, 3
5, 5
37, 57
92, 90
18, 20
8, 13
20, 18
5, 21
2, 13
19, 6
33, 15
17, 16
18, 28
9, 58
5, 26
7, 11
6, 10
12, 7
26, 19
20, 19
10, 11
14, 19
58, 36
65, 55
42, 18
34, 39
432, 524
2081, 1977
1569, 1212
178, 131
20, 18
28, 18
99, 121
323, 316
227, 165
35, 23
7, 9
16, 15
8, 13
6, 8
0, 5
4, 8
5, 17
9, 15
4, 6
3, 6
3, 6
6, 4
17, 4
9, 3
8, 5
2, 5
7, 8
3, 5
3, 3
2, 4
1, 8
3, 3
1, 1
4, 6
4, 7
9, 5
12, 3
7, 4
3, 6
4, 1
4, 3
1, 2
3, 3
3, 4
2, 5
2, 2
5, 1
2, 2
2, 3
5, 5
1, 0
1, 2
1, 3
2, 2
3, 2
3, 1
2, 0
2, 7
4, 3
4, 4
4, 2
3, 3
1, 1
1, 2
0, 0
3, 1
2, 2
0, 0
0, 0
2, 1
2, 1
2, 1
1, 2
1, 1
1, 1
0, 0
0, 0
0, 3
1, 0
1, 0
0, 1
2, 0
1, 2
1, 0
1, 2
0, 0
0, 0
0, 0
0, 0
1, 1
0, 0
0, 0
1, 0
0, 0
0, 2
0, 0
1, 0
1, 0
0, 0
1, 1
1, 0
0, 0
0, 0
1, 1
0, 0
0, 0
0, 0
0, 0
1, 0
1, 0
0, 0
0, 0
1, 0
2, 0
2, 0
0, 0
0, 1
0, 0
0, 0
0, 0
0, 0
0, 0
0, 0
0, 0
0, 0
0, 0
0, 0
0, 0
0, 1
0, 1
0, 0
0, 0
0, 0
0, 0
0, 0
0, 0
0, 0
0, 0
0, 0
0, 0
0, 0
0, 0
0, 0
0, 0
0, 0
0, 0
0, 0
0, 0
0, 0
0, 1
0, 0
0, 0
0, 0
0, 0
0, 0
0, 0
0, 0
0, 0
0, 0
0, 0
0, 0
0, 0
0, 0
0, 0
0, 0
0, 0
0, 0
0, 0
0, 0
0, 0
0, 0
0, 0
0, 0
0, 0
0, 0
0, 0
0, 0
0, 0
0, 0
0, 0
0, 0
0, 0
0, 0
0, 0
0, 0
0, 0
0, 0
0, 0
0, 0
0, 0
0, 0
0, 0
0, 0
0, 0
0, 0
0, 0
0, 0
0, 0
0, 0
0, 0
0, 0
0, 0
0, 0
0, 0
0, 0
0, 0
0, 0
0, 0
0, 0
0, 0
0, 0
0, 0
0, 0
0, 0
0, 0
0, 0
0, 0
0, 0
0, 0
0, 0
0, 0
0, 0
0, 0
0, 0
0, 0
0, 0
0, 0
0, 0
0, 0
0, 0
0, 0
0, 0
0, 0
0, 0
0, 0
0, 0
0, 0
#ENDOFDATA     end of spectrum data

File: ps__0852shot_2123.msa
#FORMAT      : EMSA/MAS spectral data file
#VERSION     : TC202v2.0 PIXL
#TITLE       : N/A
#DATE        :       Date in the format DD-MMM-YYYY, for example 07-JUL-2010
#TIME        :             The time of day at which the spectrum was recorded, in 24-hour format
#OWNER       : PIXL Flight Model       (PIXL will use this to indicate which instrument took the data.)
#NPOINTS     : 4096     Number of data points in the spectrum (This can be zero for configuration only files)
#NCOLUMNS    : 2     Number of data columns in the spectrum (This can be zero for configuration only files)
#XUNITS      : eV
#YUNITS      : COUNTS
#DATATYPE    : YY
#XPERCHAN    : 7.862, 7.881   eV per channel (separate by commas if more than one detector)
#OFFSET      : 18.5, -22.4         eV of first channel  (separate by commas if more than one detector
#SIGNALTYPE  : XRF
#YP_TEMP     : 2.716
#LIVETIME    : 8.54778, 8.36899   seconds (separate by commas if more than one detector)
#REALTIME    : 10, 10.0   seconds (separate by commas if more than one detector)
#SPECTRUM    : start of spectrum data
0, 0
0, 0
0, 0
0, 0
0, 0
0, 0
0, 0
0, 0
1, 1
2, 1
1, 4
36, 40
51, 67
5, 5
3, 3
85, 97
458, 468
113, 92
5, 6
1, 1
4, 2
1, 8
4, 3
8, 7
38, 45
37, 41
24, 31
15, 13
6, 5
5, 1
1, 3
2, 2
4, 5
56, 57
75, 94
13, 24
14, 16
13, 20
3, 12
2, 12
13, 6
15, 14
20, 23
18, 15
8, 30
9, 18
6, 5
7, 7
9, 9
28, 24
18, 26
11, 9
11, 12
40, 51
67, 59
21, 19
38, 40
451, 587
1812, 2287
1401, 1325
205, 170
16, 22
19, 21
77, 109
284, 369
180, 222
35, 24
5, 12
17, 13
12, 14
5, 4
1, 6
1, 5
6, 14
5, 6
15, 7
6, 6
4, 3
4, 7
3, 7
2, 4
6, 5
6, 8
1, 6
3, 8
5, 5
2, 6
4, 2
8, 10
6, 3
5, 4
3, 1
3, 3
1, 3
4, 1
1, 4
2, 0
3, 3
0, 4
2, 6
3, 2
3, 1
2, 0
2, 5
2, 7
2, 1
3, 0
2, 2
2, 3
1, 5
3, 1
3, 6
1, 3
2, 2
5, 2
1, 5
1, 4
3, 3
0, 3
2, 2
4, 2
1, 3
2, 2
2, 2
0, 1
0, 1
1, 3
1, 0
3, 0
3, 1
3, 1
1, 0
1, 0
1, 1
0, 0
0, 1
0, 2
0, 0
0, 0
1, 0
1, 0
0, 0
0, 0
0, 0
0, 0
1, 0
1, 0
0, 0
0, 1
0, 2
0, 0
0, 0
0, 0
1, 0
1, 0
2, 0
0, 1
0, 0
0, 1
0, 0
0, 0
0, 0
0, 3
0, 0
0, 0
0, 0
2, 0
0, 0
1, 0
1, 0
0, 1
0, 0
0, 0
1, 0
1, 1
0, 0
0, 0
0, 0
0, 0
0, 0
0, 0
0, 0
0, 0
0, 0
0, 0
0, 0
0, 0
0, 0
0, 0
0, 0
0, 0
0, 0
0, 0
0, 0
0, 1
0, 0
0, 0
0, 0
0, 0
0, 0
0, 0
0, 0
0, 0
0, 0
0, 0
0, 0
0, 0
0, 0
0, 0
0, 0
0, 0
0, 0
0, 0
0, 0
0, 0
0, 0
0, 0
0, 0
0, 0
0, 0
0, 0
0, 0
0, 0
0, 0
0, 0
0, 0
0, 0
0, 0
0, 0
0, 0
0, 0
0, 0
0, 0
0, 0
0, 0
0, 0
0, 0
0, 0
0, 0
0, 0
0, 0
0, 0
0, 0
0, 0
0, 0
0, 0
0, 0
0, 0
0, 0
0, 0
0, 0
0, 0
0, 0
0, 0
0, 0
0, 0
0, 0
0, 0
0, 0
0, 0
0, 0
0, 0
0, 0
0, 0
0, 0
0, 0
0, 0
0, 0
0, 0
0, 0
0, 0
0, 0
0, 0
0, 0
0, 0
0, 0
0, 0
0, 0
0, 0
0, 0
0, 0
0, 0
0, 0
0, 0
0, 0
0, 0
0, 0
0, 0
0, 0
0, 0
0, 0
0, 0
0, 0
0, 0
#ENDOFDATA     end of spectrum data

File: ps__0852shot_2124.msa
#FORMAT      : EMSA/MAS spectral data file
#VERSION     : TC202v2.0 PIXL
#TITLE       : N/A
#DATE        :       Date in the format DD-MMM-YYYY, for example 07-JUL-2010
#TIME        :             The time of day at which the spectrum was recorded, in 24-hour format
#OWNER       : PIXL Flight Model       (PIXL will use this to indicate which instrument took the data.)
#NPOINTS     : 4096     Number of data points in the spectrum (This can be zero for configuration only files)
#NCOLUMNS    : 2     Number of data columns in the spectrum (This can be zero for configuration only files)
#XUNITS      : eV
#YUNITS      : COUNTS
#DATATYPE    : YY
#XPERCHAN    : 7.862, 7.881   eV per channel (separate by commas if more than one detector)
#OFFSET      : 18.5, -22.4         eV of first channel  (separate by commas if more than one detector
#SIGNALTYPE  : XRF
#YP_TEMP     : 2.46
#LIVETIME    : 8.53181, 8.56868   seconds (separate by commas if more than one detector)
#REALTIME    : 10, 10.0   seconds (separate by commas if more than one detector)
#SPECTRUM    : start of spectrum data
0, 0
0, 0
0, 0
0, 0
0, 0
0, 0
0, 0
0, 0
1, 1
0, 1
4, 2
49, 45
70, 58
1, 4
2, 5
104, 93
377, 394
101, 100
2, 5
1, 2
4, 2
16, 4
6, 2
11, 4
19, 29
59, 43
26, 20
21, 10
5, 0
1, 0
3, 2
2, 3
8, 5
20, 12
24, 32
7, 5
4, 6
4, 8
8, 6
2, 2
7, 9
13, 13
19, 10
10, 18
8, 7
8, 9
10, 5
6, 8
4, 8
11, 17
21, 9
24, 22
15, 28
47, 55
64, 68
25, 23
36, 30
490, 602
2157, 2360
1594, 1439
212, 167
17, 12
29, 21
95, 109
299, 321
225, 213
31, 17
10, 11
8, 14
14, 12
6, 4
5, 4
5, 2
2, 4
3, 12
11, 9
6, 2
7, 5
5, 6
6, 5
9, 4
5, 3
4, 6
5, 21
1, 16
6, 10
6, 3
4, 0
2, 15
6, 5
1, 6
3, 2
1, 2
2, 4
4, 9
2, 6
5, 3
4, 2
4, 2
1, 3
0, 4
0, 5
3, 1
5, 2
0, 4
1, 5
3, 4
4, 1
1, 2
4, 1
2, 3
4, 3
3, 0
0, 2
2, 1
4, 1
2, 3
6, 4
2, 4
2, 3
0, 2
1, 2
2, 2
0, 1
1, 1
2, 3
0, 0
1, 1
0, 0
2, 2
0, 0
4, 1
1, 1
0, 1
0, 0
1, 0
1, 0
2, 0
0, 1
0, 1
1, 0
2, 0
0, 0
1, 0
1, 0
0, 2
0, 0
0, 0
0, 2
0, 1
0, 1
2, 0
0, 0
2, 0
1, 1
0, 0
1, 3
0, 1
1, 3
2, 1
0, 0
0, 0
0, 0
1, 0
0, 0
0, 0
0, 0
0, 1
0, 0
0, 1
0, 1
1, 0
0, 0
1, 1
0, 0
0, 0
0, 0
0, 0
0, 0
0, 1
0, 0
0, 0
0, 0
1, 0
1, 0
0, 0
0, 0
0, 0
0, 0
0, 0
0, 0
0, 0
0, 1
0, 0
0, 0
0, 0
0, 0
0, 0
0, 0
0, 0
0, 0
1, 0
0, 0
0, 0
0, 0
1, 0
0, 0
0, 0
0, 0
0, 0
0, 0
0, 0
0, 1
0, 0
0, 0
0, 0
0, 0
0, 0
0, 0
0, 0
0, 0
0, 0
0, 0
0, 0
0, 0
0, 0
0, 0
0, 0
0, 0
0, 0
0, 0
0, 0
0, 0
0, 0
0, 0
0, 0
0, 0
0, 0
0, 0
0, 0
0, 0
0, 0
0, 0
0, 0
0, 0
0, 0
0, 0
0, 0
0, 0
0, 0
0, 0
0, 0
0, 0
0, 0
0, 0
0, 0
0, 0
0, 0
0, 0
0, 0
0, 0
0, 0
0, 0
0, 0
0, 0
0, 0
0, 0
0, 0
0, 0
0, 0
0, 0
0, 0
0, 0
0, 0
0, 0
0, 0
0, 0
0, 0
0, 0
0, 0
0, 0
0, 0
0, 0
0, 0
0, 0
0, 0
0, 0
0, 0
0, 0
0, 0
0, 0
0, 0
0, 0
0, 0
#ENDOFDATA     end of spectrum data

File: ps__0852shot_2125.msa
#FORMAT      : EMSA/MAS spectral data file
#VERSION     : TC202v2.0 PIXL
#TITLE       : N/A
#DATE        :       Date in the format DD-MMM-YYYY, for example 07-JUL-2010
#TIME        :             The time of day at which the spectrum was recorded, in 24-hour format
#OWNER       : PIXL Flight Model       (PIXL will use this to indicate which instrument took the data.)
#NPOINTS     : 4096     Number of data points in the spectrum (This can be zero for configuration only files)
#NCOLUMNS    : 2     Number of data columns in the spectrum (This can be zero for configuration only files)
#XUNITS      : eV
#YUNITS      : COUNTS
#DATATYPE    : YY
#XPERCHAN    : 7.862, 7.881   eV per channel (separate by commas if more than one detector)
#OFFSET      : 18.5, -22.4         eV of first channel  (separate by commas if more than one detector
#SIGNALTYPE  : XRF
#YP_TEMP     : 2.46
#LIVETIME    : 8.54374, 8.5552   seconds (separate by commas if more than one detector)
#REALTIME    : 10, 10.0   seconds (separate by commas if more than one detector)
#SPECTRUM    : start of spectrum data
0, 0
0, 0
0, 0
0, 0
0, 0
0, 0
0, 0
1, 0
1, 0
5, 1
3, 0
56, 42
70, 67
6, 3
4, 5
89, 94
378, 351
112, 89
6, 4
1, 1
3, 2
8, 1
2, 1
8, 3
43, 25
62, 32
37, 14
9, 6
4, 3
1, 3
3, 3
4, 6
6, 5
25, 8
22, 18
2, 3
4, 4
4, 2
5, 9
9, 3
5, 5
10, 12
14, 14
9, 10
7, 3
8, 3
6, 5
9, 6
10, 3
14, 15
15, 15
18, 13
20, 26
53, 45
79, 67
29, 20
26, 38
488, 618
2214, 2258
1624, 1315
200, 162
20, 22
22, 22
96, 123
297, 348
207, 224
32, 16
12, 7
16, 10
11, 14
2, 8
5, 3
2, 3
8, 7
5, 6
3, 5
6, 6
8, 5
3, 5
7, 5
5, 3
1, 2
4, 11
3, 18
5, 16
2, 3
8, 3
4, 6
5, 9
2, 10
3, 4
2, 2
1, 1
2, 1
1, 2
1, 1
2, 0
0, 1
3, 3
4, 3
0, 2
1, 4
1, 2
0, 1
0, 3
2, 0
2, 4
6, 4
3, 7
2, 3
0, 1
2, 0
1, 2
5, 2
0, 4
2, 6
6, 3
4, 5
3, 1
0, 1
2, 0
2, 0
3, 4
0, 4
1, 2
1, 1
1, 1
0, 1
2, 1
0, 2
0, 0
0, 0
1, 1
0, 1
0, 1
2, 1
1, 0
0, 0
0, 1
1, 0
2, 1
0, 0
0, 0
0, 0
2, 0
0, 1
0, 2
0, 0
1, 0
1, 0
0, 0
0, 0
0, 0
0, 0
0, 1
0, 1
0, 0
1, 0
0, 1
1, 0
2, 3
0, 1
0, 0
0, 0
0, 1
0, 0
0, 1
0, 0
1, 1
1, 0
0, 0
1, 0
1, 1
0, 0
0, 0
1, 0
0, 0
1, 0
0, 2
0, 0
0, 0
0, 0
0, 0
0, 3
0, 1
0, 0
0, 0
0, 1
0, 0
0, 0
0, 0
0, 0
0, 0
0, 0
0, 0
0, 0
0, 0
0, 0
0, 0
0, 0
0, 0
0, 0
0, 0
0, 0
0, 0
0, 0
0, 0
0, 0
0, 0
0, 0
0, 0
0, 0
0, 0
0, 0
0, 0
0, 0
0, 0
0, 0
0, 0
0, 0
0, 0
0, 0
0, 0
0, 0
0, 0
0, 0
0, 0
0, 0
0, 0
0, 0
0, 0
0, 0
0, 0
0, 0
0, 0
0, 0
0, 0
0, 0
0, 0
0, 0
0, 0
0, 0
0, 0
0, 0
0, 0
0, 0
0, 0
0, 0
0, 0
0, 0
0, 0
0, 0
0, 0
0, 0
0, 0
0, 0
0, 0
0, 0
0, 0
0, 0
0, 0
0, 0
0, 0
0, 0
0, 0
0, 0
0, 0
0, 0
0, 0
0, 0
0, 0
0, 0
0, 0
0, 0
0, 0
0, 0
0, 0
0, 0
0, 0
0, 0
0, 0
0, 0
0, 0
0, 0
0, 0
0, 0
0, 0
0, 0
0, 0
0, 0
0, 0
0, 0
0, 0
0, 0
#ENDOFDATA     end of spectrum data

File: ps__0852shot_2126.msa
#FORMAT      : EMSA/MAS spectral data file
#VERSION     : TC202v2.0 PIXL
#TITLE       : N/A
#DATE        :       Date in the format DD-MMM-YYYY, for example 07-JUL-2010
#TIME        :             The time of day at which the spectrum was recorded, in 24-hour format
#OWNER       : PIXL Flight Model       (PIXL will use this to indicate which instrument took the data.)
#NPOINTS     : 4096     Number of data points in the spectrum (This can be zero for configuration only files)
#NCOLUMNS    : 2     Number of data columns in the spectrum (This can be zero for configuration only files)
#XUNITS      : eV
#YUNITS      : COUNTS
#DATATYPE    : YY
#XPERCHAN    : 7.862, 7.881   eV per channel (separate by commas if more than one detector)
#OFFSET      : 18.5, -22.4         eV of first channel  (separate by commas if more than one detector
#SIGNALTYPE  : XRF
#YP_TEMP     : 2.332
#LIVETIME    : 8.55442, 8.55172   seconds (separate by commas if more than one detector)
#REALTIME    : 10, 10.0   seconds (separate by commas if more than one detector)
#SPECTRUM    : start of spectrum data
0, 0
0, 0
0, 0
0, 0
0, 0
0, 0
0, 0
1, 0
0, 1
1, 2
2, 1
37, 40
70, 60
6, 4
1, 3
115, 117
438, 440
117, 85
7, 0
0, 0
2, 1
8, 1
4, 1
9, 9
24, 38
47, 35
19, 17
18, 10
8, 9
0, 3
3, 4
1, 3
4, 3
29, 34
34, 40
8, 8
4, 7
9, 11
4, 3
2, 4
6, 3
8, 15
14, 14
11, 11
7, 1
22, 5
19, 6
6, 5
7, 7
14, 15
16, 12
17, 14
26, 23
55, 45
86, 55
18, 31
43, 41
498, 594
2138, 2143
1549, 1241
228, 153
20, 9
24, 19
116, 120
333, 335
222, 179
29, 23
15, 16
19, 16
11, 8
1, 2
5, 3
1, 3
8, 9
10, 15
1, 15
11, 5
9, 3
4, 7
5, 5
8, 5
4, 9
3, 2
6, 5
11, 1
3, 4
0, 3
0, 3
4, 3
5, 5
4, 5
0, 4
1, 5
3, 4
3, 6
1, 1
3, 1
4, 0
4, 2
3, 1
3, 4
5, 1
5, 7
1, 1
6, 2
3, 0
2, 0
1, 5
1, 3
1, 3
1, 3
1, 0
3, 4
2, 1
3, 1
0, 6
3, 7
3, 3
2, 1
1, 0
0, 1
1, 1
1, 2
2, 1
2, 2
0, 1
0, 1
0, 0
0, 0
0, 2
1, 1
0, 0
0, 1
2, 2
4, 0
3, 2
1, 2
0, 0
0, 1
0, 1
0, 0
0, 1
0, 0
1, 0
2, 0
0, 1
1, 0
0, 1
1, 0
0, 2
0, 0
1, 0
0, 0
1, 0
0, 0
1, 0
0, 0
1, 0
1, 1
1, 0
0, 0
0, 0
0, 0
0, 1
1, 0
0, 0
0, 0
0, 1
1, 1
1, 0
0, 1
0, 0
1, 1
0, 0
1, 1
0, 0
1, 0
0, 0
0, 1
0, 0
0, 0
1, 0
1, 0
0, 0
0, 0
0, 0
1, 0
0, 0
0, 1
0, 0
0, 1
0, 0
0, 0
0, 1
1, 0
0, 0
0, 0
0, 0
0, 0
0, 0
0, 0
0, 0
0, 0
0, 0
0, 0
0, 0
0, 0
0, 0
0, 0
0, 0
0, 0
0, 0
0, 0
0, 0
0, 0
0, 0
0, 0
0, 0
0, 0
0, 0
0, 0
0, 0
0, 0
0, 0
0, 0
0, 0
0, 0
0, 0
0, 0
0, 0
0, 0
0, 0
0, 0
0, 0
0, 0
0, 0
0, 0
0, 0
0, 0
0, 0
0, 0
0, 0
0, 0
0, 0
0, 0
0, 0
0, 0
0, 0
0, 0
0, 0
0, 0
0, 0
0, 0
0, 0
0, 0
0, 0
0, 0
0, 0
0, 0
0, 0
0, 0
0, 0
0, 0
0, 0
0, 0
0, 0
0, 0
0, 0
0, 0
0, 0
0, 0
0, 0
0, 0
0, 0
0, 0
0, 0
0, 0
0, 0
0, 0
0, 0
0, 0
0, 0
0, 0
0, 0
0, 0
0, 0
0, 0
0, 0
0, 0
0, 0
0, 0
0, 0
0, 0
0, 0
#ENDOFDATA     end of spectrum data

File: ps__0852shot_2127.msa
#FORMAT      : EMSA/MAS spectral data file
#VERSION     : TC202v2.0 PIXL
#TITLE       : N/A
#DATE        :       Date in the format DD-MMM-YYYY, for example 07-JUL-2010
#TIME        :             The time of day at which the spectrum was recorded, in 24-hour format
#OWNER       : PIXL Flight Model       (PIXL will use this to indicate which instrument took the data.)
#NPOINTS     : 4096     Number of data points in the spectrum (This can be zero for configuration only files)
#NCOLUMNS    : 2     Number of data columns in the spectrum (This can be zero for configuration only files)
#XUNITS      : eV
#YUNITS      : COUNTS
#DATATYPE    : YY
#XPERCHAN    : 7.862, 7.881   eV per channel (separate by commas if more than one detector)
#OFFSET      : 18.5, -22.4         eV of first channel  (separate by commas if more than one detector
#SIGNALTYPE  : XRF
#YP_TEMP     : 2.332
#LIVETIME    : 8.56657, 8.57286   seconds (separate by commas if more than one detector)
#REALTIME    : 10, 10.0   seconds (separate by commas if more than one detector)
#SPECTRUM    : start of spectrum data
0, 0
0, 0
0, 0
0, 0
0, 0
0, 0
0, 0
0, 0
0, 0
1, 4
6, 0
50, 44
76, 60
5, 6
4, 2
111, 84
465, 397
115, 93
3, 4
1, 1
1, 2
3, 4
2, 6
7, 4
38, 58
38, 81
29, 27
18, 14
4, 5
0, 3
2, 4
1, 1
6, 9
21, 43
41, 39
8, 7
6, 4
2, 7
6, 4
5, 5
5, 7
18, 15
24, 19
18, 11
11, 6
37, 7
33, 8
10, 8
4, 9
11, 13
9, 20
10, 9
14, 18
38, 42
66, 70
29, 19
27, 29
461, 563
2187, 2166
1623, 1333
213, 120
25, 19
26, 27
105, 137
314, 311
242, 191
32, 26
12, 6
32, 9
13, 9
7, 8
1, 5
6, 7
7, 5
6, 9
10, 6
5, 6
12, 0
10, 5
3, 1
2, 9
4, 3
5, 5
4, 4
1, 3
4, 5
5, 4
1, 4
4, 5
3, 2
11, 1
7, 2
10, 7
7, 4
2, 5
3, 1
3, 1
4, 2
5, 5
0, 3
4, 2
4, 1
2, 0
4, 4
2, 3
2, 1
1, 3
3, 2
5, 3
0, 2
1, 3
1, 4
1, 4
2, 0
4, 1
4, 3
9, 4
3, 2
1, 1
3, 1
4, 4
2, 0
2, 4
4, 2
2, 3
1, 0
0, 1
0, 1
1, 1
0, 2
0, 2
1, 0
1, 1
0, 3
0, 1
0, 0
1, 2
3, 1
1, 2
0, 1
1, 0
1, 1
0, 0
1, 0
0, 1
0, 1
0, 1
1, 1
0, 0
1, 3
0, 1
0, 1
2, 2
0, 0
0, 0
2, 2
0, 1
0, 1
0, 2
2, 0
0, 0
0, 0
0, 0
0, 1
0, 1
0, 0
0, 1
0, 0
0, 0
1, 1
0, 2
0, 0
1, 0
0, 0
0, 0
0, 0
0, 0
0, 0
0, 0
0, 0
0, 0
0, 1
0, 0
0, 0
0, 1
0, 1
0, 1
0, 0
0, 0
0, 0
0, 0
0, 0
1, 0
0, 0
0, 0
0, 0
0, 0
0, 0
0, 0
0, 0
0, 0
0, 0
0, 0
0, 0
0, 0
0, 0
0, 0
0, 0
0, 0
0, 0
0, 0
0, 0
0, 0
0, 0
0, 0
0, 0
0, 0
0, 0
0, 0
0, 0
0, 0
0, 0
1, 0
0, 0
0, 0
0, 0
0, 0
0, 0
0, 0
0, 0
0, 0
0, 0
0, 0
0, 0
0, 0
0, 0
0, 0
0, 0
0, 0
0, 0
0, 0
0, 0
0, 0
0, 0
0, 0
0, 0
0, 0
0, 0
0, 0
0, 0
0, 0
0, 0
0, 0
0, 0
0, 0
0, 0
0, 0
0, 0
0, 0
0, 0
0, 0
0, 0
0, 0
0, 0
0, 0
0, 0
0, 0
0, 0
0, 0
0, 0
0, 0
0, 0
0, 0
0, 0
0, 0
0, 0
0, 0
0, 0
0, 0
0, 0
0, 0
0, 0
0, 0
0, 0
0, 0
0, 0
0, 0
0, 0
0, 0
0, 0
0, 0
0, 0
0, 0
0, 0
#ENDOFDATA     end of spectrum data