Folder: data-repository/host_upload/06-09-2024/ps_0852/dump3 (part 8)

File: ps__0852shot_2063.msa
#FORMAT      : EMSA/MAS spectral data file
#VERSION     : TC202v2.0 PIXL
#TITLE       : N/A
#DATE        :       Date in the format DD-MMM-YYYY, for example 07-JUL-2010
#TIME        :             The time of day at which the spectrum was recorded, in 24-hour format
#OWNER       : PIXL Flight Model       (PIXL will use this to indicate which instrument took the data.)
#NPOINTS     : 4096     Number of data points in the spectrum (This can be zero for configuration only files)
#NCOLUMNS    : 2     Number of data columns in the spectrum (This can be zero for configuration only files)
#XUNITS      : eV
#YUNITS      : COUNTS
#DATATYPE    : YY
#XPERCHAN    : 7.862, 7.881   eV per channel (separate by commas if more than one detector)
#OFFSET      : 18.5, -22.4         eV of first channel  (separate by commas if more than one detector
#SIGNALTYPE  : XRF
#YP_TEMP     : 2.428
#LIVETIME    : 8.54833, 8.56402   seconds (separate by commas if more than one detector)
#REALTIME    : 10, 10.0   seconds (separate by commas if more than one detector)
#SPECTRUM    : start of spectrum data
0, 0
0, 0
0, 0
0, 0
0, 0
0, 0
0, 0
0, 0
0, 1
1, 0
2, 3
53, 44
69, 61
4, 8
4, 9
85, 96
444, 411
108, 105
4, 4
1, 5
3, 2
3, 2
4, 2
10, 6
18, 19
17, 20
16, 24
12, 12
4, 0
3, 2
1, 1
4, 2
3, 0
18, 8
14, 15
0, 2
4, 3
8, 1
7, 5
4, 6
6, 3
7, 6
9, 13
8, 12
14, 4
54, 6
44, 5
10, 7
11, 31
7, 75
9, 43
6, 11
11, 13
37, 41
62, 64
21, 25
32, 43
479, 583
2066, 2334
1579, 1514
245, 199
17, 12
29, 19
112, 128
299, 314
210, 176
32, 26
26, 9
65, 16
57, 13
11, 5
3, 1
2, 0
4, 3
9, 2
3, 3
4, 3
4, 3
5, 1
5, 2
6, 9
6, 4
5, 4
7, 3
8, 4
2, 2
4, 5
4, 1
2, 8
2, 8
5, 1
4, 3
6, 2
5, 3
4, 4
2, 4
1, 3
2, 4
1, 4
2, 6
2, 4
1, 5
1, 2
2, 2
0, 1
1, 0
2, 2
3, 3
3, 4
1, 0
2, 0
3, 2
1, 0
0, 0
5, 2
2, 1
5, 3
4, 7
2, 3
0, 4
5, 0
2, 0
4, 2
1, 0
2, 0
1, 0
1, 1
0, 2
0, 1
0, 1
1, 2
2, 0
0, 1
1, 0
1, 0
0, 1
0, 2
0, 2
0, 2
1, 2
0, 1
1, 0
2, 0
0, 0
0, 1
0, 0
0, 0
1, 1
2, 0
0, 0
1, 0
0, 1
0, 1
0, 0
0, 1
1, 0
0, 0
1, 0
0, 0
1, 0
0, 1
0, 0
1, 0
1, 0
1, 0
0, 0
0, 1
0, 0
0, 1
0, 0
1, 0
0, 0
0, 0
0, 0
0, 0
0, 0
0, 1
0, 1
0, 1
0, 0
0, 0
0, 0
0, 0
0, 0
1, 0
0, 0
0, 0
0, 0
0, 0
0, 0
0, 0
0, 0
0, 0
0, 1
0, 1
0, 0
0, 0
0, 0
0, 0
0, 0
1, 0
0, 0
0, 0
0, 0
0, 0
0, 0
1, 0
0, 0
0, 0
0, 0
0, 0
0, 0
0, 0
0, 0
0, 0
0, 0
0, 0
0, 0
0, 0
0, 0
0, 0
0, 0
0, 0
0, 0
0, 0
0, 0
0, 0
0, 0
0, 0
0, 0
0, 0
0, 0
0, 0
0, 0
0, 0
0, 0
0, 0
0, 0
0, 0
0, 0
0, 0
0, 0
0, 0
0, 0
0, 0
0, 0
0, 0
0, 0
0, 0
0, 0
0, 0
0, 0
0, 0
0, 0
0, 0
0, 0
0, 0
0, 0
0, 0
0, 0
0, 0
0, 0
0, 0
0, 0
0, 0
0, 0
0, 0
0, 0
0, 0
0, 0
0, 0
0, 0
0, 0
0, 0
0, 0
0, 0
0, 0
0, 0
0, 0
0, 0
0, 0
0, 0
0, 0
0, 0
0, 0
0, 0
0, 0
0, 0
0, 0
0, 0
0, 0
0, 0
0, 0
0, 0
#ENDOFDATA     end of spectrum data

File: ps__0852shot_2064.msa
#FORMAT      : EMSA/MAS spectral data file
#VERSION     : TC202v2.0 PIXL
#TITLE       : N/A
#DATE        :       Date in the format DD-MMM-YYYY, for example 07-JUL-2010
#TIME        :             The time of day at which the spectrum was recorded, in 24-hour format
#OWNER       : PIXL Flight Model       (PIXL will use this to indicate which instrument took the data.)
#NPOINTS     : 4096     Number of data points in the spectrum (This can be zero for configuration only files)
#NCOLUMNS    : 2     Number of data columns in the spectrum (This can be zero for configuration only files)
#XUNITS      : eV
#YUNITS      : COUNTS
#DATATYPE    : YY
#XPERCHAN    : 7.862, 7.881   eV per channel (separate by commas if more than one detector)
#OFFSET      : 18.5, -22.4         eV of first channel  (separate by commas if more than one detector
#SIGNALTYPE  : XRF
#YP_TEMP     : 2.46
#LIVETIME    : 8.54602, 8.54655   seconds (separate by commas if more than one detector)
#REALTIME    : 10, 10.0   seconds (separate by commas if more than one detector)
#SPECTRUM    : start of spectrum data
0, 0
0, 0
0, 0
0, 0
0, 0
0, 0
0, 0
0, 1
0, 0
0, 1
3, 1
49, 32
42, 59
8, 8
6, 2
105, 107
423, 409
132, 93
5, 2
2, 1
5, 2
14, 13
6, 7
20, 5
23, 26
25, 27
13, 25
11, 7
6, 4
3, 4
1, 7
1, 3
3, 1
16, 12
25, 38
9, 8
5, 3
27, 3
76, 5
50, 2
4, 7
9, 10
13, 11
7, 9
12, 5
24, 8
34, 2
9, 2
7, 13
9, 37
15, 22
7, 31
6, 82
35, 84
51, 57
17, 16
33, 47
498, 584
2124, 2363
1693, 1484
201, 166
14, 15
19, 32
100, 112
331, 350
230, 216
34, 24
15, 11
29, 18
24, 15
5, 11
5, 3
1, 4
6, 3
5, 9
11, 8
8, 6
9, 4
3, 4
6, 3
4, 8
3, 4
10, 7
6, 6
5, 4
1, 2
4, 3
1, 4
5, 1
3, 6
9, 4
5, 2
7, 3
2, 4
2, 3
5, 4
5, 5
5, 3
0, 2
2, 3
1, 1
2, 3
2, 5
1, 2
2, 7
0, 8
0, 1
0, 1
3, 2
0, 3
3, 2
2, 3
4, 4
4, 2
4, 3
0, 1
4, 4
2, 3
0, 2
0, 1
4, 1
2, 0
3, 3
0, 2
1, 1
1, 0
1, 2
4, 0
1, 1
3, 2
0, 1
1, 1
1, 0
5, 0
0, 1
1, 0
1, 0
1, 4
0, 1
0, 0
0, 0
1, 1
0, 2
0, 0
0, 1
0, 0
1, 0
0, 0
0, 0
1, 0
0, 0
1, 0
1, 1
0, 0
2, 0
0, 1
1, 1
0, 0
0, 0
0, 0
2, 0
1, 0
0, 0
0, 0
0, 0
1, 0
0, 1
1, 0
0, 0
0, 0
1, 0
0, 1
0, 0
1, 0
0, 0
0, 0
1, 0
1, 0
0, 0
0, 0
0, 0
1, 0
0, 1
1, 0
0, 0
0, 1
0, 0
1, 1
0, 0
0, 0
0, 0
1, 0
0, 0
0, 0
0, 0
0, 0
0, 1
0, 0
0, 0
0, 1
0, 0
0, 0
0, 0
0, 0
0, 0
0, 0
0, 0
0, 0
0, 0
0, 0
0, 0
0, 0
0, 0
0, 0
0, 0
0, 0
0, 0
0, 0
0, 0
0, 0
0, 0
0, 0
0, 0
1, 0
0, 0
0, 0
0, 0
0, 0
0, 0
0, 0
0, 0
0, 0
0, 0
0, 0
0, 0
0, 0
0, 0
0, 0
0, 0
0, 0
0, 0
0, 0
0, 0
0, 0
0, 0
0, 0
0, 0
0, 0
0, 0
0, 0
0, 0
0, 0
0, 0
0, 0
0, 0
0, 0
0, 0
0, 0
0, 0
0, 0
0, 0
0, 0
0, 0
0, 0
0, 0
0, 0
0, 0
0, 0
0, 0
0, 0
0, 0
0, 0
0, 0
0, 0
0, 0
0, 0
0, 0
0, 0
0, 0
0, 0
0, 0
0, 0
0, 0
0, 0
0, 0
0, 0
0, 0
0, 0
0, 0
0, 0
0, 0
0, 0
0, 0
0, 0
#ENDOFDATA     end of spectrum data

File: ps__0852shot_2065.msa
#FORMAT      : EMSA/MAS spectral data file
#VERSION     : TC202v2.0 PIXL
#TITLE       : N/A
#DATE        :       Date in the format DD-MMM-YYYY, for example 07-JUL-2010
#TIME        :             The time of day at which the spectrum was recorded, in 24-hour format
#OWNER       : PIXL Flight Model       (PIXL will use this to indicate which instrument took the data.)
#NPOINTS     : 4096     Number of data points in the spectrum (This can be zero for configuration only files)
#NCOLUMNS    : 2     Number of data columns in the spectrum (This can be zero for configuration only files)
#XUNITS      : eV
#YUNITS      : COUNTS
#DATATYPE    : YY
#XPERCHAN    : 7.862, 7.881   eV per channel (separate by commas if more than one detector)
#OFFSET      : 18.5, -22.4         eV of first channel  (separate by commas if more than one detector
#SIGNALTYPE  : XRF
#YP_TEMP     : 2.556
#LIVETIME    : 8.55145, 8.54986   seconds (separate by commas if more than one detector)
#REALTIME    : 10, 10.0   seconds (separate by commas if more than one detector)
#SPECTRUM    : start of spectrum data
0, 0
0, 0
0, 0
0, 0
0, 0
0, 0
0, 0
0, 0
0, 1
0, 3
2, 2
42, 45
58, 56
3, 2
6, 5
104, 118
466, 456
102, 112
10, 7
5, 1
12, 2
11, 6
6, 3
5, 10
31, 39
22, 33
20, 17
15, 9
7, 3
3, 3
3, 2
2, 2
5, 13
98, 119
146, 200
30, 38
25, 29
36, 20
72, 8
51, 6
11, 8
13, 16
14, 10
11, 14
4, 7
7, 3
4, 10
4, 8
8, 8
27, 29
34, 24
8, 31
14, 95
39, 86
58, 41
21, 24
42, 42
430, 523
1919, 1994
1425, 1215
206, 129
19, 18
19, 17
82, 109
295, 303
198, 178
26, 18
9, 6
15, 16
12, 14
4, 8
4, 3
1, 7
9, 6
9, 4
9, 9
10, 11
11, 9
6, 4
2, 7
7, 1
3, 5
5, 6
3, 9
4, 5
3, 7
2, 4
3, 3
2, 5
6, 3
7, 4
3, 6
2, 4
2, 2
1, 4
2, 1
4, 2
4, 4
4, 1
5, 2
7, 2
0, 1
1, 5
3, 1
1, 4
0, 3
1, 5
3, 2
2, 0
3, 0
1, 3
1, 2
2, 0
1, 4
3, 3
4, 1
3, 4
2, 2
1, 1
1, 0
3, 4
1, 1
2, 2
3, 2
2, 0
2, 1
1, 0
0, 2
0, 2
1, 0
3, 2
2, 3
2, 0
1, 1
3, 0
4, 2
1, 0
1, 1
1, 0
0, 1
0, 0
0, 0
1, 0
0, 1
0, 0
0, 0
0, 0
0, 0
1, 0
0, 0
0, 0
0, 1
1, 1
1, 0
0, 1
1, 0
1, 1
1, 1
0, 0
2, 0
0, 0
0, 0
1, 0
0, 1
0, 0
0, 0
0, 1
1, 0
0, 0
0, 0
1, 0
0, 0
0, 0
0, 0
0, 0
0, 0
0, 0
0, 1
0, 0
0, 0
0, 1
0, 0
0, 1
0, 0
0, 0
0, 0
0, 0
0, 0
0, 0
0, 0
0, 0
0, 0
0, 0
0, 0
0, 1
0, 0
0, 0
0, 0
0, 0
0, 0
0, 0
0, 0
0, 0
0, 0
0, 0
0, 0
0, 0
0, 0
0, 0
0, 0
0, 0
0, 0
0, 0
0, 0
0, 0
0, 0
0, 0
0, 0
0, 0
0, 0
0, 0
0, 0
0, 0
0, 0
0, 0
0, 0
0, 0
0, 0
0, 0
0, 0
0, 0
0, 0
0, 0
0, 0
0, 0
0, 0
0, 0
0, 0
0, 0
0, 0
0, 0
0, 0
0, 0
0, 0
0, 0
0, 0
0, 0
0, 0
0, 0
0, 0
0, 0
0, 0
0, 0
0, 0
0, 0
0, 0
0, 0
0, 0
0, 0
0, 0
0, 0
0, 0
0, 0
0, 0
0, 0
0, 0
0, 0
0, 0
0, 0
0, 0
0, 0
0, 0
0, 0
0, 0
0, 0
0, 0
0, 0
0, 0
0, 0
0, 0
0, 0
0, 0
0, 0
0, 0
0, 0
0, 0
0, 0
0, 0
0, 0
0, 0
0, 0
0, 0
0, 0
0, 0
#ENDOFDATA     end of spectrum data

File: ps__0852shot_2066.msa
#FORMAT      : EMSA/MAS spectral data file
#VERSION     : TC202v2.0 PIXL
#TITLE       : N/A
#DATE        :       Date in the format DD-MMM-YYYY, for example 07-JUL-2010
#TIME        :             The time of day at which the spectrum was recorded, in 24-hour format
#OWNER       : PIXL Flight Model       (PIXL will use this to indicate which instrument took the data.)
#NPOINTS     : 4096     Number of data points in the spectrum (This can be zero for configuration only files)
#NCOLUMNS    : 2     Number of data columns in the spectrum (This can be zero for configuration only files)
#XUNITS      : eV
#YUNITS      : COUNTS
#DATATYPE    : YY
#XPERCHAN    : 7.862, 7.881   eV per channel (separate by commas if more than one detector)
#OFFSET      : 18.5, -22.4         eV of first channel  (separate by commas if more than one detector
#SIGNALTYPE  : XRF
#YP_TEMP     : 2.556
#LIVETIME    : 8.56742, 8.55191   seconds (separate by commas if more than one detector)
#REALTIME    : 10, 10.0   seconds (separate by commas if more than one detector)
#SPECTRUM    : start of spectrum data
0, 0
0, 0
0, 0
0, 0
0, 0
0, 0
0, 0
0, 0
1, 1
1, 3
0, 1
39, 40
49, 58
2, 7
3, 4
102, 118
465, 537
110, 127
13, 13
4, 4
4, 2
7, 5
6, 11
12, 37
31, 67
45, 40
20, 18
21, 15
4, 4
3, 5
6, 7
2, 4
14, 13
169, 227
251, 334
44, 48
26, 42
38, 40
11, 15
5, 4
9, 2
18, 18
17, 7
16, 12
10, 12
9, 16
6, 19
3, 18
11, 12
30, 44
32, 34
11, 7
13, 13
33, 53
48, 66
29, 12
32, 37
394, 433
1498, 1766
1121, 1068
160, 98
25, 14
18, 18
74, 97
222, 260
165, 165
33, 17
5, 7
13, 11
12, 6
4, 2
6, 6
1, 6
7, 7
7, 15
7, 7
10, 8
3, 7
3, 6
11, 10
8, 6
8, 3
7, 5
11, 14
8, 5
6, 3
5, 4
4, 4
9, 3
3, 4
1, 3
5, 10
3, 7
1, 7
5, 7
4, 4
4, 6
1, 4
4, 2
4, 3
1, 1
3, 5
2, 3
5, 3
2, 4
3, 0
0, 1
2, 1
5, 4
6, 1
4, 2
0, 4
2, 6
2, 2
0, 3
6, 1
1, 3
1, 1
2, 0
2, 1
1, 1
0, 1
3, 2
0, 1
0, 1
2, 2
0, 1
2, 2
0, 1
0, 2
2, 1
1, 1
1, 0
0, 1
0, 1
1, 1
1, 0
0, 1
1, 0
0, 2
0, 0
1, 0
1, 1
1, 0
0, 1
0, 0
1, 0
3, 1
0, 1
1, 1
0, 0
1, 0
0, 0
0, 0
0, 0
1, 0
1, 1
0, 0
0, 0
0, 0
0, 0
2, 0
1, 0
0, 0
1, 0
1, 0
0, 0
0, 0
0, 0
0, 1
1, 2
0, 0
0, 0
0, 0
0, 0
0, 1
1, 0
0, 0
1, 1
1, 0
1, 0
0, 0
0, 0
0, 0
0, 0
0, 0
0, 0
0, 0
0, 0
0, 0
0, 0
0, 0
0, 0
0, 0
0, 0
0, 0
0, 0
0, 0
0, 0
0, 0
0, 0
0, 0
0, 0
1, 0
0, 0
0, 0
0, 0
0, 0
0, 0
0, 0
0, 0
0, 0
0, 0
0, 0
0, 0
0, 0
0, 0
0, 0
0, 0
0, 0
0, 0
0, 0
0, 0
0, 0
0, 0
0, 0
0, 0
0, 0
0, 0
0, 0
0, 0
0, 0
0, 0
0, 0
0, 0
0, 0
0, 0
0, 0
0, 0
0, 0
0, 0
0, 0
0, 0
0, 0
0, 0
0, 0
0, 0
0, 0
0, 0
0, 0
0, 0
0, 0
0, 0
0, 0
0, 0
0, 0
0, 0
0, 0
0, 0
0, 0
0, 0
0, 0
0, 0
0, 0
0, 0
0, 0
0, 0
0, 0
0, 0
0, 0
0, 0
0, 0
0, 0
0, 0
0, 0
0, 0
0, 0
0, 0
0, 0
0, 0
0, 0
0, 0
0, 0
0, 0
0, 0
0, 0
0, 0
0, 0
0, 0
0, 0
0, 0
0, 0
0, 0
0, 0
#ENDOFDATA     end of spectrum data

File: ps__0852shot_2067.msa
#FORMAT      : EMSA/MAS spectral data file
#VERSION     : TC202v2.0 PIXL
#TITLE       : N/A
#DATE        :       Date in the format DD-MMM-YYYY, for example 07-JUL-2010
#TIME        :             The time of day at which the spectrum was recorded, in 24-hour format
#OWNER       : PIXL Flight Model       (PIXL will use this to indicate which instrument took the data.)
#NPOINTS     : 4096     Number of data points in the spectrum (This can be zero for configuration only files)
#NCOLUMNS    : 2     Number of data columns in the spectrum (This can be zero for configuration only files)
#XUNITS      : eV
#YUNITS      : COUNTS
#DATATYPE    : YY
#XPERCHAN    : 7.862, 7.881   eV per channel (separate by commas if more than one detector)
#OFFSET      : 18.5, -22.4         eV of first channel  (separate by commas if more than one detector
#SIGNALTYPE  : XRF
#YP_TEMP     : 2.492
#LIVETIME    : 8.55888, 8.56828   seconds (separate by commas if more than one detector)
#REALTIME    : 10, 10.0   seconds (separate by commas if more than one detector)
#SPECTRUM    : start of spectrum data
0, 0
0, 0
0, 0
0, 0
0, 0
0, 0
0, 0
0, 1
0, 1
2, 1
1, 1
54, 36
66, 57
9, 6
6, 5
86, 107
382, 427
107, 118
13, 12
6, 4
3, 1
6, 1
3, 4
9, 10
34, 125
38, 169
30, 37
9, 13
1, 1
1, 7
2, 3
3, 7
4, 12
34, 43
86, 96
12, 10
10, 7
20, 12
5, 8
4, 1
6, 7
13, 10
14, 16
8, 5
12, 4
5, 7
3, 10
10, 18
11, 9
15, 17
13, 27
8, 18
21, 13
45, 44
56, 67
21, 18
59, 31
513, 587
2114, 2319
1455, 1338
205, 160
27, 19
24, 27
101, 121
339, 360
202, 214
33, 19
7, 9
17, 22
11, 8
5, 7
3, 3
6, 7
2, 10
8, 11
11, 10
11, 5
7, 7
2, 4
1, 4
3, 3
7, 1
19, 3
12, 4
9, 2
1, 5
6, 4
4, 9
3, 6
3, 3
4, 5
1, 4
5, 11
4, 16
6, 6
4, 5
2, 5
1, 0
2, 2
3, 2
1, 4
3, 2
1, 3
3, 4
2, 1
1, 3
2, 2
4, 3
2, 4
2, 1
10, 1
5, 3
0, 2
5, 1
3, 2
1, 3
2, 1
4, 1
0, 2
1, 0
1, 3
0, 4
1, 1
2, 4
2, 4
1, 1
3, 1
0, 0
1, 0
0, 0
1, 0
1, 0
2, 0
1, 1
2, 0
1, 0
2, 1
1, 0
1, 0
1, 1
1, 2
1, 0
0, 1
1, 1
2, 1
0, 0
0, 0
2, 0
0, 0
0, 1
0, 1
1, 0
0, 0
0, 0
1, 1
0, 0
0, 0
0, 0
1, 1
0, 2
0, 0
0, 0
3, 0
1, 0
0, 3
0, 0
1, 1
0, 0
1, 1
1, 0
0, 0
0, 1
0, 0
0, 0
0, 0
0, 1
0, 0
0, 0
1, 1
0, 0
0, 1
0, 0
1, 0
0, 0
0, 0
0, 0
0, 0
0, 0
0, 0
0, 0
0, 0
1, 0
0, 0
0, 0
0, 0
0, 0
0, 0
0, 0
0, 0
0, 0
0, 0
0, 0
0, 0
0, 0
1, 0
0, 0
0, 0
0, 0
0, 0
0, 1
0, 0
0, 0
0, 0
0, 0
0, 0
0, 0
0, 0
1, 0
0, 0
0, 0
0, 0
0, 0
0, 0
0, 0
0, 0
0, 0
0, 0
0, 0
0, 0
0, 0
0, 0
0, 0
0, 0
0, 0
0, 0
0, 0
0, 0
0, 0
0, 0
0, 0
0, 0
0, 0
0, 0
0, 0
0, 0
0, 0
0, 0
0, 0
0, 0
0, 0
0, 0
0, 0
0, 0
0, 0
0, 0
0, 0
0, 0
0, 0
0, 0
0, 0
0, 0
0, 0
0, 0
0, 0
0, 0
0, 0
0, 0
0, 0
0, 0
0, 0
0, 0
0, 0
0, 0
0, 0
0, 0
0, 0
0, 0
0, 0
0, 0
0, 0
0, 0
0, 0
0, 0
0, 0
0, 0
0, 0
0, 0
0, 0
0, 0
0, 0
0, 0
0, 0
0, 0
0, 0
#ENDOFDATA     end of spectrum data

File: ps__0852shot_2068.msa
#FORMAT      : EMSA/MAS spectral data file
#VERSION     : TC202v2.0 PIXL
#TITLE       : N/A
#DATE        :       Date in the format DD-MMM-YYYY, for example 07-JUL-2010
#TIME        :             The time of day at which the spectrum was recorded, in 24-hour format
#OWNER       : PIXL Flight Model       (PIXL will use this to indicate which instrument took the data.)
#NPOINTS     : 4096     Number of data points in the spectrum (This can be zero for configuration only files)
#NCOLUMNS    : 2     Number of data columns in the spectrum (This can be zero for configuration only files)
#XUNITS      : eV
#YUNITS      : COUNTS
#DATATYPE    : YY
#XPERCHAN    : 7.862, 7.881   eV per channel (separate by commas if more than one detector)
#OFFSET      : 18.5, -22.4         eV of first channel  (separate by commas if more than one detector
#SIGNALTYPE  : XRF
#YP_TEMP     : 2.46
#LIVETIME    : 8.54494, 8.56135   seconds (separate by commas if more than one detector)
#REALTIME    : 10, 10.0   seconds (separate by commas if more than one detector)
#SPECTRUM    : start of spectrum data
0, 0
0, 0
0, 0
0, 0
0, 0
0, 0
0, 0
0, 0
0, 2
0, 3
3, 5
40, 37
57, 53
12, 7
3, 2
74, 107
382, 521
111, 99
9, 6
1, 2
3, 1
2, 5
3, 4
4, 7
26, 142
41, 189
27, 63
7, 17
7, 3
1, 4
1, 6
0, 5
3, 11
5, 28
12, 17
8, 2
23, 5
38, 3
5, 3
4, 4
9, 1
30, 9
21, 12
8, 11
10, 5
13, 12
8, 22
7, 14
7, 16
6, 18
12, 84
7, 74
7, 16
38, 37
62, 73
23, 30
31, 72
459, 612
1996, 2412
1529, 1418
200, 153
24, 20
25, 30
105, 115
321, 378
224, 226
41, 29
12, 9
12, 11
9, 11
8, 1
4, 3
3, 9
8, 4
6, 7
4, 8
2, 3
3, 5
1, 2
2, 5
5, 5
9, 4
7, 0
5, 2
9, 4
4, 4
4, 9
6, 5
4, 1
3, 4
2, 4
5, 2
3, 5
7, 3
5, 3
2, 2
3, 2
2, 5
2, 6
4, 0
5, 6
5, 2
3, 1
2, 4
3, 3
3, 1
1, 0
2, 2
5, 3
2, 4
2, 3
3, 2
1, 2
2, 1
0, 3
3, 2
5, 7
2, 3
5, 2
2, 1
2, 4
3, 2
5, 0
3, 5
2, 3
1, 0
0, 2
1, 0
0, 3
2, 0
2, 0
1, 0
1, 1
0, 0
0, 3
0, 0
1, 0
0, 0
0, 2
0, 0
0, 2
0, 0
0, 1
1, 2
1, 0
0, 0
0, 0
0, 0
1, 1
1, 0
0, 0
0, 0
0, 1
1, 0
1, 0
0, 0
0, 0
1, 0
1, 0
1, 1
0, 1
0, 0
0, 0
0, 0
0, 1
0, 0
0, 0
0, 1
1, 0
0, 0
1, 0
0, 0
0, 0
0, 1
0, 0
1, 0
0, 0
0, 0
0, 0
0, 0
0, 2
0, 0
0, 0
0, 0
0, 0
0, 0
0, 0
1, 0
0, 0
0, 0
0, 0
0, 0
0, 0
0, 0
0, 0
0, 0
0, 0
0, 0
0, 0
0, 0
0, 0
0, 0
0, 0
0, 0
0, 0
0, 0
0, 0
0, 0
0, 0
0, 0
0, 0
0, 0
0, 0
0, 1
0, 0
0, 0
0, 0
0, 0
0, 0
0, 1
0, 0
0, 0
0, 0
0, 0
0, 0
0, 0
0, 0
0, 0
0, 0
0, 0
0, 0
0, 0
0, 0
0, 0
0, 0
0, 0
0, 0
0, 0
0, 0
0, 0
0, 0
0, 0
0, 0
0, 0
0, 0
0, 0
0, 0
0, 0
0, 0
0, 0
0, 0
0, 0
0, 0
0, 0
0, 0
0, 0
0, 0
0, 0
0, 0
0, 0
0, 0
0, 0
0, 0
0, 0
0, 0
0, 0
0, 0
0, 0
0, 0
0, 0
0, 0
0, 0
0, 0
0, 0
0, 0
0, 0
0, 0
0, 0
0, 0
0, 0
0, 0
0, 0
0, 0
0, 0
0, 0
0, 0
0, 0
0, 0
0, 0
0, 0
0, 0
0, 0
0, 0
0, 0
#ENDOFDATA     end of spectrum data

File: ps__0852shot_2069.msa
#FORMAT      : EMSA/MAS spectral data file
#VERSION     : TC202v2.0 PIXL
#TITLE       : N/A
#DATE        :       Date in the format DD-MMM-YYYY, for example 07-JUL-2010
#TIME        :             The time of day at which the spectrum was recorded, in 24-hour format
#OWNER       : PIXL Flight Model       (PIXL will use this to indicate which instrument took the data.)
#NPOINTS     : 4096     Number of data points in the spectrum (This can be zero for configuration only files)
#NCOLUMNS    : 2     Number of data columns in the spectrum (This can be zero for configuration only files)
#XUNITS      : eV
#YUNITS      : COUNTS
#DATATYPE    : YY
#XPERCHAN    : 7.862, 7.881   eV per channel (separate by commas if more than one detector)
#OFFSET      : 18.5, -22.4         eV of first channel  (separate by commas if more than one detector
#SIGNALTYPE  : XRF
#YP_TEMP     : 2.716
#LIVETIME    : 8.55336, 8.55849   seconds (separate by commas if more than one detector)
#REALTIME    : 10, 10.0   seconds (separate by commas if more than one detector)
#SPECTRUM    : start of spectrum data
0, 0
0, 0
0, 0
0, 0
0, 0
0, 0
0, 0
0, 0
1, 3
1, 1
1, 3
46, 47
66, 64
3, 10
4, 3
76, 106
383, 479
100, 110
6, 8
1, 0
2, 4
2, 3
11, 5
5, 7
17, 23
29, 33
21, 27
11, 20
4, 1
4, 2
2, 2
1, 3
1, 6
6, 8
13, 14
12, 2
49, 4
53, 10
7, 3
2, 3
9, 1
20, 10
30, 11
9, 14
7, 11
6, 13
8, 37
4, 11
8, 9
15, 16
4, 30
2, 25
7, 18
33, 40
50, 52
14, 45
40, 96
486, 630
2130, 2417
1689, 1396
213, 145
13, 25
19, 15
86, 145
276, 370
248, 204
58, 25
27, 12
20, 11
6, 10
4, 2
4, 3
4, 5
7, 4
6, 5
7, 3
2, 0
4, 4
6, 3
5, 7
7, 3
21, 9
2, 7
1, 4
4, 4
3, 1
2, 8
2, 6
3, 3
5, 0
3, 1
2, 9
3, 6
5, 2
9, 5
17, 9
6, 3
2, 6
2, 2
2, 2
2, 3
1, 5
4, 1
5, 1
8, 3
1, 1
0, 1
1, 0
2, 2
3, 5
0, 2
2, 5
2, 4
2, 1
6, 1
0, 5
6, 4
3, 3
1, 2
0, 3
4, 1
0, 2
3, 3
1, 2
1, 4
1, 0
4, 0
0, 2
1, 1
0, 7
1, 1
0, 1
2, 0
1, 0
2, 1
0, 1
0, 2
0, 1
1, 0
2, 1
0, 2
1, 2
1, 0
0, 0
0, 0
0, 0
0, 0
0, 1
1, 0
2, 0
0, 0
1, 0
1, 1
0, 0
0, 1
0, 0
1, 0
0, 1
0, 0
0, 0
0, 0
0, 0
0, 0
0, 0
0, 0
0, 1
0, 1
0, 0
0, 0
0, 0
0, 1
0, 1
0, 1
0, 0
1, 1
0, 0
0, 0
0, 0
0, 0
0, 0
0, 0
0, 0
0, 0
0, 0
1, 0
0, 0
0, 0
0, 0
1, 0
1, 0
1, 0
0, 0
0, 0
0, 0
0, 0
0, 0
0, 0
0, 0
0, 0
0, 0
0, 0
0, 1
0, 0
0, 0
0, 0
0, 0
0, 0
0, 0
0, 0
0, 0
0, 0
0, 0
0, 0
0, 0
0, 0
0, 0
0, 0
0, 0
0, 0
0, 0
0, 0
0, 0
0, 0
0, 0
0, 0
0, 0
0, 0
0, 0
0, 0
0, 0
0, 0
0, 0
0, 0
0, 0
0, 0
0, 0
0, 1
0, 0
0, 0
0, 0
0, 0
0, 0
0, 0
0, 0
0, 0
0, 0
0, 0
0, 0
0, 0
0, 0
0, 0
0, 0
0, 0
0, 0
0, 0
0, 0
0, 0
0, 0
0, 0
0, 0
0, 0
0, 0
0, 0
0, 0
0, 0
0, 0
0, 0
0, 0
0, 0
0, 0
0, 0
0, 0
0, 0
0, 0
0, 0
0, 0
0, 0
0, 0
0, 0
0, 0
0, 0
0, 0
0, 0
0, 0
0, 0
0, 0
0, 0
0, 0
0, 0
0, 0
0, 0
0, 0
0, 0
0, 0
#ENDOFDATA     end of spectrum data

File: ps__0852shot_2070.msa
#FORMAT      : EMSA/MAS spectral data file
#VERSION     : TC202v2.0 PIXL
#TITLE       : N/A
#DATE        :       Date in the format DD-MMM-YYYY, for example 07-JUL-2010
#TIME        :             The time of day at which the spectrum was recorded, in 24-hour format
#OWNER       : PIXL Flight Model       (PIXL will use this to indicate which instrument took the data.)
#NPOINTS     : 4096     Number of data points in the spectrum (This can be zero for configuration only files)
#NCOLUMNS    : 2     Number of data columns in the spectrum (This can be zero for configuration only files)
#XUNITS      : eV
#YUNITS      : COUNTS
#DATATYPE    : YY
#XPERCHAN    : 7.862, 7.881   eV per channel (separate by commas if more than one detector)
#OFFSET      : 18.5, -22.4         eV of first channel  (separate by commas if more than one detector
#SIGNALTYPE  : XRF
#YP_TEMP     : 2.716
#LIVETIME    : 8.56011, 8.5654   seconds (separate by commas if more than one detector)
#REALTIME    : 10, 10.0   seconds (separate by commas if more than one detector)
#SPECTRUM    : start of spectrum data
0, 0
0, 0
0, 0
0, 0
0, 0
0, 0
0, 0
0, 0
0, 0
0, 2
4, 4
61, 47
53, 62
9, 3
6, 5
96, 91
430, 443
101, 84
5, 5
2, 3
2, 2
3, 8
4, 2
8, 8
33, 37
48, 55
26, 24
15, 8
4, 8
0, 2
5, 4
2, 2
3, 0
17, 16
21, 14
6, 11
28, 12
19, 7
8, 3
7, 6
5, 7
17, 13
17, 18
17, 16
12, 9
8, 14
6, 13
1, 16
9, 12
18, 15
17, 11
9, 10
8, 10
34, 53
59, 66
31, 30
31, 57
479, 604
2268, 2383
1620, 1450
218, 152
23, 22
24, 20
96, 117
324, 337
203, 211
48, 31
18, 14
18, 19
15, 13
5, 7
5, 3
1, 4
6, 2
6, 5
3, 6
3, 3
7, 1
6, 3
7, 5
12, 3
4, 6
2, 3
4, 5
1, 3
7, 5
2, 2
3, 2
3, 2
6, 4
4, 5
0, 3
3, 3
3, 3
4, 5
3, 3
3, 4
4, 2
2, 3
2, 1
4, 5
4, 1
2, 2
1, 8
2, 1
2, 3
5, 2
4, 0
4, 1
3, 2
1, 3
2, 2
5, 3
3, 1
2, 2
3, 5
3, 4
3, 1
5, 0
2, 1
5, 2
2, 2
5, 1
0, 0
1, 1
1, 1
0, 0
0, 2
1, 2
0, 0
0, 0
1, 0
2, 1
0, 2
1, 0
0, 1
1, 0
3, 2
0, 2
0, 1
2, 0
1, 1
1, 2
0, 0
1, 0
0, 1
0, 0
0, 0
0, 0
0, 0
2, 1
0, 1
0, 0
1, 0
0, 1
0, 1
0, 0
0, 0
0, 0
0, 1
0, 1
0, 0
0, 0
0, 2
0, 0
0, 0
0, 0
0, 1
1, 0
0, 0
2, 1
0, 0
3, 0
1, 0
0, 0
0, 0
0, 0
0, 0
0, 0
0, 0
0, 0
1, 0
0, 0
0, 0
0, 0
0, 0
0, 0
0, 0
0, 0
0, 0
0, 0
0, 0
0, 0
0, 0
1, 0
0, 0
0, 0
1, 0
0, 0
1, 0
0, 0
0, 0
0, 0
0, 0
0, 0
0, 0
0, 0
0, 0
0, 0
1, 0
0, 0
0, 0
0, 0
0, 0
0, 0
0, 0
0, 0
0, 0
0, 0
0, 0
0, 0
0, 0
0, 0
0, 0
0, 0
0, 0
0, 0
0, 0
0, 0
0, 0
0, 0
0, 0
0, 0
0, 0
0, 0
0, 0
0, 0
0, 0
0, 0
0, 0
0, 0
0, 0
0, 0
0, 0
0, 0
0, 0
0, 0
0, 0
0, 0
0, 0
0, 0
0, 0
0, 0
0, 0
0, 0
0, 0
0, 0
0, 0
0, 0
0, 0
0, 0
0, 0
0, 0
0, 0
0, 0
0, 0
0, 0
0, 0
0, 0
0, 0
0, 0
0, 0
0, 0
0, 0
0, 0
0, 0
0, 0
0, 0
0, 0
0, 0
0, 0
0, 0
0, 0
0, 0
0, 0
0, 0
0, 0
0, 0
0, 0
0, 0
0, 0
0, 0
0, 0
0, 0
#ENDOFDATA     end of spectrum data

File: ps__0852shot_2071.msa
#FORMAT      : EMSA/MAS spectral data file
#VERSION     : TC202v2.0 PIXL
#TITLE       : N/A
#DATE        :       Date in the format DD-MMM-YYYY, for example 07-JUL-2010
#TIME        :             The time of day at which the spectrum was recorded, in 24-hour format
#OWNER       : PIXL Flight Model       (PIXL will use this to indicate which instrument took the data.)
#NPOINTS     : 4096     Number of data points in the spectrum (This can be zero for configuration only files)
#NCOLUMNS    : 2     Number of data columns in the spectrum (This can be zero for configuration only files)
#XUNITS      : eV
#YUNITS      : COUNTS
#DATATYPE    : YY
#XPERCHAN    : 7.862, 7.881   eV per channel (separate by commas if more than one detector)
#OFFSET      : 18.5, -22.4         eV of first channel  (separate by commas if more than one detector
#SIGNALTYPE  : XRF
#YP_TEMP     : 2.428
#LIVETIME    : 8.56215, 8.35712   seconds (separate by commas if more than one detector)
#REALTIME    : 10, 10.0   seconds (separate by commas if more than one detector)
#SPECTRUM    : start of spectrum data
0, 0
0, 0
0, 0
0, 0
0, 0
0, 0
0, 0
2, 0
1, 1
1, 0
1, 5
39, 35
73, 48
5, 5
4, 3
93, 104
435, 391
108, 87
1, 3
0, 0
9, 1
7, 2
4, 4
4, 11
50, 42
49, 52
44, 25
14, 20
4, 8
1, 2
4, 3
1, 3
2, 7
17, 12
29, 18
7, 7
11, 13
9, 6
7, 16
7, 11
7, 9
14, 26
14, 20
15, 16
9, 6
13, 14
7, 5
7, 5
9, 17
19, 15
22, 14
18, 13
15, 12
50, 42
67, 57
30, 31
37, 43
523, 593
2243, 2198
1739, 1409
240, 114
10, 24
22, 37
124, 123
353, 345
245, 192
39, 19
14, 5
17, 14
9, 4
8, 3
2, 3
4, 6
1, 4
5, 15
7, 12
6, 7
5, 5
7, 10
7, 5
9, 5
1, 8
4, 4
8, 5
5, 8
5, 4
1, 2
5, 4
7, 6
4, 2
4, 3
1, 2
1, 4
5, 5
4, 3
5, 4
2, 1
2, 3
4, 3
4, 5
4, 2
6, 3
3, 5
2, 1
0, 1
2, 3
2, 2
4, 0
0, 2
2, 0
0, 0
1, 2
1, 0
4, 1
4, 1
0, 1
6, 1
2, 2
1, 1
1, 2
3, 2
4, 3
4, 0
1, 0
1, 1
0, 1
0, 0
1, 1
0, 1
1, 0
0, 2
2, 2
2, 0
0, 2
2, 1
0, 0
1, 0
1, 0
0, 0
0, 0
1, 0
1, 0
0, 0
1, 1
0, 0
0, 1
0, 1
2, 1
1, 1
0, 0
0, 0
1, 0
1, 1
0, 0
1, 0
0, 0
0, 0
1, 0
0, 0
0, 0
0, 1
1, 0
0, 1
0, 1
1, 0
1, 0
0, 0
0, 0
0, 0
0, 1
0, 0
1, 1
0, 1
0, 0
0, 0
0, 0
0, 0
0, 0
0, 0
0, 0
0, 0
0, 0
0, 0
0, 0
1, 0
0, 0
0, 0
0, 0
0, 0
0, 1
0, 0
0, 0
0, 0
1, 0
0, 0
0, 0
0, 0
0, 0
0, 0
0, 0
0, 0
0, 0
0, 0
0, 0
0, 0
0, 0
0, 0
0, 0
0, 1
0, 0
0, 0
0, 0
0, 0
0, 0
0, 0
0, 0
0, 0
0, 0
0, 0
0, 0
0, 0
0, 0
0, 0
0, 0
0, 0
0, 0
0, 0
0, 0
0, 0
0, 0
0, 0
0, 0
0, 0
0, 0
0, 0
0, 0
0, 0
0, 0
0, 0
0, 0
0, 0
0, 0
0, 0
0, 0
0, 0
0, 0
0, 0
0, 0
0, 0
0, 0
0, 0
0, 0
0, 0
0, 0
0, 0
0, 0
0, 0
0, 0
0, 0
0, 0
0, 0
0, 0
0, 0
0, 0
0, 0
0, 0
0, 0
0, 0
0, 0
0, 0
0, 0
0, 0
0, 0
0, 0
0, 0
0, 0
0, 0
0, 0
0, 0
0, 0
0, 0
0, 0
0, 0
0, 0
0, 0
0, 0
0, 0
0, 0
0, 0
0, 0
0, 0
0, 0
0, 0
0, 0
#ENDOFDATA     end of spectrum data