Folder: data-repository/host_upload/06-09-2024/ps_0852/dump3 (part 4)

File: ps__0852shot_2027.msa
#FORMAT      : EMSA/MAS spectral data file
#VERSION     : TC202v2.0 PIXL
#TITLE       : N/A
#DATE        :       Date in the format DD-MMM-YYYY, for example 07-JUL-2010
#TIME        :             The time of day at which the spectrum was recorded, in 24-hour format
#OWNER       : PIXL Flight Model       (PIXL will use this to indicate which instrument took the data.)
#NPOINTS     : 4096     Number of data points in the spectrum (This can be zero for configuration only files)
#NCOLUMNS    : 2     Number of data columns in the spectrum (This can be zero for configuration only files)
#XUNITS      : eV
#YUNITS      : COUNTS
#DATATYPE    : YY
#XPERCHAN    : 7.862, 7.881   eV per channel (separate by commas if more than one detector)
#OFFSET      : 18.5, -22.4         eV of first channel  (separate by commas if more than one detector
#SIGNALTYPE  : XRF
#YP_TEMP     : 2.3
#LIVETIME    : 8.55362, 8.56715   seconds (separate by commas if more than one detector)
#REALTIME    : 10, 10.0   seconds (separate by commas if more than one detector)
#SPECTRUM    : start of spectrum data
0, 0
0, 0
0, 0
0, 0
0, 0
0, 0
0, 0
0, 0
1, 0
2, 1
3, 2
25, 34
57, 67
10, 4
6, 5
87, 95
412, 491
103, 132
11, 10
0, 1
9, 7
32, 28
14, 14
22, 10
35, 31
40, 37
27, 26
14, 6
6, 3
1, 0
1, 3
2, 4
7, 11
53, 105
125, 163
20, 40
12, 20
15, 28
8, 12
9, 3
10, 8
10, 17
18, 23
14, 13
2, 2
6, 4
3, 7
7, 4
10, 9
22, 22
13, 13
15, 5
33, 17
48, 47
55, 64
22, 22
32, 38
416, 616
1797, 2324
1394, 1391
205, 154
21, 17
18, 26
78, 93
267, 320
202, 177
29, 26
2, 8
11, 10
6, 8
3, 5
5, 1
3, 10
5, 30
6, 50
6, 35
7, 6
1, 2
3, 4
8, 3
5, 4
7, 5
5, 0
36, 2
18, 4
10, 4
2, 7
10, 5
8, 1
7, 4
2, 5
2, 4
1, 3
1, 1
3, 1
1, 3
2, 3
2, 1
3, 0
3, 1
4, 1
4, 3
5, 3
5, 4
2, 3
7, 4
4, 4
2, 3
3, 9
4, 6
1, 1
5, 3
0, 5
1, 2
0, 2
4, 1
1, 3
3, 2
0, 2
0, 1
0, 4
0, 4
3, 1
1, 3
2, 0
2, 0
2, 0
0, 1
0, 1
0, 1
1, 0
0, 1
1, 1
0, 0
0, 1
2, 0
1, 0
0, 0
0, 1
4, 0
2, 0
2, 1
0, 0
0, 0
0, 0
0, 0
0, 1
1, 1
1, 0
0, 0
0, 0
1, 0
0, 0
2, 0
0, 1
0, 1
0, 1
0, 0
0, 0
0, 0
0, 0
0, 0
0, 0
0, 0
0, 0
0, 0
0, 1
0, 0
0, 0
0, 0
0, 0
1, 0
0, 0
0, 0
0, 0
0, 0
1, 0
1, 0
0, 0
0, 0
1, 1
0, 0
0, 1
0, 0
0, 0
0, 0
1, 0
0, 1
0, 0
0, 0
0, 0
0, 0
0, 0
0, 0
0, 0
0, 0
0, 0
0, 0
0, 0
0, 0
0, 0
0, 0
0, 0
0, 0
0, 0
0, 0
0, 0
0, 0
0, 0
0, 0
0, 0
0, 0
0, 0
0, 0
0, 0
0, 0
0, 0
0, 0
0, 0
0, 0
1, 0
0, 0
0, 0
0, 0
0, 0
0, 0
0, 0
0, 0
0, 0
0, 0
0, 0
0, 0
0, 0
0, 0
0, 0
0, 0
0, 0
0, 0
0, 0
0, 0
0, 0
0, 0
0, 0
0, 0
0, 0
0, 0
0, 0
0, 0
0, 0
0, 0
0, 0
0, 0
0, 0
0, 0
0, 0
0, 0
0, 0
0, 0
0, 0
0, 0
0, 0
0, 0
0, 0
0, 0
0, 0
0, 0
0, 0
0, 0
0, 0
0, 0
0, 0
0, 0
0, 0
0, 0
0, 0
0, 0
0, 0
0, 0
0, 0
0, 0
0, 0
0, 0
0, 0
0, 0
0, 0
0, 0
0, 0
0, 0
0, 0
0, 0
0, 0
0, 0
0, 0
0, 0
#ENDOFDATA     end of spectrum data

File: ps__0852shot_2028.msa
#FORMAT      : EMSA/MAS spectral data file
#VERSION     : TC202v2.0 PIXL
#TITLE       : N/A
#DATE        :       Date in the format DD-MMM-YYYY, for example 07-JUL-2010
#TIME        :             The time of day at which the spectrum was recorded, in 24-hour format
#OWNER       : PIXL Flight Model       (PIXL will use this to indicate which instrument took the data.)
#NPOINTS     : 4096     Number of data points in the spectrum (This can be zero for configuration only files)
#NCOLUMNS    : 2     Number of data columns in the spectrum (This can be zero for configuration only files)
#XUNITS      : eV
#YUNITS      : COUNTS
#DATATYPE    : YY
#XPERCHAN    : 7.862, 7.881   eV per channel (separate by commas if more than one detector)
#OFFSET      : 18.5, -22.4         eV of first channel  (separate by commas if more than one detector
#SIGNALTYPE  : XRF
#YP_TEMP     : 2.235
#LIVETIME    : 8.55544, 8.56008   seconds (separate by commas if more than one detector)
#REALTIME    : 10, 10.0   seconds (separate by commas if more than one detector)
#SPECTRUM    : start of spectrum data
0, 0
0, 0
0, 0
0, 0
0, 0
0, 0
0, 0
1, 1
0, 1
2, 1
3, 2
22, 36
41, 49
14, 6
0, 10
120, 131
502, 517
135, 124
10, 6
7, 4
42, 13
110, 78
47, 41
15, 22
47, 64
50, 30
41, 20
19, 17
6, 1
4, 10
4, 5
2, 1
11, 21
251, 289
381, 406
71, 77
56, 44
75, 59
38, 15
38, 8
19, 18
14, 39
10, 17
3, 7
8, 4
9, 10
3, 3
6, 9
7, 20
42, 42
36, 34
9, 23
20, 24
41, 52
59, 60
24, 23
24, 37
288, 408
1349, 1448
1077, 948
160, 89
24, 9
20, 12
61, 88
193, 223
128, 145
23, 25
3, 14
9, 19
9, 11
4, 5
7, 6
7, 8
5, 7
11, 9
4, 11
4, 21
3, 16
6, 4
15, 3
4, 5
4, 8
3, 7
3, 4
5, 4
3, 1
5, 3
1, 12
2, 7
4, 5
6, 6
5, 4
7, 3
5, 5
3, 5
6, 3
1, 4
4, 2
5, 5
3, 3
1, 4
4, 2
3, 2
0, 1
3, 1
4, 3
0, 2
1, 2
5, 1
0, 2
1, 1
2, 2
4, 5
5, 4
3, 3
1, 3
2, 6
3, 1
2, 1
2, 1
4, 0
0, 0
1, 3
1, 3
5, 0
3, 3
0, 1
0, 0
0, 0
1, 0
0, 0
1, 0
3, 1
0, 0
1, 0
0, 0
0, 0
2, 1
0, 0
0, 1
1, 1
0, 1
0, 0
0, 1
1, 2
1, 1
0, 1
0, 2
0, 0
1, 0
1, 0
0, 0
0, 2
1, 2
0, 0
0, 0
0, 1
0, 1
0, 0
0, 0
0, 0
0, 2
0, 0
0, 0
0, 0
0, 0
0, 0
0, 0
0, 0
0, 0
0, 1
0, 0
0, 0
2, 0
0, 1
0, 0
0, 0
1, 0
0, 1
0, 0
0, 0
0, 0
1, 0
2, 0
0, 0
0, 0
0, 0
0, 0
0, 0
0, 0
0, 0
0, 0
0, 0
0, 0
0, 0
0, 0
1, 0
0, 0
0, 0
0, 0
0, 0
0, 0
0, 0
0, 0
0, 0
0, 0
0, 0
0, 0
0, 0
0, 0
0, 0
0, 0
0, 0
0, 0
0, 0
0, 0
0, 0
0, 0
0, 0
0, 1
0, 0
0, 0
0, 0
0, 0
0, 0
0, 0
0, 0
0, 0
0, 0
0, 0
0, 0
0, 0
0, 0
0, 0
0, 0
0, 0
0, 0
0, 0
0, 0
0, 0
0, 0
0, 0
0, 0
0, 0
0, 0
0, 0
0, 0
0, 0
0, 0
0, 0
0, 0
0, 0
0, 0
0, 0
0, 0
0, 0
0, 0
0, 0
0, 0
0, 0
0, 0
0, 0
0, 0
0, 0
0, 0
0, 0
0, 0
0, 0
0, 0
0, 0
0, 0
0, 0
0, 0
0, 0
0, 0
0, 0
0, 0
0, 0
0, 0
0, 0
0, 0
0, 0
0, 0
0, 0
0, 0
0, 0
0, 0
0, 0
0, 0
0, 0
0, 0
0, 0
0, 0
0, 0
#ENDOFDATA     end of spectrum data

File: ps__0852shot_2029.msa
#FORMAT      : EMSA/MAS spectral data file
#VERSION     : TC202v2.0 PIXL
#TITLE       : N/A
#DATE        :       Date in the format DD-MMM-YYYY, for example 07-JUL-2010
#TIME        :             The time of day at which the spectrum was recorded, in 24-hour format
#OWNER       : PIXL Flight Model       (PIXL will use this to indicate which instrument took the data.)
#NPOINTS     : 4096     Number of data points in the spectrum (This can be zero for configuration only files)
#NCOLUMNS    : 2     Number of data columns in the spectrum (This can be zero for configuration only files)
#XUNITS      : eV
#YUNITS      : COUNTS
#DATATYPE    : YY
#XPERCHAN    : 7.862, 7.881   eV per channel (separate by commas if more than one detector)
#OFFSET      : 18.5, -22.4         eV of first channel  (separate by commas if more than one detector
#SIGNALTYPE  : XRF
#YP_TEMP     : 2.556
#LIVETIME    : 8.57873, 8.55155   seconds (separate by commas if more than one detector)
#REALTIME    : 10, 10.0   seconds (separate by commas if more than one detector)
#SPECTRUM    : start of spectrum data
0, 0
0, 0
0, 0
0, 0
0, 0
0, 0
0, 0
1, 1
0, 1
2, 0
6, 2
46, 36
50, 48
11, 7
5, 13
105, 95
367, 391
83, 96
6, 9
6, 2
57, 44
277, 231
101, 89
22, 26
51, 54
55, 34
31, 23
11, 10
4, 4
1, 2
6, 10
6, 4
9, 3
55, 50
81, 76
22, 23
53, 9
56, 18
60, 14
43, 12
8, 23
15, 46
20, 29
10, 14
6, 10
10, 10
9, 6
7, 2
6, 8
17, 26
24, 14
8, 14
15, 49
34, 74
57, 72
20, 18
32, 51
412, 556
1910, 2179
1417, 1270
182, 143
15, 14
15, 19
95, 114
284, 322
200, 172
45, 21
8, 21
12, 25
7, 18
2, 10
3, 11
5, 4
10, 10
6, 2
10, 8
15, 4
9, 6
6, 8
7, 6
3, 5
5, 13
3, 10
2, 7
4, 6
4, 5
1, 3
4, 4
4, 6
2, 1
2, 4
2, 1
5, 7
1, 3
6, 3
8, 1
3, 5
7, 4
6, 6
9, 3
1, 1
3, 1
1, 2
3, 1
4, 1
0, 0
1, 4
2, 1
3, 4
2, 3
2, 3
2, 4
4, 2
5, 2
0, 5
3, 3
6, 6
2, 2
0, 3
0, 0
2, 1
1, 2
1, 1
1, 1
4, 0
2, 1
0, 1
3, 0
1, 0
0, 1
0, 2
0, 0
1, 1
0, 0
0, 0
0, 0
0, 0
0, 2
0, 0
0, 3
1, 0
0, 1
0, 0
1, 0
0, 1
0, 0
0, 0
0, 1
0, 0
1, 0
1, 0
0, 2
1, 0
2, 0
2, 0
0, 0
0, 0
0, 0
1, 1
1, 0
1, 0
1, 0
1, 0
0, 0
0, 0
0, 0
0, 0
0, 0
0, 0
0, 0
0, 0
0, 0
0, 0
0, 0
0, 0
0, 1
0, 0
0, 0
0, 0
0, 0
0, 0
0, 0
1, 0
0, 0
0, 0
0, 0
0, 0
0, 1
0, 0
0, 0
0, 0
0, 0
0, 0
0, 0
0, 0
0, 0
1, 0
0, 0
0, 0
0, 0
0, 0
0, 0
0, 0
0, 0
0, 0
0, 0
0, 0
0, 0
0, 0
0, 0
0, 0
0, 0
0, 0
0, 0
0, 0
0, 0
0, 0
0, 0
0, 0
0, 0
0, 0
0, 0
0, 0
0, 0
0, 0
0, 0
0, 0
0, 0
0, 0
0, 0
0, 0
0, 0
0, 0
0, 0
0, 0
0, 0
0, 0
0, 0
0, 0
0, 0
0, 0
0, 0
0, 0
0, 0
0, 0
0, 0
0, 0
0, 0
0, 0
0, 0
0, 0
0, 0
0, 0
0, 0
0, 0
0, 0
0, 0
0, 0
0, 0
0, 0
0, 0
0, 0
0, 0
0, 0
0, 0
0, 0
0, 0
0, 0
0, 0
0, 0
0, 0
0, 0
0, 0
0, 0
0, 0
0, 0
0, 0
0, 0
0, 0
0, 0
0, 0
0, 0
0, 0
0, 0
0, 0
0, 0
0, 0
0, 0
0, 0
0, 0
0, 0
0, 0
0, 0
0, 0
#ENDOFDATA     end of spectrum data

File: ps__0852shot_2030.msa
#FORMAT      : EMSA/MAS spectral data file
#VERSION     : TC202v2.0 PIXL
#TITLE       : N/A
#DATE        :       Date in the format DD-MMM-YYYY, for example 07-JUL-2010
#TIME        :             The time of day at which the spectrum was recorded, in 24-hour format
#OWNER       : PIXL Flight Model       (PIXL will use this to indicate which instrument took the data.)
#NPOINTS     : 4096     Number of data points in the spectrum (This can be zero for configuration only files)
#NCOLUMNS    : 2     Number of data columns in the spectrum (This can be zero for configuration only files)
#XUNITS      : eV
#YUNITS      : COUNTS
#DATATYPE    : YY
#XPERCHAN    : 7.862, 7.881   eV per channel (separate by commas if more than one detector)
#OFFSET      : 18.5, -22.4         eV of first channel  (separate by commas if more than one detector
#SIGNALTYPE  : XRF
#YP_TEMP     : 2.3
#LIVETIME    : 8.57383, 8.55954   seconds (separate by commas if more than one detector)
#REALTIME    : 10, 10.0   seconds (separate by commas if more than one detector)
#SPECTRUM    : start of spectrum data
0, 0
0, 0
0, 0
0, 0
0, 0
0, 0
0, 0
0, 0
2, 1
2, 1
3, 3
33, 31
58, 48
7, 9
7, 3
100, 73
438, 327
104, 100
7, 5
4, 0
29, 36
142, 139
47, 51
20, 12
49, 40
110, 37
73, 25
15, 22
11, 4
3, 2
7, 2
5, 5
5, 0
16, 15
16, 19
5, 4
5, 2
13, 6
9, 4
11, 6
3, 8
10, 29
13, 18
12, 10
8, 4
17, 7
20, 10
8, 6
8, 9
12, 25
51, 15
73, 9
16, 11
49, 52
68, 57
21, 31
25, 40
460, 516
2238, 2023
1662, 1177
228, 123
25, 12
21, 20
99, 92
323, 279
227, 175
29, 23
10, 10
31, 18
28, 10
4, 2
4, 7
5, 6
8, 2
9, 5
8, 3
10, 1
7, 1
2, 8
3, 5
5, 3
2, 5
3, 2
6, 2
2, 1
3, 4
3, 6
3, 3
2, 5
6, 3
4, 1
4, 3
3, 3
4, 1
5, 1
1, 3
2, 2
2, 2
4, 3
1, 2
3, 5
2, 3
2, 2
2, 0
2, 3
1, 1
4, 3
3, 5
5, 1
3, 4
1, 2
6, 3
4, 4
3, 2
0, 2
4, 1
5, 3
1, 1
6, 0
1, 1
2, 1
3, 2
2, 2
2, 3
1, 0
5, 0
1, 1
0, 0
1, 0
0, 1
2, 1
1, 0
0, 2
1, 1
0, 1
0, 2
0, 2
1, 0
2, 1
2, 0
3, 0
0, 0
1, 2
1, 1
0, 1
1, 1
1, 1
0, 0
1, 0
0, 0
1, 0
1, 2
0, 1
0, 2
2, 0
0, 0
0, 0
0, 0
0, 0
0, 0
0, 0
0, 0
1, 0
0, 1
1, 1
0, 0
1, 1
0, 0
0, 0
2, 0
0, 0
0, 0
0, 0
0, 0
0, 0
0, 1
1, 0
0, 0
1, 0
0, 0
0, 0
0, 0
0, 0
0, 0
0, 1
0, 1
0, 0
0, 0
0, 0
0, 0
0, 0
0, 0
0, 0
0, 0
0, 0
0, 0
0, 0
0, 0
0, 0
0, 0
0, 0
0, 0
0, 0
0, 0
1, 0
0, 0
0, 0
0, 0
0, 0
0, 0
0, 0
0, 0
0, 0
0, 0
0, 0
0, 0
0, 0
0, 0
0, 0
0, 0
0, 0
0, 0
0, 0
0, 0
0, 0
0, 0
0, 0
0, 0
0, 0
0, 0
0, 0
0, 0
0, 0
0, 0
0, 0
0, 0
0, 0
0, 0
0, 0
0, 0
0, 0
0, 0
0, 0
0, 0
0, 0
0, 0
0, 0
0, 0
0, 0
0, 0
0, 0
0, 0
0, 0
0, 0
0, 0
0, 0
0, 0
0, 0
0, 0
0, 0
0, 0
0, 0
0, 0
0, 0
0, 0
0, 0
0, 0
0, 0
0, 0
0, 0
0, 0
0, 0
0, 0
0, 0
0, 0
0, 0
0, 0
0, 0
0, 0
0, 0
0, 0
0, 0
0, 0
0, 0
0, 0
0, 0
0, 0
0, 0
0, 0
0, 0
0, 0
0, 0
0, 0
0, 0
#ENDOFDATA     end of spectrum data

File: ps__0852shot_2031.msa
#FORMAT      : EMSA/MAS spectral data file
#VERSION     : TC202v2.0 PIXL
#TITLE       : N/A
#DATE        :       Date in the format DD-MMM-YYYY, for example 07-JUL-2010
#TIME        :             The time of day at which the spectrum was recorded, in 24-hour format
#OWNER       : PIXL Flight Model       (PIXL will use this to indicate which instrument took the data.)
#NPOINTS     : 4096     Number of data points in the spectrum (This can be zero for configuration only files)
#NCOLUMNS    : 2     Number of data columns in the spectrum (This can be zero for configuration only files)
#XUNITS      : eV
#YUNITS      : COUNTS
#DATATYPE    : YY
#XPERCHAN    : 7.862, 7.881   eV per channel (separate by commas if more than one detector)
#OFFSET      : 18.5, -22.4         eV of first channel  (separate by commas if more than one detector
#SIGNALTYPE  : XRF
#YP_TEMP     : 2.556
#LIVETIME    : 8.55665, 8.56448   seconds (separate by commas if more than one detector)
#REALTIME    : 10, 10.0   seconds (separate by commas if more than one detector)
#SPECTRUM    : start of spectrum data
0, 0
0, 0
0, 0
0, 0
0, 0
0, 0
0, 0
0, 0
0, 0
1, 1
4, 2
38, 52
68, 64
6, 6
3, 3
83, 93
414, 395
102, 116
5, 4
2, 2
1, 0
8, 6
5, 5
7, 5
27, 24
78, 27
77, 17
44, 13
6, 2
1, 3
2, 2
6, 0
10, 2
7, 11
13, 16
5, 5
0, 3
0, 2
1, 3
3, 4
5, 7
11, 12
7, 11
12, 12
5, 5
34, 15
30, 6
10, 6
7, 14
16, 40
61, 29
56, 7
23, 14
33, 54
69, 101
17, 30
26, 40
455, 573
2131, 2283
1475, 1526
211, 137
17, 16
27, 29
123, 126
355, 328
240, 209
39, 20
13, 12
30, 18
31, 7
11, 5
2, 1
1, 5
7, 3
5, 5
3, 5
5, 4
4, 4
7, 3
4, 5
2, 2
4, 4
6, 3
1, 6
3, 3
2, 1
4, 4
3, 5
5, 5
3, 3
4, 3
3, 1
4, 0
2, 3
3, 3
3, 1
4, 6
5, 0
3, 3
5, 8
0, 2
1, 1
2, 0
1, 3
4, 1
4, 1
2, 3
1, 6
5, 2
1, 2
1, 0
1, 1
1, 7
2, 2
1, 4
3, 6
5, 6
1, 5
1, 1
0, 1
0, 2
1, 1
0, 3
0, 6
1, 1
1, 4
0, 1
0, 1
2, 1
0, 0
1, 1
0, 0
2, 1
1, 1
1, 1
0, 1
0, 0
1, 2
0, 1
3, 0
1, 1
0, 1
2, 0
1, 1
1, 2
0, 0
0, 1
0, 0
0, 0
0, 1
0, 2
0, 0
0, 0
1, 0
0, 0
0, 0
0, 0
0, 0
0, 0
0, 0
0, 1
0, 0
0, 0
0, 1
0, 0
2, 0
0, 0
0, 1
0, 0
0, 0
0, 1
0, 1
0, 0
0, 1
0, 0
0, 0
0, 0
2, 0
1, 0
1, 0
0, 0
0, 0
0, 0
0, 1
0, 0
0, 0
0, 0
0, 1
0, 0
0, 0
0, 0
0, 0
0, 0
0, 1
0, 0
0, 1
0, 0
0, 0
0, 0
0, 0
0, 0
0, 0
0, 0
0, 0
0, 0
0, 0
0, 0
0, 1
0, 0
0, 0
0, 0
0, 0
0, 0
0, 0
0, 0
0, 0
0, 0
0, 0
0, 0
0, 0
0, 0
0, 0
0, 0
0, 0
0, 0
0, 0
0, 0
0, 0
0, 0
0, 0
0, 0
0, 0
0, 0
0, 0
0, 0
0, 0
0, 0
0, 0
0, 0
0, 0
0, 0
0, 0
0, 0
0, 0
0, 0
0, 0
0, 0
0, 0
0, 0
0, 0
0, 0
0, 0
0, 0
0, 0
0, 0
0, 0
0, 0
0, 0
0, 0
0, 0
0, 0
0, 0
0, 0
0, 0
0, 0
0, 0
0, 0
0, 0
0, 0
0, 0
0, 0
0, 0
0, 0
0, 0
0, 0
0, 0
0, 0
0, 0
0, 0
0, 0
0, 0
0, 0
0, 0
0, 0
0, 0
0, 0
0, 0
0, 0
0, 0
0, 0
0, 0
0, 0
0, 0
0, 0
#ENDOFDATA     end of spectrum data

File: ps__0852shot_2032.msa
#FORMAT      : EMSA/MAS spectral data file
#VERSION     : TC202v2.0 PIXL
#TITLE       : N/A
#DATE        :       Date in the format DD-MMM-YYYY, for example 07-JUL-2010
#TIME        :             The time of day at which the spectrum was recorded, in 24-hour format
#OWNER       : PIXL Flight Model       (PIXL will use this to indicate which instrument took the data.)
#NPOINTS     : 4096     Number of data points in the spectrum (This can be zero for configuration only files)
#NCOLUMNS    : 2     Number of data columns in the spectrum (This can be zero for configuration only files)
#XUNITS      : eV
#YUNITS      : COUNTS
#DATATYPE    : YY
#XPERCHAN    : 7.862, 7.881   eV per channel (separate by commas if more than one detector)
#OFFSET      : 18.5, -22.4         eV of first channel  (separate by commas if more than one detector
#SIGNALTYPE  : XRF
#YP_TEMP     : 2.171
#LIVETIME    : 8.58652, 8.5777   seconds (separate by commas if more than one detector)
#REALTIME    : 10, 10.0   seconds (separate by commas if more than one detector)
#SPECTRUM    : start of spectrum data
0, 0
0, 0
0, 0
0, 0
0, 0
0, 0
0, 0
0, 1
0, 1
1, 1
3, 5
53, 51
59, 64
9, 5
5, 11
102, 81
439, 413
126, 87
4, 5
1, 3
4, 4
6, 8
5, 5
18, 10
41, 36
43, 36
167, 19
206, 13
28, 7
2, 2
1, 1
5, 3
11, 3
11, 9
15, 15
5, 1
0, 2
9, 5
4, 2
6, 2
17, 4
7, 11
7, 16
11, 11
7, 5
8, 3
10, 3
7, 5
9, 11
13, 23
9, 20
15, 4
51, 10
86, 51
102, 55
19, 21
29, 42
479, 598
2203, 2268
1569, 1333
206, 145
21, 17
27, 25
157, 124
368, 341
250, 191
30, 27
10, 21
17, 14
8, 10
8, 1
1, 5
4, 1
2, 6
5, 5
1, 8
4, 6
4, 5
10, 4
8, 3
6, 3
4, 5
3, 6
5, 2
7, 4
2, 4
6, 4
3, 4
3, 2
4, 5
1, 4
3, 2
3, 5
4, 8
4, 2
4, 3
3, 1
2, 4
4, 4
0, 2
2, 1
3, 0
2, 4
1, 3
1, 3
10, 2
3, 1
5, 2
1, 2
3, 1
2, 5
1, 1
3, 0
2, 3
0, 2
2, 1
2, 6
8, 3
5, 1
0, 2
0, 1
3, 4
1, 1
1, 0
2, 1
1, 1
1, 0
0, 2
1, 1
3, 2
3, 1
0, 0
0, 1
0, 1
3, 1
1, 1
1, 1
0, 1
1, 0
1, 1
1, 0
0, 1
2, 0
0, 2
0, 0
0, 1
0, 0
3, 1
0, 0
0, 0
0, 0
0, 1
1, 1
0, 0
1, 1
1, 0
0, 0
0, 0
0, 1
0, 0
0, 0
0, 1
0, 0
0, 0
0, 3
2, 0
0, 0
0, 0
0, 1
0, 0
0, 1
0, 1
0, 1
1, 0
0, 0
0, 1
1, 0
0, 1
0, 0
0, 0
0, 0
0, 0
1, 0
0, 0
1, 0
0, 0
0, 0
0, 0
0, 0
0, 0
0, 0
0, 0
0, 0
0, 0
0, 0
0, 0
0, 0
0, 0
0, 0
0, 0
0, 0
0, 0
0, 1
0, 0
0, 0
0, 0
0, 0
0, 0
0, 0
0, 0
0, 0
0, 0
0, 0
0, 0
0, 0
0, 0
0, 0
0, 0
0, 0
0, 0
0, 0
0, 0
0, 0
0, 0
0, 0
0, 0
0, 0
0, 0
0, 0
0, 0
0, 0
0, 0
0, 0
0, 0
0, 0
0, 0
0, 0
0, 0
0, 0
0, 0
0, 0
0, 0
0, 0
0, 0
0, 0
0, 0
0, 0
0, 0
0, 0
0, 0
0, 0
0, 0
0, 0
0, 0
0, 0
0, 0
0, 0
0, 0
0, 0
0, 0
0, 0
0, 0
0, 0
0, 0
0, 0
0, 0
0, 0
0, 0
0, 0
0, 0
0, 0
0, 0
0, 0
0, 0
0, 0
0, 0
0, 0
0, 0
0, 0
0, 0
0, 0
0, 0
0, 0
0, 0
0, 0
0, 0
0, 0
0, 0
0, 0
0, 0
0, 0
0, 0
0, 0
0, 0
#ENDOFDATA     end of spectrum data

File: ps__0852shot_2033.msa
#FORMAT      : EMSA/MAS spectral data file
#VERSION     : TC202v2.0 PIXL
#TITLE       : N/A
#DATE        :       Date in the format DD-MMM-YYYY, for example 07-JUL-2010
#TIME        :             The time of day at which the spectrum was recorded, in 24-hour format
#OWNER       : PIXL Flight Model       (PIXL will use this to indicate which instrument took the data.)
#NPOINTS     : 4096     Number of data points in the spectrum (This can be zero for configuration only files)
#NCOLUMNS    : 2     Number of data columns in the spectrum (This can be zero for configuration only files)
#XUNITS      : eV
#YUNITS      : COUNTS
#DATATYPE    : YY
#XPERCHAN    : 7.862, 7.881   eV per channel (separate by commas if more than one detector)
#OFFSET      : 18.5, -22.4         eV of first channel  (separate by commas if more than one detector
#SIGNALTYPE  : XRF
#YP_TEMP     : 2.524
#LIVETIME    : 8.59691, 8.56502   seconds (separate by commas if more than one detector)
#REALTIME    : 10, 10.0   seconds (separate by commas if more than one detector)
#SPECTRUM    : start of spectrum data
0, 0
0, 0
0, 0
0, 0
0, 0
0, 0
0, 0
0, 0
0, 2
2, 0
5, 3
56, 36
68, 62
1, 1
4, 6
102, 111
446, 378
107, 93
6, 7
2, 1
1, 1
3, 6
5, 5
12, 17
37, 35
51, 43
117, 17
142, 18
17, 3
1, 2
1, 3
4, 0
0, 3
11, 11
10, 12
2, 6
3, 2
5, 2
9, 5
7, 2
21, 6
16, 6
13, 15
5, 14
8, 5
3, 5
9, 6
5, 7
7, 6
18, 22
20, 6
18, 6
58, 14
99, 55
70, 43
29, 14
38, 32
458, 600
2119, 2300
1658, 1373
200, 142
15, 17
24, 24
92, 126
307, 356
229, 190
44, 23
7, 17
15, 17
6, 11
5, 4
5, 4
4, 2
7, 4
7, 6
9, 6
6, 1
7, 9
17, 8
14, 2
7, 3
3, 7
2, 5
3, 6
4, 3
2, 1
2, 2
3, 1
4, 5
1, 1
2, 4
5, 4
5, 5
1, 9
2, 10
6, 7
2, 2
6, 5
5, 4
5, 1
2, 5
3, 2
2, 3
1, 2
3, 2
5, 1
2, 1
1, 3
1, 4
1, 3
0, 1
3, 0
0, 4
2, 0
3, 3
2, 1
4, 6
7, 7
3, 3
3, 1
5, 1
3, 1
3, 3
3, 1
1, 0
2, 0
1, 2
1, 0
1, 2
2, 1
0, 0
3, 1
0, 1
2, 0
1, 1
2, 0
1, 1
3, 0
3, 0
0, 1
0, 1
1, 0
0, 0
1, 0
1, 0
2, 1
1, 1
0, 0
0, 0
1, 0
0, 1
1, 1
2, 1
0, 0
0, 0
0, 0
1, 0
0, 0
0, 0
0, 0
0, 0
1, 0
0, 1
0, 0
0, 0
0, 0
1, 0
0, 0
0, 0
2, 1
1, 0
0, 0
1, 0
1, 0
1, 0
0, 0
0, 0
0, 1
0, 0
0, 1
1, 0
1, 0
0, 0
0, 0
0, 1
2, 0
0, 0
0, 0
1, 0
0, 1
0, 0
0, 0
0, 0
0, 0
0, 0
0, 0
0, 0
0, 0
0, 0
0, 0
0, 0
0, 0
0, 0
0, 0
0, 0
0, 0
0, 0
0, 0
0, 0
0, 0
0, 0
0, 0
0, 0
0, 0
0, 0
0, 0
0, 0
0, 0
0, 0
0, 0
0, 0
0, 0
0, 0
0, 0
0, 0
0, 0
0, 0
0, 0
0, 0
0, 0
0, 0
0, 0
0, 0
0, 0
0, 0
0, 0
0, 0
0, 0
0, 0
0, 0
0, 0
0, 0
0, 0
0, 0
0, 0
0, 0
0, 0
0, 0
0, 0
0, 0
0, 0
0, 0
0, 0
0, 0
0, 0
0, 0
0, 0
0, 0
0, 0
0, 0
0, 0
0, 0
0, 0
0, 0
0, 0
0, 0
0, 0
0, 0
0, 0
0, 0
0, 0
0, 0
0, 0
0, 0
0, 0
0, 0
0, 0
0, 0
0, 0
0, 0
0, 0
0, 0
0, 0
0, 0
0, 0
0, 0
0, 0
0, 0
0, 0
0, 0
0, 0
0, 0
0, 0
0, 0
#ENDOFDATA     end of spectrum data

File: ps__0852shot_2034.msa
#FORMAT      : EMSA/MAS spectral data file
#VERSION     : TC202v2.0 PIXL
#TITLE       : N/A
#DATE        :       Date in the format DD-MMM-YYYY, for example 07-JUL-2010
#TIME        :             The time of day at which the spectrum was recorded, in 24-hour format
#OWNER       : PIXL Flight Model       (PIXL will use this to indicate which instrument took the data.)
#NPOINTS     : 4096     Number of data points in the spectrum (This can be zero for configuration only files)
#NCOLUMNS    : 2     Number of data columns in the spectrum (This can be zero for configuration only files)
#XUNITS      : eV
#YUNITS      : COUNTS
#DATATYPE    : YY
#XPERCHAN    : 7.862, 7.881   eV per channel (separate by commas if more than one detector)
#OFFSET      : 18.5, -22.4         eV of first channel  (separate by commas if more than one detector
#SIGNALTYPE  : XRF
#YP_TEMP     : 2.46
#LIVETIME    : 8.5934, 8.60051   seconds (separate by commas if more than one detector)
#REALTIME    : 10, 10.0   seconds (separate by commas if more than one detector)
#SPECTRUM    : start of spectrum data
0, 0
0, 0
0, 0
0, 0
0, 0
0, 0
0, 0
0, 0
1, 0
1, 4
3, 0
50, 27
58, 46
12, 10
5, 6
86, 98
408, 380
105, 76
10, 13
6, 4
7, 2
1, 3
5, 2
14, 11
43, 49
54, 49
31, 21
19, 14
8, 7
0, 0
1, 4
1, 4
1, 11
15, 47
24, 29
6, 0
3, 3
4, 4
7, 11
8, 5
6, 6
14, 7
17, 16
8, 9
8, 5
6, 9
6, 6
6, 15
10, 10
18, 15
19, 12
30, 10
54, 15
73, 45
66, 63
26, 18
28, 45
448, 584
2025, 2258
1496, 1418
179, 159
11, 21
24, 30
101, 118
315, 358
215, 227
45, 27
8, 4
10, 15
4, 11
6, 7
1, 9
2, 5
1, 7
5, 4
3, 6
2, 6
4, 10
7, 8
4, 7
2, 6
8, 4
11, 2
7, 4
4, 1
2, 3
4, 4
4, 6
4, 3
2, 0
2, 8
3, 2
2, 5
4, 11
3, 6
3, 5
1, 2
7, 3
3, 2
3, 2
2, 1
3, 2
5, 2
1, 1
2, 3
2, 0
2, 3
1, 3
1, 1
1, 2
3, 1
2, 1
3, 3
4, 0
4, 0
4, 3
4, 3
3, 4
1, 2
6, 1
4, 0
5, 3
1, 2
1, 1
2, 1
1, 0
1, 2
0, 4
1, 0
1, 1
2, 0
1, 2
0, 3
2, 1
2, 2
0, 0
0, 3
1, 0
0, 1
1, 1
0, 1
0, 0
0, 2
0, 0
1, 2
0, 0
0, 0
0, 0
1, 1
1, 0
0, 0
0, 0
1, 0
0, 1
0, 1
0, 2
0, 0
0, 0
0, 1
0, 0
0, 0
0, 1
0, 0
0, 0
0, 0
2, 0
0, 0
0, 0
0, 0
1, 0
0, 1
0, 0
0, 0
0, 1
0, 0
0, 0
0, 0
1, 1
0, 0
0, 1
0, 0
0, 0
0, 0
1, 0
0, 0
0, 0
0, 0
1, 0
0, 0
0, 0
0, 0
0, 0
0, 0
0, 0
0, 0
0, 0
0, 0
0, 0
0, 0
0, 0
0, 0
0, 0
0, 0
0, 0
0, 0
0, 0
0, 0
0, 0
0, 0
0, 0
0, 0
0, 0
0, 1
0, 0
0, 0
0, 0
0, 0
0, 0
0, 0
0, 0
0, 0
0, 0
0, 0
0, 0
0, 0
0, 0
0, 0
0, 0
0, 0
0, 0
0, 0
0, 0
0, 0
0, 0
0, 0
0, 0
0, 0
0, 0
0, 0
0, 0
0, 0
0, 0
0, 0
0, 0
0, 0
0, 0
0, 0
0, 0
0, 0
0, 0
0, 0
0, 0
0, 0
0, 0
0, 0
0, 0
0, 0
0, 0
0, 0
0, 0
0, 0
0, 0
0, 0
0, 0
0, 0
0, 0
0, 0
0, 0
0, 0
0, 0
0, 0
0, 0
0, 0
0, 0
0, 0
0, 0
0, 0
0, 0
0, 0
0, 0
0, 0
0, 0
0, 0
0, 0
0, 0
0, 0
0, 0
0, 0
0, 0
0, 0
0, 0
0, 0
0, 0
0, 0
#ENDOFDATA     end of spectrum data

File: ps__0852shot_2035.msa
#FORMAT      : EMSA/MAS spectral data file
#VERSION     : TC202v2.0 PIXL
#TITLE       : N/A
#DATE        :       Date in the format DD-MMM-YYYY, for example 07-JUL-2010
#TIME        :             The time of day at which the spectrum was recorded, in 24-hour format
#OWNER       : PIXL Flight Model       (PIXL will use this to indicate which instrument took the data.)
#NPOINTS     : 4096     Number of data points in the spectrum (This can be zero for configuration only files)
#NCOLUMNS    : 2     Number of data columns in the spectrum (This can be zero for configuration only files)
#XUNITS      : eV
#YUNITS      : COUNTS
#DATATYPE    : YY
#XPERCHAN    : 7.862, 7.881   eV per channel (separate by commas if more than one detector)
#OFFSET      : 18.5, -22.4         eV of first channel  (separate by commas if more than one detector
#SIGNALTYPE  : XRF
#YP_TEMP     : 2.3
#LIVETIME    : 8.55599, 8.55957   seconds (separate by commas if more than one detector)
#REALTIME    : 10, 10.0   seconds (separate by commas if more than one detector)
#SPECTRUM    : start of spectrum data
0, 0
0, 0
0, 0
0, 0
0, 0
0, 0
0, 0
0, 0
1, 1
0, 2
2, 2
47, 37
58, 44
8, 6
3, 3
104, 85
469, 392
109, 85
13, 9
4, 1
2, 2
1, 6
3, 2
13, 10
45, 63
52, 34
36, 26
22, 8
5, 3
1, 3
2, 1
3, 4
1, 14
11, 35
19, 16
6, 5
6, 6
1, 4
4, 13
7, 9
10, 1
10, 11
12, 11
9, 14
4, 6
7, 9
6, 9
3, 13
1, 17
11, 30
22, 39
69, 20
118, 10
77, 40
54, 42
28, 19
37, 34
518, 595
2162, 2161
1641, 1304
212, 137
21, 18
18, 35
94, 120
367, 343
244, 184
38, 21
6, 10
15, 13
11, 4
6, 3
6, 1
10, 2
8, 1
11, 7
7, 2
2, 4
2, 5
5, 1
11, 6
5, 6
2, 14
11, 5
7, 2
7, 2
5, 6
5, 3
6, 2
2, 4
2, 5
8, 7
3, 5
3, 7
2, 4
2, 3
4, 4
1, 5
5, 2
1, 4
5, 3
0, 4
1, 2
3, 2
5, 4
8, 5
5, 2
2, 0
2, 1
2, 2
3, 2
4, 2
1, 2
1, 2
2, 1
3, 2
2, 1
1, 3
4, 1
2, 4
2, 1
5, 1
1, 2
3, 2
2, 2
0, 3
1, 1
3, 1
2, 3
0, 0
0, 0
1, 1
1, 3
1, 0
0, 1
3, 1
1, 0
2, 3
2, 0
1, 0
0, 2
0, 2
0, 1
1, 0
0, 0
0, 1
0, 0
1, 0
0, 0
2, 0
1, 0
1, 0
1, 0
1, 2
0, 0
2, 0
0, 2
0, 0
0, 1
0, 2
0, 0
0, 1
0, 1
1, 0
0, 0
0, 0
0, 0
1, 0
1, 0
0, 0
0, 1
1, 1
0, 0
0, 0
0, 1
0, 0
0, 0
0, 1
0, 0
0, 0
0, 0
1, 0
0, 0
0, 0
0, 0
0, 0
0, 0
0, 0
0, 0
0, 0
0, 0
1, 0
0, 0
0, 0
0, 0
0, 0
0, 0
0, 0
0, 0
1, 0
0, 0
0, 0
0, 0
0, 0
0, 0
0, 0
0, 0
0, 0
0, 0
0, 0
0, 0
0, 0
0, 0
0, 1
0, 0
0, 0
0, 0
0, 0
0, 0
0, 0
0, 0
0, 0
0, 0
0, 0
0, 0
0, 0
0, 0
0, 0
0, 0
0, 0
0, 0
0, 0
0, 0
0, 0
0, 0
0, 0
0, 0
0, 0
0, 0
0, 0
0, 0
0, 0
0, 0
0, 0
0, 0
0, 0
0, 0
0, 0
0, 0
0, 0
0, 0
0, 0
0, 0
0, 0
0, 0
0, 0
0, 0
0, 0
0, 0
0, 0
0, 0
0, 0
0, 0
0, 0
0, 0
0, 0
0, 0
0, 0
0, 0
0, 0
0, 0
0, 0
0, 0
0, 0
0, 0
0, 0
0, 0
0, 0
0, 0
0, 0
0, 0
0, 0
0, 0
0, 0
0, 0
0, 0
0, 0
0, 0
0, 0
0, 0
0, 0
0, 0
0, 0
0, 0
0, 0
#ENDOFDATA     end of spectrum data