Folder: data-repository/host_upload/06-09-2024/ps_0852/dump3 (part 58)

File: ps__0852shot_2519.msa
#FORMAT      : EMSA/MAS spectral data file
#VERSION     : TC202v2.0 PIXL
#TITLE       : N/A
#DATE        :       Date in the format DD-MMM-YYYY, for example 07-JUL-2010
#TIME        :             The time of day at which the spectrum was recorded, in 24-hour format
#OWNER       : PIXL Flight Model       (PIXL will use this to indicate which instrument took the data.)
#NPOINTS     : 4096     Number of data points in the spectrum (This can be zero for configuration only files)
#NCOLUMNS    : 2     Number of data columns in the spectrum (This can be zero for configuration only files)
#XUNITS      : eV
#YUNITS      : COUNTS
#DATATYPE    : YY
#XPERCHAN    : 7.862, 7.881   eV per channel (separate by commas if more than one detector)
#OFFSET      : 18.5, -22.4         eV of first channel  (separate by commas if more than one detector
#SIGNALTYPE  : XRF
#YP_TEMP     : 2.364
#LIVETIME    : 8.57166, 8.5598   seconds (separate by commas if more than one detector)
#REALTIME    : 10, 10.0   seconds (separate by commas if more than one detector)
#SPECTRUM    : start of spectrum data
0, 0
0, 0
0, 0
0, 0
0, 0
0, 0
0, 0
0, 0
2, 2
0, 0
4, 1
57, 54
55, 55
7, 5
6, 6
71, 76
354, 401
103, 84
5, 8
4, 1
39, 42
205, 267
83, 96
30, 20
95, 44
100, 37
32, 16
15, 11
6, 4
7, 3
5, 1
4, 3
5, 2
14, 33
33, 25
6, 8
8, 4
10, 11
43, 5
36, 4
5, 5
10, 19
11, 15
5, 12
4, 4
9, 6
2, 6
4, 7
6, 13
16, 19
23, 20
7, 30
10, 42
55, 56
74, 58
21, 11
33, 36
485, 556
2018, 2256
1417, 1429
161, 141
13, 17
18, 30
99, 138
322, 336
224, 207
34, 23
8, 6
14, 11
17, 10
3, 3
2, 1
3, 3
2, 8
4, 11
6, 10
7, 7
11, 5
3, 11
6, 4
4, 3
2, 4
6, 5
3, 10
5, 11
4, 7
7, 2
9, 6
3, 3
4, 1
5, 8
3, 7
7, 6
6, 4
5, 4
3, 3
4, 0
7, 4
1, 3
1, 2
4, 3
3, 2
2, 4
1, 4
2, 0
3, 3
2, 2
2, 2
3, 3
3, 2
3, 3
1, 4
1, 4
1, 1
0, 0
3, 5
2, 7
5, 3
2, 2
1, 1
2, 3
1, 4
4, 1
1, 0
1, 0
2, 2
1, 4
2, 2
0, 2
1, 1
2, 2
0, 3
1, 2
1, 0
1, 2
0, 0
1, 1
0, 1
2, 1
1, 0
0, 1
0, 1
2, 0
2, 1
0, 0
0, 0
1, 0
0, 1
0, 1
1, 0
0, 0
0, 1
0, 0
0, 1
1, 0
0, 0
0, 0
0, 1
0, 0
1, 0
0, 0
0, 1
0, 0
0, 0
0, 1
0, 0
0, 0
0, 0
1, 0
0, 1
0, 1
0, 0
0, 0
0, 0
0, 0
0, 0
0, 0
0, 2
0, 0
0, 0
0, 0
0, 0
0, 0
0, 0
0, 0
0, 0
0, 0
1, 0
0, 0
0, 0
0, 0
0, 0
1, 0
0, 0
0, 0
0, 0
0, 0
0, 0
0, 0
0, 0
0, 0
0, 0
1, 0
0, 0
1, 1
0, 0
0, 0
0, 0
0, 0
0, 0
0, 0
0, 0
0, 0
0, 0
0, 0
0, 0
0, 0
0, 0
0, 0
0, 0
0, 0
0, 0
0, 0
0, 0
0, 0
0, 0
0, 0
0, 0
0, 0
0, 0
0, 0
0, 0
0, 0
0, 0
0, 0
0, 0
0, 0
0, 0
0, 0
0, 0
0, 0
0, 0
0, 0
0, 0
0, 0
0, 0
0, 0
0, 0
0, 0
0, 0
0, 0
0, 0
0, 0
0, 0
0, 0
0, 0
0, 0
0, 0
0, 0
0, 0
0, 0
0, 0
0, 0
0, 0
0, 0
0, 0
0, 0
0, 0
0, 0
0, 0
0, 0
0, 0
0, 0
0, 0
0, 0
0, 0
0, 0
0, 0
0, 0
0, 0
0, 0
0, 0
0, 0
0, 0
0, 0
0, 0
0, 0
0, 0
0, 0
0, 0
0, 0
0, 0
0, 0
0, 0
#ENDOFDATA     end of spectrum data

File: ps__0852shot_2520.msa
#FORMAT      : EMSA/MAS spectral data file
#VERSION     : TC202v2.0 PIXL
#TITLE       : N/A
#DATE        :       Date in the format DD-MMM-YYYY, for example 07-JUL-2010
#TIME        :             The time of day at which the spectrum was recorded, in 24-hour format
#OWNER       : PIXL Flight Model       (PIXL will use this to indicate which instrument took the data.)
#NPOINTS     : 4096     Number of data points in the spectrum (This can be zero for configuration only files)
#NCOLUMNS    : 2     Number of data columns in the spectrum (This can be zero for configuration only files)
#XUNITS      : eV
#YUNITS      : COUNTS
#DATATYPE    : YY
#XPERCHAN    : 7.862, 7.881   eV per channel (separate by commas if more than one detector)
#OFFSET      : 18.5, -22.4         eV of first channel  (separate by commas if more than one detector
#SIGNALTYPE  : XRF
#YP_TEMP     : 2.043
#LIVETIME    : 8.55388, 8.55976   seconds (separate by commas if more than one detector)
#REALTIME    : 10, 10.0   seconds (separate by commas if more than one detector)
#SPECTRUM    : start of spectrum data
0, 0
0, 0
0, 0
0, 0
0, 0
0, 0
0, 0
0, 0
1, 1
2, 2
2, 1
46, 40
40, 41
3, 9
7, 5
75, 95
370, 398
90, 98
7, 10
2, 4
18, 25
134, 138
60, 41
22, 22
278, 39
334, 40
44, 22
18, 8
7, 5
4, 1
4, 6
4, 3
3, 5
33, 40
38, 56
14, 9
13, 11
17, 14
22, 9
13, 8
5, 10
10, 15
5, 11
11, 10
6, 2
7, 4
6, 11
8, 5
7, 14
10, 20
22, 18
12, 13
42, 20
132, 63
104, 70
28, 20
26, 32
419, 554
2071, 2124
1556, 1341
179, 134
24, 14
31, 12
93, 85
329, 326
224, 177
33, 24
6, 6
13, 12
6, 8
6, 2
0, 3
3, 5
6, 6
5, 6
12, 16
13, 6
4, 11
0, 1
3, 4
5, 8
3, 3
3, 3
1, 3
5, 2
2, 2
10, 2
5, 7
1, 4
1, 3
0, 4
3, 3
3, 3
1, 2
3, 4
0, 3
2, 3
3, 4
2, 3
6, 1
3, 5
5, 2
2, 1
3, 3
2, 2
4, 0
5, 4
9, 3
4, 5
2, 1
1, 2
5, 4
1, 2
5, 4
0, 1
2, 2
1, 3
2, 3
2, 1
2, 2
0, 2
0, 5
1, 6
1, 2
0, 1
0, 0
0, 2
0, 3
1, 2
0, 1
1, 1
0, 2
0, 2
0, 1
0, 1
0, 1
1, 0
0, 0
1, 0
1, 0
1, 2
0, 1
0, 0
1, 3
1, 1
1, 0
0, 0
0, 0
0, 1
1, 1
0, 0
0, 0
1, 1
0, 0
0, 0
0, 2
0, 1
0, 0
0, 0
1, 0
0, 0
0, 0
0, 0
0, 0
0, 0
0, 0
0, 0
0, 0
1, 0
2, 0
0, 0
1, 1
0, 0
1, 0
0, 1
0, 0
0, 1
0, 0
0, 0
0, 0
0, 0
0, 0
0, 0
0, 0
0, 0
0, 0
1, 0
0, 0
0, 0
0, 0
0, 0
0, 0
0, 0
0, 0
0, 0
0, 0
0, 1
1, 0
0, 0
0, 0
0, 0
0, 0
0, 0
0, 0
0, 0
0, 0
0, 0
0, 0
1, 0
0, 0
0, 0
0, 1
0, 0
0, 0
0, 0
0, 0
0, 0
0, 0
0, 0
0, 0
0, 0
0, 0
0, 0
0, 0
0, 0
0, 0
0, 0
0, 0
0, 0
0, 0
0, 0
0, 0
0, 0
0, 0
0, 0
0, 0
0, 0
0, 0
0, 0
0, 0
0, 0
0, 0
0, 0
0, 0
0, 0
0, 0
0, 0
0, 0
0, 0
0, 0
0, 0
0, 0
0, 0
0, 0
0, 0
0, 0
0, 0
0, 0
0, 0
0, 0
0, 0
0, 0
0, 0
0, 0
0, 0
0, 0
0, 0
0, 0
0, 0
0, 0
0, 0
0, 0
0, 0
0, 0
0, 0
0, 0
0, 0
0, 0
0, 0
0, 0
0, 0
0, 0
0, 0
0, 0
0, 0
0, 0
0, 0
0, 0
0, 0
0, 0
0, 0
0, 0
0, 0
0, 0
#ENDOFDATA     end of spectrum data

File: ps__0852shot_2521.msa
#FORMAT      : EMSA/MAS spectral data file
#VERSION     : TC202v2.0 PIXL
#TITLE       : N/A
#DATE        :       Date in the format DD-MMM-YYYY, for example 07-JUL-2010
#TIME        :             The time of day at which the spectrum was recorded, in 24-hour format
#OWNER       : PIXL Flight Model       (PIXL will use this to indicate which instrument took the data.)
#NPOINTS     : 4096     Number of data points in the spectrum (This can be zero for configuration only files)
#NCOLUMNS    : 2     Number of data columns in the spectrum (This can be zero for configuration only files)
#XUNITS      : eV
#YUNITS      : COUNTS
#DATATYPE    : YY
#XPERCHAN    : 7.862, 7.881   eV per channel (separate by commas if more than one detector)
#OFFSET      : 18.5, -22.4         eV of first channel  (separate by commas if more than one detector
#SIGNALTYPE  : XRF
#YP_TEMP     : 2.524
#LIVETIME    : 8.56316, 8.55926   seconds (separate by commas if more than one detector)
#REALTIME    : 10, 10.0   seconds (separate by commas if more than one detector)
#SPECTRUM    : start of spectrum data
0, 0
0, 0
0, 0
0, 0
0, 0
0, 0
0, 0
0, 0
2, 0
0, 3
1, 4
34, 45
74, 57
2, 2
7, 6
71, 78
366, 401
82, 73
4, 10
8, 0
63, 62
297, 283
126, 113
32, 30
135, 55
126, 46
32, 23
15, 18
7, 2
2, 4
12, 9
4, 4
2, 5
60, 64
85, 108
10, 16
14, 14
20, 12
9, 9
5, 4
4, 7
16, 15
22, 19
20, 4
8, 7
8, 6
7, 4
3, 13
8, 13
27, 32
27, 14
18, 6
20, 16
63, 25
80, 49
24, 19
40, 43
405, 542
2013, 1986
1479, 1211
190, 114
26, 16
16, 22
113, 99
324, 323
239, 143
47, 20
2, 11
13, 13
6, 7
6, 2
0, 5
4, 3
2, 5
9, 2
9, 9
8, 0
3, 5
6, 3
8, 5
4, 5
2, 7
1, 4
5, 5
7, 6
4, 4
3, 4
4, 2
7, 2
10, 3
15, 3
9, 3
5, 2
5, 0
3, 1
3, 4
1, 3
2, 7
4, 1
0, 1
0, 1
3, 0
3, 1
2, 6
0, 7
5, 6
4, 13
5, 3
4, 1
2, 3
4, 3
3, 1
2, 1
2, 0
3, 0
2, 2
4, 4
6, 1
2, 1
1, 2
3, 2
2, 2
3, 2
1, 2
2, 2
0, 0
0, 0
1, 0
0, 0
1, 2
1, 1
1, 0
1, 0
0, 1
0, 1
0, 1
0, 1
0, 1
1, 1
1, 0
1, 0
0, 1
0, 1
0, 1
1, 0
0, 0
0, 1
3, 0
1, 0
0, 1
0, 0
1, 0
0, 1
0, 0
1, 0
0, 0
1, 1
2, 1
1, 2
0, 1
0, 1
0, 0
0, 0
0, 0
0, 0
1, 0
0, 0
0, 0
0, 0
1, 0
2, 0
0, 1
0, 0
0, 0
0, 0
1, 0
0, 0
0, 0
0, 0
0, 0
0, 0
0, 0
0, 0
1, 0
0, 0
0, 0
0, 0
0, 0
0, 0
0, 0
0, 0
0, 0
0, 0
0, 0
0, 0
0, 0
0, 0
0, 0
0, 0
0, 0
0, 0
0, 0
0, 0
0, 0
0, 0
0, 0
0, 0
0, 0
0, 0
0, 0
0, 0
0, 0
1, 0
0, 0
0, 0
0, 0
0, 0
0, 0
0, 0
0, 1
0, 0
0, 0
0, 0
0, 0
0, 0
0, 0
0, 0
0, 0
0, 0
0, 0
0, 0
0, 0
0, 0
0, 0
0, 0
0, 0
0, 0
0, 0
0, 0
0, 0
0, 0
0, 0
0, 0
0, 0
0, 0
0, 0
0, 0
0, 0
0, 0
0, 0
0, 0
0, 0
0, 0
0, 0
0, 0
0, 0
0, 0
0, 0
0, 0
0, 0
0, 0
0, 0
0, 0
0, 0
0, 0
0, 0
0, 0
0, 0
0, 0
0, 0
0, 0
0, 0
0, 0
0, 0
0, 0
0, 0
0, 0
0, 0
0, 0
0, 0
0, 0
0, 0
0, 0
0, 0
0, 0
0, 0
0, 0
0, 0
0, 0
0, 0
0, 0
0, 0
0, 0
0, 0
#ENDOFDATA     end of spectrum data

File: ps__0852shot_2522.msa
#FORMAT      : EMSA/MAS spectral data file
#VERSION     : TC202v2.0 PIXL
#TITLE       : N/A
#DATE        :       Date in the format DD-MMM-YYYY, for example 07-JUL-2010
#TIME        :             The time of day at which the spectrum was recorded, in 24-hour format
#OWNER       : PIXL Flight Model       (PIXL will use this to indicate which instrument took the data.)
#NPOINTS     : 4096     Number of data points in the spectrum (This can be zero for configuration only files)
#NCOLUMNS    : 2     Number of data columns in the spectrum (This can be zero for configuration only files)
#XUNITS      : eV
#YUNITS      : COUNTS
#DATATYPE    : YY
#XPERCHAN    : 7.862, 7.881   eV per channel (separate by commas if more than one detector)
#OFFSET      : 18.5, -22.4         eV of first channel  (separate by commas if more than one detector
#SIGNALTYPE  : XRF
#YP_TEMP     : 2.524
#LIVETIME    : 8.56005, 8.56301   seconds (separate by commas if more than one detector)
#REALTIME    : 10, 10.0   seconds (separate by commas if more than one detector)
#SPECTRUM    : start of spectrum data
0, 0
0, 0
0, 0
0, 0
0, 0
0, 0
0, 0
0, 0
2, 1
3, 0
3, 5
54, 49
59, 44
10, 3
3, 3
100, 86
483, 427
102, 93
6, 5
1, 1
7, 11
52, 70
17, 11
15, 9
36, 29
33, 20
13, 20
13, 9
4, 3
3, 3
3, 2
5, 4
2, 2
14, 13
26, 21
2, 4
5, 9
2, 3
1, 4
4, 0
4, 2
8, 11
10, 18
13, 6
9, 6
6, 2
3, 12
5, 4
10, 7
42, 19
114, 13
44, 3
17, 11
51, 40
114, 43
50, 16
33, 30
505, 580
2153, 2320
1598, 1350
187, 135
17, 10
21, 20
117, 126
329, 352
255, 177
25, 26
12, 7
12, 11
10, 9
3, 3
5, 8
7, 8
16, 5
4, 4
6, 4
4, 5
8, 4
6, 3
2, 4
14, 6
27, 10
17, 8
3, 6
5, 2
1, 3
5, 2
0, 5
2, 4
3, 2
9, 3
5, 2
2, 2
2, 3
0, 2
7, 2
3, 3
2, 1
3, 1
7, 1
6, 0
0, 5
0, 2
1, 4
2, 2
0, 8
2, 2
1, 1
1, 3
0, 2
1, 1
2, 3
4, 3
3, 1
5, 0
1, 2
2, 3
5, 2
0, 1
1, 1
1, 0
2, 2
3, 4
0, 2
0, 2
2, 1
2, 0
3, 1
0, 0
2, 2
0, 2
0, 2
2, 0
0, 0
0, 1
0, 1
0, 3
1, 1
0, 1
0, 0
0, 0
0, 1
1, 1
1, 1
1, 0
1, 0
1, 0
0, 0
1, 1
2, 0
0, 1
0, 0
0, 0
0, 0
0, 0
1, 0
1, 0
1, 0
1, 1
1, 0
0, 0
0, 0
1, 2
1, 0
0, 0
0, 0
0, 0
0, 0
0, 0
0, 0
0, 0
0, 0
0, 0
0, 0
0, 0
0, 0
0, 0
1, 0
0, 0
0, 0
0, 0
2, 0
0, 0
1, 0
0, 0
0, 0
0, 0
0, 0
0, 0
0, 1
0, 0
0, 0
1, 0
0, 0
0, 0
0, 0
0, 0
0, 0
0, 0
0, 0
0, 0
0, 0
0, 1
0, 0
0, 0
0, 0
0, 0
0, 1
0, 0
0, 0
0, 0
0, 0
0, 0
0, 0
0, 0
0, 0
0, 0
0, 0
0, 0
0, 0
0, 0
0, 0
0, 0
0, 0
0, 0
0, 0
0, 0
0, 0
0, 0
0, 0
0, 0
0, 0
0, 0
0, 0
0, 0
0, 0
0, 0
0, 0
0, 0
0, 0
0, 0
0, 0
0, 0
0, 0
0, 0
0, 0
0, 0
0, 0
0, 0
0, 0
0, 0
0, 0
0, 0
0, 0
0, 0
0, 0
0, 0
0, 0
0, 0
0, 0
0, 0
0, 0
0, 0
0, 0
0, 0
0, 0
0, 0
0, 0
0, 0
0, 0
0, 0
0, 0
0, 0
0, 0
0, 0
0, 0
0, 0
0, 0
0, 0
0, 0
0, 0
0, 0
0, 0
0, 0
0, 0
0, 0
0, 0
0, 0
0, 0
0, 0
0, 0
0, 0
0, 0
0, 0
#ENDOFDATA     end of spectrum data

File: ps__0852shot_2523.msa
#FORMAT      : EMSA/MAS spectral data file
#VERSION     : TC202v2.0 PIXL
#TITLE       : N/A
#DATE        :       Date in the format DD-MMM-YYYY, for example 07-JUL-2010
#TIME        :             The time of day at which the spectrum was recorded, in 24-hour format
#OWNER       : PIXL Flight Model       (PIXL will use this to indicate which instrument took the data.)
#NPOINTS     : 4096     Number of data points in the spectrum (This can be zero for configuration only files)
#NCOLUMNS    : 2     Number of data columns in the spectrum (This can be zero for configuration only files)
#XUNITS      : eV
#YUNITS      : COUNTS
#DATATYPE    : YY
#XPERCHAN    : 7.862, 7.881   eV per channel (separate by commas if more than one detector)
#OFFSET      : 18.5, -22.4         eV of first channel  (separate by commas if more than one detector
#SIGNALTYPE  : XRF
#YP_TEMP     : 2.364
#LIVETIME    : 8.5415, 8.54807   seconds (separate by commas if more than one detector)
#REALTIME    : 10, 10.0   seconds (separate by commas if more than one detector)
#SPECTRUM    : start of spectrum data
0, 0
0, 0
0, 0
0, 0
0, 0
0, 0
0, 0
0, 0
1, 1
0, 1
2, 1
59, 61
59, 65
6, 4
8, 9
96, 90
501, 400
124, 89
7, 0
0, 0
0, 2
18, 14
5, 7
9, 2
14, 16
31, 27
11, 14
6, 9
2, 0
4, 2
0, 0
2, 0
4, 3
13, 8
17, 17
4, 4
4, 3
1, 2
2, 2
4, 1
0, 5
11, 10
15, 8
10, 8
6, 5
5, 2
10, 3
4, 3
11, 6
53, 16
111, 9
38, 4
15, 5
68, 42
106, 54
49, 20
34, 40
493, 504
2284, 2148
1737, 1228
196, 124
11, 11
21, 12
99, 116
333, 311
221, 155
34, 18
10, 6
13, 16
5, 5
4, 2
2, 4
6, 6
8, 7
7, 6
5, 1
4, 4
7, 2
8, 2
5, 6
12, 7
17, 3
15, 12
4, 6
2, 4
3, 0
3, 5
2, 4
10, 1
4, 2
4, 0
2, 4
2, 2
4, 3
1, 1
2, 3
2, 2
1, 4
3, 0
8, 2
8, 1
5, 0
5, 0
5, 2
3, 3
1, 2
0, 3
1, 2
5, 2
2, 1
0, 1
2, 3
3, 1
0, 5
2, 2
0, 0
13, 3
1, 4
1, 1
1, 3
2, 3
0, 3
3, 2
1, 4
1, 0
2, 2
1, 0
3, 0
0, 0
1, 1
1, 1
1, 0
1, 1
0, 1
2, 1
1, 0
1, 1
1, 2
0, 0
0, 1
2, 2
0, 0
0, 2
0, 0
0, 3
1, 0
0, 0
0, 0
0, 0
0, 0
0, 1
0, 0
0, 0
0, 3
0, 2
0, 0
0, 0
0, 0
0, 0
0, 1
0, 0
0, 1
0, 1
0, 0
1, 0
0, 0
0, 0
0, 0
0, 0
0, 2
0, 0
0, 0
0, 0
1, 0
1, 1
1, 0
1, 0
0, 0
0, 0
0, 0
0, 1
0, 0
0, 0
0, 0
0, 1
0, 0
0, 0
0, 0
0, 0
0, 0
0, 0
1, 0
0, 0
0, 0
0, 0
0, 0
0, 0
0, 0
0, 1
1, 0
0, 0
0, 1
0, 0
0, 0
0, 0
0, 0
0, 1
0, 0
0, 0
0, 0
0, 0
0, 0
0, 0
0, 0
0, 0
0, 0
0, 0
0, 0
0, 0
0, 0
0, 0
0, 0
0, 0
0, 0
0, 0
0, 0
0, 0
0, 0
0, 0
0, 0
0, 0
0, 0
0, 0
0, 0
0, 0
0, 0
0, 0
0, 0
0, 0
0, 0
0, 0
0, 0
0, 0
0, 0
0, 0
0, 0
0, 0
0, 0
0, 0
0, 0
0, 0
0, 0
0, 0
0, 0
0, 0
0, 0
0, 0
0, 0
0, 0
0, 0
0, 0
0, 0
0, 0
0, 0
0, 0
0, 0
0, 0
0, 0
0, 0
0, 0
0, 0
0, 0
0, 0
0, 0
0, 0
0, 0
0, 0
0, 0
0, 0
0, 0
0, 0
0, 0
0, 0
0, 0
0, 0
0, 0
0, 0
0, 0
0, 0
0, 0
0, 0
0, 0
0, 0
0, 0
#ENDOFDATA     end of spectrum data

File: ps__0852shot_2524.msa
#FORMAT      : EMSA/MAS spectral data file
#VERSION     : TC202v2.0 PIXL
#TITLE       : N/A
#DATE        :       Date in the format DD-MMM-YYYY, for example 07-JUL-2010
#TIME        :             The time of day at which the spectrum was recorded, in 24-hour format
#OWNER       : PIXL Flight Model       (PIXL will use this to indicate which instrument took the data.)
#NPOINTS     : 4096     Number of data points in the spectrum (This can be zero for configuration only files)
#NCOLUMNS    : 2     Number of data columns in the spectrum (This can be zero for configuration only files)
#XUNITS      : eV
#YUNITS      : COUNTS
#DATATYPE    : YY
#XPERCHAN    : 7.862, 7.881   eV per channel (separate by commas if more than one detector)
#OFFSET      : 18.5, -22.4         eV of first channel  (separate by commas if more than one detector
#SIGNALTYPE  : XRF
#YP_TEMP     : 2.364
#LIVETIME    : 8.5446, 8.53877   seconds (separate by commas if more than one detector)
#REALTIME    : 10, 10.0   seconds (separate by commas if more than one detector)
#SPECTRUM    : start of spectrum data
0, 0
0, 0
0, 0
0, 0
0, 0
0, 0
0, 0
0, 0
0, 0
2, 1
2, 1
53, 56
64, 71
5, 3
5, 5
106, 88
416, 453
101, 107
5, 3
2, 1
2, 1
6, 11
7, 5
15, 8
31, 22
19, 22
19, 24
11, 6
8, 2
1, 3
2, 2
1, 1
2, 2
11, 17
10, 9
5, 7
3, 0
3, 1
2, 3
1, 3
2, 4
4, 13
14, 10
10, 13
6, 4
5, 10
4, 7
1, 5
12, 8
51, 9
124, 7
47, 6
15, 8
56, 30
103, 50
34, 24
32, 38
459, 594
2203, 2321
1611, 1365
175, 144
6, 10
18, 16
98, 128
376, 390
216, 205
38, 33
8, 9
12, 11
7, 13
2, 3
3, 12
6, 12
12, 5
2, 1
5, 6
4, 3
4, 3
9, 3
8, 5
14, 4
23, 3
14, 9
6, 17
4, 4
2, 5
3, 3
5, 7
0, 5
6, 2
7, 5
3, 2
5, 2
4, 4
2, 1
1, 3
3, 2
2, 4
4, 7
7, 3
10, 1
5, 2
3, 3
1, 1
2, 1
2, 4
0, 5
3, 5
1, 4
2, 1
2, 1
6, 2
1, 2
1, 1
2, 2
0, 2
8, 4
3, 2
3, 1
2, 1
2, 2
2, 2
4, 2
0, 0
1, 0
2, 2
2, 0
2, 1
1, 0
1, 1
2, 3
1, 0
1, 1
0, 0
0, 0
1, 1
1, 0
0, 1
1, 0
0, 1
0, 0
0, 1
0, 2
1, 0
1, 2
0, 0
1, 2
0, 0
2, 0
0, 2
1, 0
1, 2
0, 0
1, 2
1, 0
0, 0
1, 1
0, 0
0, 2
0, 0
1, 0
0, 0
2, 1
0, 0
0, 0
0, 0
0, 0
0, 0
1, 1
0, 0
0, 0
0, 0
0, 0
1, 0
0, 1
0, 0
1, 0
1, 0
0, 1
0, 1
0, 0
0, 0
1, 0
0, 0
0, 0
0, 0
0, 0
0, 0
0, 0
0, 0
1, 0
0, 0
0, 0
0, 0
1, 0
0, 0
0, 0
0, 0
0, 0
0, 0
0, 0
0, 0
0, 0
0, 0
0, 0
0, 0
0, 0
1, 0
0, 0
0, 0
0, 0
0, 0
0, 0
0, 0
0, 0
0, 0
0, 0
0, 0
0, 0
0, 0
0, 0
0, 0
0, 0
0, 0
0, 0
0, 0
0, 0
0, 0
0, 0
0, 0
0, 0
0, 0
0, 0
0, 0
0, 0
0, 0
0, 0
0, 0
0, 0
0, 0
0, 0
0, 0
0, 0
0, 0
0, 0
0, 0
0, 0
0, 0
0, 0
0, 0
0, 0
0, 0
0, 0
0, 0
0, 0
0, 0
0, 0
0, 0
0, 0
0, 0
0, 0
0, 0
0, 0
0, 0
0, 0
0, 0
0, 0
0, 0
0, 0
0, 0
0, 0
0, 0
0, 0
0, 0
0, 0
0, 0
0, 0
0, 0
0, 0
0, 0
0, 0
0, 0
0, 0
0, 0
0, 0
0, 0
0, 0
0, 0
0, 0
0, 0
0, 0
0, 0
0, 0
0, 0
#ENDOFDATA     end of spectrum data

File: ps__0852shot_2525.msa
#FORMAT      : EMSA/MAS spectral data file
#VERSION     : TC202v2.0 PIXL
#TITLE       : N/A
#DATE        :       Date in the format DD-MMM-YYYY, for example 07-JUL-2010
#TIME        :             The time of day at which the spectrum was recorded, in 24-hour format
#OWNER       : PIXL Flight Model       (PIXL will use this to indicate which instrument took the data.)
#NPOINTS     : 4096     Number of data points in the spectrum (This can be zero for configuration only files)
#NCOLUMNS    : 2     Number of data columns in the spectrum (This can be zero for configuration only files)
#XUNITS      : eV
#YUNITS      : COUNTS
#DATATYPE    : YY
#XPERCHAN    : 7.862, 7.881   eV per channel (separate by commas if more than one detector)
#OFFSET      : 18.5, -22.4         eV of first channel  (separate by commas if more than one detector
#SIGNALTYPE  : XRF
#YP_TEMP     : 2.267
#LIVETIME    : 8.5672, 8.5469   seconds (separate by commas if more than one detector)
#REALTIME    : 10, 10.0   seconds (separate by commas if more than one detector)
#SPECTRUM    : start of spectrum data
0, 0
0, 0
0, 0
0, 0
0, 0
0, 0
0, 0
0, 0
0, 0
2, 1
3, 1
50, 50
61, 54
5, 6
6, 2
102, 119
441, 445
98, 104
3, 7
1, 1
12, 6
38, 36
20, 16
17, 14
32, 26
20, 21
15, 10
14, 10
2, 3
1, 2
3, 5
6, 4
4, 4
6, 13
14, 24
3, 6
0, 2
4, 5
4, 2
3, 4
3, 9
8, 16
10, 10
10, 11
4, 5
7, 19
2, 15
6, 4
9, 6
42, 13
106, 19
33, 14
8, 2
46, 39
101, 68
38, 15
32, 27
506, 627
2110, 2382
1526, 1400
162, 125
17, 22
23, 17
101, 150
331, 339
230, 196
27, 15
7, 12
9, 14
9, 7
1, 10
1, 11
7, 14
10, 3
5, 8
7, 3
3, 5
6, 4
9, 3
5, 1
16, 6
22, 2
20, 13
8, 9
8, 3
2, 6
3, 3
1, 2
3, 4
3, 5
1, 8
4, 4
1, 2
5, 2
2, 0
3, 1
0, 5
4, 0
5, 1
6, 1
10, 1
0, 3
3, 3
2, 1
3, 3
2, 2
1, 3
2, 4
1, 5
1, 4
0, 2
1, 2
6, 3
2, 1
4, 3
3, 2
3, 5
2, 6
3, 0
3, 3
0, 0
2, 7
3, 3
0, 0
1, 1
1, 0
1, 1
1, 3
0, 0
2, 1
0, 0
1, 0
2, 0
1, 1
0, 0
0, 1
0, 1
1, 1
0, 0
3, 0
1, 1
1, 3
0, 0
2, 0
0, 0
0, 0
0, 3
0, 0
0, 1
1, 0
0, 0
1, 0
1, 0
0, 0
0, 1
1, 0
0, 1
1, 0
0, 1
0, 2
0, 0
0, 1
0, 2
0, 2
0, 0
0, 0
0, 0
0, 0
0, 0
2, 2
0, 0
0, 1
0, 0
0, 1
0, 0
0, 0
1, 1
0, 0
0, 0
2, 0
0, 0
0, 0
0, 0
0, 0
0, 0
1, 0
0, 0
0, 1
0, 0
0, 0
0, 0
0, 0
0, 0
0, 0
0, 0
0, 0
0, 0
0, 0
0, 0
0, 0
0, 0
0, 0
0, 0
0, 0
0, 0
0, 0
0, 0
0, 0
0, 0
0, 0
0, 0
0, 0
0, 0
0, 0
0, 0
0, 0
0, 0
0, 0
0, 0
0, 0
0, 0
0, 0
0, 0
0, 0
0, 0
0, 0
0, 0
0, 0
0, 0
0, 0
0, 0
0, 0
0, 0
0, 0
0, 0
0, 0
0, 0
0, 0
0, 0
0, 0
0, 0
0, 0
0, 0
0, 0
0, 0
0, 0
0, 0
0, 0
0, 0
0, 0
0, 0
0, 0
0, 0
0, 0
0, 0
0, 0
0, 0
0, 0
0, 0
0, 0
0, 0
0, 0
0, 0
0, 0
0, 0
0, 0
0, 0
0, 0
0, 0
0, 0
0, 0
0, 0
0, 0
0, 0
0, 0
0, 0
0, 0
0, 0
0, 0
0, 0
0, 0
0, 0
0, 0
0, 0
0, 0
0, 0
0, 0
0, 0
0, 0
0, 0
0, 0
0, 0
0, 0
0, 0
#ENDOFDATA     end of spectrum data

File: ps__0852shot_2526.msa
#FORMAT      : EMSA/MAS spectral data file
#VERSION     : TC202v2.0 PIXL
#TITLE       : N/A
#DATE        :       Date in the format DD-MMM-YYYY, for example 07-JUL-2010
#TIME        :             The time of day at which the spectrum was recorded, in 24-hour format
#OWNER       : PIXL Flight Model       (PIXL will use this to indicate which instrument took the data.)
#NPOINTS     : 4096     Number of data points in the spectrum (This can be zero for configuration only files)
#NCOLUMNS    : 2     Number of data columns in the spectrum (This can be zero for configuration only files)
#XUNITS      : eV
#YUNITS      : COUNTS
#DATATYPE    : YY
#XPERCHAN    : 7.862, 7.881   eV per channel (separate by commas if more than one detector)
#OFFSET      : 18.5, -22.4         eV of first channel  (separate by commas if more than one detector
#SIGNALTYPE  : XRF
#YP_TEMP     : 2.3
#LIVETIME    : 8.54518, 8.54309   seconds (separate by commas if more than one detector)
#REALTIME    : 10, 10.0   seconds (separate by commas if more than one detector)
#SPECTRUM    : start of spectrum data
0, 0
0, 0
0, 0
0, 0
0, 0
0, 0
0, 0
0, 0
0, 0
3, 0
2, 1
40, 37
50, 56
6, 2
5, 2
79, 91
445, 445
99, 104
1, 7
2, 3
19, 15
86, 93
42, 36
26, 13
47, 42
41, 39
28, 25
16, 6
2, 3
1, 3
4, 4
6, 1
10, 4
51, 40
74, 55
12, 34
4, 19
10, 10
5, 3
2, 0
5, 5
13, 15
9, 25
11, 9
7, 10
7, 20
6, 23
3, 5
10, 5
16, 28
35, 48
9, 27
7, 10
28, 44
72, 52
23, 28
19, 54
451, 540
2046, 2224
1484, 1197
196, 134
33, 14
22, 27
122, 115
343, 369
218, 195
27, 27
6, 10
8, 11
11, 7
7, 2
5, 6
4, 7
6, 12
4, 8
3, 5
4, 4
6, 10
7, 2
15, 5
12, 8
9, 6
6, 5
13, 4
12, 7
6, 6
10, 7
6, 3
4, 3
4, 5
2, 11
4, 8
2, 6
1, 3
4, 6
8, 1
5, 3
2, 2
4, 2
5, 7
1, 4
0, 3
5, 1
4, 0
4, 1
2, 2
2, 5
1, 2
3, 3
2, 2
3, 4
3, 1
1, 3
3, 4
0, 1
2, 1
8, 2
4, 5
2, 2
2, 4
4, 1
3, 2
3, 5
2, 2
1, 0
2, 1
1, 2
0, 1
2, 1
1, 1
0, 1
1, 1
0, 0
0, 4
0, 3
0, 2
0, 0
0, 1
1, 1
2, 1
0, 2
2, 0
0, 0
2, 0
0, 1
2, 1
0, 1
0, 1
0, 0
1, 0
0, 0
0, 2
0, 0
0, 0
0, 0
1, 1
1, 1
1, 0
0, 0
1, 0
1, 0
0, 0
0, 0
0, 0
0, 0
0, 0
3, 0
0, 0
1, 0
1, 2
0, 0
1, 0
0, 0
1, 0
1, 0
0, 0
0, 0
0, 0
0, 0
0, 0
0, 0
0, 0
0, 0
0, 1
0, 0
0, 0
0, 0
0, 0
0, 1
0, 0
0, 0
0, 0
0, 0
0, 0
0, 0
0, 0
0, 0
0, 0
0, 0
0, 0
0, 0
0, 0
0, 0
0, 0
1, 0
0, 1
0, 0
0, 0
0, 0
0, 0
0, 0
0, 0
0, 0
0, 0
0, 0
0, 0
0, 0
0, 0
1, 0
0, 0
0, 0
0, 0
0, 0
0, 0
0, 0
0, 0
0, 0
0, 0
0, 0
0, 0
0, 0
0, 0
0, 0
0, 0
0, 0
0, 0
0, 0
0, 0
0, 0
0, 0
0, 0
0, 0
0, 0
0, 0
0, 0
0, 0
0, 0
0, 0
0, 0
0, 0
0, 0
0, 0
1, 0
0, 0
0, 0
0, 0
0, 0
0, 0
0, 0
0, 0
0, 0
0, 0
0, 0
0, 0
0, 0
0, 0
0, 0
0, 0
0, 0
0, 0
0, 0
0, 0
0, 0
0, 0
0, 0
0, 0
0, 0
0, 0
0, 0
0, 0
0, 0
0, 0
0, 0
0, 0
0, 0
0, 0
0, 0
0, 0
0, 0
0, 0
0, 0
0, 0
0, 0
0, 0
#ENDOFDATA     end of spectrum data

File: ps__0852shot_2527.msa
#FORMAT      : EMSA/MAS spectral data file
#VERSION     : TC202v2.0 PIXL
#TITLE       : N/A
#DATE        :       Date in the format DD-MMM-YYYY, for example 07-JUL-2010
#TIME        :             The time of day at which the spectrum was recorded, in 24-hour format
#OWNER       : PIXL Flight Model       (PIXL will use this to indicate which instrument took the data.)
#NPOINTS     : 4096     Number of data points in the spectrum (This can be zero for configuration only files)
#NCOLUMNS    : 2     Number of data columns in the spectrum (This can be zero for configuration only files)
#XUNITS      : eV
#YUNITS      : COUNTS
#DATATYPE    : YY
#XPERCHAN    : 7.862, 7.881   eV per channel (separate by commas if more than one detector)
#OFFSET      : 18.5, -22.4         eV of first channel  (separate by commas if more than one detector
#SIGNALTYPE  : XRF
#YP_TEMP     : 2.396
#LIVETIME    : 8.55145, 8.54484   seconds (separate by commas if more than one detector)
#REALTIME    : 10, 10.0   seconds (separate by commas if more than one detector)
#SPECTRUM    : start of spectrum data
0, 0
0, 0
0, 0
0, 0
0, 0
0, 0
0, 0
1, 0
1, 0
1, 0
4, 2
33, 37
53, 56
11, 4
5, 4
96, 93
508, 447
111, 80
4, 6
2, 2
12, 16
105, 76
45, 32
22, 14
32, 36
54, 31
19, 23
16, 12
3, 4
7, 2
1, 2
9, 5
13, 5
86, 102
177, 134
25, 35
23, 20
24, 20
4, 5
6, 3
5, 1
14, 29
12, 22
12, 12
4, 5
8, 4
7, 10
5, 5
15, 14
24, 58
13, 26
7, 9
6, 14
45, 36
64, 43
16, 22
35, 20
452, 546
2050, 2023
1554, 1194
204, 105
16, 11
17, 24
81, 124
339, 331
221, 166
23, 22
3, 2
7, 10
11, 10
6, 4
7, 4
4, 6
3, 5
6, 6
6, 9
2, 10
7, 16
4, 8
4, 1
5, 3
9, 1
7, 5
2, 6
2, 3
4, 3
8, 2
8, 3
7, 1
1, 9
4, 7
4, 7
5, 5
4, 0
8, 2
11, 1
2, 0
3, 6
4, 1
5, 5
1, 2
4, 1
5, 5
2, 4
3, 2
2, 2
4, 0
8, 2
7, 1
3, 3
3, 2
2, 2
0, 2
3, 3
2, 4
4, 1
3, 2
4, 3
3, 3
3, 1
0, 1
5, 1
0, 1
2, 1
0, 1
0, 1
3, 1
2, 1
2, 2
2, 0
0, 1
1, 0
0, 2
0, 0
1, 2
0, 1
0, 0
1, 0
1, 0
0, 1
1, 3
2, 0
2, 0
0, 0
1, 1
1, 0
0, 1
1, 2
0, 0
1, 1
1, 1
0, 0
0, 0
0, 0
1, 0
1, 2
0, 0
0, 0
0, 0
0, 0
0, 1
0, 0
0, 0
0, 0
0, 1
0, 1
0, 1
0, 0
0, 0
0, 1
0, 0
0, 1
1, 1
1, 0
0, 0
0, 1
0, 0
0, 0
0, 0
1, 0
0, 0
0, 0
0, 0
1, 1
1, 0
0, 0
0, 0
0, 0
0, 0
0, 0
0, 0
0, 0
0, 0
0, 0
0, 0
0, 0
0, 1
0, 0
0, 0
0, 0
0, 0
0, 0
0, 0
0, 0
0, 1
0, 0
0, 1
0, 0
0, 0
1, 0
0, 0
0, 0
0, 0
0, 0
0, 0
0, 0
0, 0
1, 0
0, 0
0, 0
0, 0
0, 0
1, 0
0, 0
0, 1
0, 0
0, 0
1, 0
0, 0
0, 0
0, 0
0, 0
0, 0
0, 0
0, 0
0, 0
0, 0
0, 0
0, 0
0, 0
0, 0
0, 0
0, 0
0, 0
0, 0
0, 0
0, 0
0, 0
0, 0
0, 0
0, 0
0, 0
0, 0
0, 0
0, 0
0, 0
0, 0
0, 0
0, 0
0, 0
0, 0
0, 0
0, 0
0, 0
0, 0
0, 0
0, 0
0, 0
0, 0
0, 0
0, 0
0, 0
0, 0
0, 0
0, 0
0, 0
0, 0
0, 0
0, 0
0, 0
0, 0
0, 0
0, 0
0, 0
0, 0
0, 0
0, 0
0, 0
0, 0
0, 0
0, 0
0, 0
0, 0
0, 0
#ENDOFDATA     end of spectrum data