Folder: data-repository/host_upload/06-09-2024/ps_0852/dump3 (part 11)

File: ps__0852shot_2091.msa
#FORMAT      : EMSA/MAS spectral data file
#VERSION     : TC202v2.0 PIXL
#TITLE       : N/A
#DATE        :       Date in the format DD-MMM-YYYY, for example 07-JUL-2010
#TIME        :             The time of day at which the spectrum was recorded, in 24-hour format
#OWNER       : PIXL Flight Model       (PIXL will use this to indicate which instrument took the data.)
#NPOINTS     : 4096     Number of data points in the spectrum (This can be zero for configuration only files)
#NCOLUMNS    : 2     Number of data columns in the spectrum (This can be zero for configuration only files)
#XUNITS      : eV
#YUNITS      : COUNTS
#DATATYPE    : YY
#XPERCHAN    : 7.862, 7.881   eV per channel (separate by commas if more than one detector)
#OFFSET      : 18.5, -22.4         eV of first channel  (separate by commas if more than one detector
#SIGNALTYPE  : XRF
#YP_TEMP     : 2.588
#LIVETIME    : 8.55218, 8.55283   seconds (separate by commas if more than one detector)
#REALTIME    : 10, 10.0   seconds (separate by commas if more than one detector)
#SPECTRUM    : start of spectrum data
0, 0
0, 0
0, 0
0, 0
0, 0
0, 0
0, 0
0, 0
0, 0
0, 0
2, 5
45, 38
56, 65
4, 6
2, 5
93, 87
432, 407
106, 91
7, 4
1, 2
3, 1
0, 2
1, 1
6, 7
39, 57
46, 66
19, 35
20, 15
8, 4
2, 7
1, 6
2, 4
5, 5
7, 16
17, 20
5, 3
6, 7
8, 8
4, 22
10, 27
6, 11
10, 5
18, 22
16, 38
10, 58
15, 37
13, 15
5, 7
12, 8
24, 16
18, 2
8, 13
5, 23
40, 43
64, 53
26, 22
55, 46
499, 563
2096, 2323
1522, 1349
227, 126
21, 14
22, 30
93, 142
307, 333
228, 195
28, 25
11, 5
6, 16
13, 13
7, 4
10, 7
6, 10
4, 14
3, 11
3, 14
9, 5
5, 4
5, 2
3, 7
1, 0
3, 4
3, 3
5, 1
2, 2
6, 3
2, 5
1, 0
3, 5
0, 7
1, 3
2, 0
2, 4
1, 11
2, 13
1, 6
3, 5
5, 3
3, 3
1, 3
1, 3
1, 2
1, 0
2, 1
3, 1
1, 0
4, 2
3, 6
0, 1
1, 4
1, 3
2, 1
1, 3
3, 1
1, 4
3, 4
0, 3
5, 3
2, 3
1, 0
3, 0
4, 1
1, 1
3, 1
2, 0
1, 2
2, 2
2, 2
1, 2
1, 0
0, 1
1, 2
2, 3
0, 0
1, 0
1, 2
1, 1
1, 1
1, 1
0, 0
2, 0
0, 1
2, 0
1, 0
0, 1
0, 2
0, 1
1, 1
0, 0
1, 1
1, 0
0, 1
1, 1
0, 0
0, 0
2, 0
0, 0
1, 0
0, 0
2, 0
0, 0
1, 1
0, 0
0, 1
1, 1
1, 0
2, 0
0, 1
0, 1
1, 0
0, 0
0, 0
0, 0
1, 0
0, 2
1, 0
0, 1
1, 0
1, 1
0, 0
0, 0
0, 0
0, 1
0, 1
0, 0
0, 0
0, 1
0, 0
0, 0
0, 0
0, 0
0, 1
0, 0
0, 0
0, 0
0, 0
1, 0
0, 0
0, 0
0, 0
0, 0
0, 0
0, 0
0, 0
0, 0
0, 0
0, 0
0, 0
0, 0
0, 0
0, 0
0, 0
1, 0
0, 0
0, 0
0, 0
0, 0
0, 0
0, 0
0, 0
0, 0
0, 0
0, 1
0, 0
0, 0
0, 0
0, 0
0, 0
0, 0
0, 0
0, 0
0, 0
0, 0
0, 0
0, 0
0, 0
0, 0
0, 0
0, 0
0, 0
0, 0
0, 0
0, 0
0, 0
0, 0
0, 0
0, 0
0, 0
0, 0
0, 0
0, 0
0, 0
0, 0
0, 0
0, 0
0, 0
0, 0
0, 0
0, 0
0, 0
0, 0
0, 0
0, 0
0, 0
0, 0
0, 0
0, 0
0, 0
0, 0
0, 0
0, 0
0, 0
0, 0
0, 0
0, 0
0, 0
0, 0
0, 0
0, 0
0, 0
0, 0
0, 0
0, 0
0, 0
0, 0
0, 0
0, 0
0, 0
0, 0
0, 0
0, 0
0, 0
0, 0
0, 0
#ENDOFDATA     end of spectrum data

File: ps__0852shot_2092.msa
#FORMAT      : EMSA/MAS spectral data file
#VERSION     : TC202v2.0 PIXL
#TITLE       : N/A
#DATE        :       Date in the format DD-MMM-YYYY, for example 07-JUL-2010
#TIME        :             The time of day at which the spectrum was recorded, in 24-hour format
#OWNER       : PIXL Flight Model       (PIXL will use this to indicate which instrument took the data.)
#NPOINTS     : 4096     Number of data points in the spectrum (This can be zero for configuration only files)
#NCOLUMNS    : 2     Number of data columns in the spectrum (This can be zero for configuration only files)
#XUNITS      : eV
#YUNITS      : COUNTS
#DATATYPE    : YY
#XPERCHAN    : 7.862, 7.881   eV per channel (separate by commas if more than one detector)
#OFFSET      : 18.5, -22.4         eV of first channel  (separate by commas if more than one detector
#SIGNALTYPE  : XRF
#YP_TEMP     : 2.62
#LIVETIME    : 8.56134, 8.55689   seconds (separate by commas if more than one detector)
#REALTIME    : 10, 10.0   seconds (separate by commas if more than one detector)
#SPECTRUM    : start of spectrum data
0, 0
0, 0
0, 0
0, 0
0, 0
0, 0
0, 0
0, 0
1, 0
0, 0
3, 4
43, 40
79, 66
6, 9
3, 3
98, 111
411, 383
116, 99
6, 3
1, 1
1, 2
4, 3
5, 4
9, 8
41, 68
56, 72
22, 29
20, 16
4, 6
6, 3
6, 2
2, 4
4, 4
16, 23
26, 14
12, 5
7, 9
8, 6
13, 13
13, 26
4, 5
8, 16
14, 16
14, 20
11, 25
4, 18
11, 8
11, 7
13, 9
21, 23
20, 18
13, 18
15, 18
34, 42
64, 69
34, 33
58, 43
475, 584
2239, 2274
1540, 1303
218, 131
20, 14
18, 22
110, 135
314, 335
229, 185
42, 42
12, 14
14, 15
12, 11
7, 13
5, 4
5, 5
7, 9
8, 7
9, 5
6, 7
10, 7
8, 10
4, 6
4, 3
1, 7
3, 5
6, 7
2, 6
6, 4
4, 1
4, 6
2, 5
5, 4
5, 10
2, 1
4, 4
0, 8
6, 6
5, 4
3, 2
0, 4
8, 4
2, 1
3, 1
4, 4
1, 1
1, 2
4, 0
1, 2
2, 1
0, 5
3, 1
2, 4
2, 2
1, 5
2, 0
0, 2
3, 2
1, 7
10, 3
7, 3
1, 2
1, 3
3, 1
1, 4
3, 1
2, 1
0, 0
6, 0
1, 3
0, 3
1, 2
3, 2
0, 3
1, 0
1, 2
1, 2
1, 0
1, 3
1, 2
0, 0
0, 1
0, 0
0, 0
0, 0
0, 0
1, 0
0, 0
0, 0
0, 2
0, 0
0, 1
0, 1
1, 1
0, 0
0, 1
0, 0
1, 0
0, 0
0, 0
0, 0
0, 0
0, 0
0, 0
0, 0
0, 0
1, 0
1, 0
0, 0
0, 1
0, 0
0, 0
0, 0
1, 0
0, 1
0, 0
0, 0
0, 0
0, 0
0, 1
0, 0
0, 0
0, 0
0, 0
0, 0
0, 0
0, 1
0, 1
0, 1
0, 0
0, 1
0, 0
0, 0
0, 0
0, 0
0, 0
0, 0
0, 0
0, 0
0, 0
0, 0
0, 0
0, 0
1, 0
0, 0
0, 0
0, 0
0, 1
0, 0
0, 0
0, 0
0, 0
0, 0
0, 0
0, 0
0, 0
0, 0
0, 0
0, 0
0, 0
0, 0
0, 0
0, 0
0, 0
0, 0
0, 0
0, 0
0, 0
0, 0
0, 0
0, 0
0, 0
0, 0
0, 0
0, 0
0, 0
0, 0
0, 0
0, 0
0, 0
0, 0
0, 0
0, 0
0, 0
0, 0
0, 0
0, 0
0, 0
0, 0
0, 0
0, 0
0, 0
0, 0
0, 0
0, 0
0, 0
0, 0
0, 0
0, 0
0, 0
0, 0
0, 0
0, 0
0, 0
0, 0
0, 0
0, 0
0, 0
0, 0
0, 0
0, 0
0, 0
0, 0
0, 0
0, 0
0, 0
0, 0
0, 0
0, 0
0, 0
0, 0
0, 0
0, 0
0, 0
0, 0
0, 0
0, 0
0, 0
0, 0
0, 0
0, 0
0, 0
0, 0
0, 0
0, 0
0, 0
0, 0
#ENDOFDATA     end of spectrum data

File: ps__0852shot_2093.msa
#FORMAT      : EMSA/MAS spectral data file
#VERSION     : TC202v2.0 PIXL
#TITLE       : N/A
#DATE        :       Date in the format DD-MMM-YYYY, for example 07-JUL-2010
#TIME        :             The time of day at which the spectrum was recorded, in 24-hour format
#OWNER       : PIXL Flight Model       (PIXL will use this to indicate which instrument took the data.)
#NPOINTS     : 4096     Number of data points in the spectrum (This can be zero for configuration only files)
#NCOLUMNS    : 2     Number of data columns in the spectrum (This can be zero for configuration only files)
#XUNITS      : eV
#YUNITS      : COUNTS
#DATATYPE    : YY
#XPERCHAN    : 7.862, 7.881   eV per channel (separate by commas if more than one detector)
#OFFSET      : 18.5, -22.4         eV of first channel  (separate by commas if more than one detector
#SIGNALTYPE  : XRF
#YP_TEMP     : 2.364
#LIVETIME    : 8.56238, 8.56128   seconds (separate by commas if more than one detector)
#REALTIME    : 10, 10.0   seconds (separate by commas if more than one detector)
#SPECTRUM    : start of spectrum data
0, 0
0, 0
0, 0
0, 0
0, 0
0, 0
0, 0
0, 0
0, 0
3, 2
3, 1
50, 55
68, 53
8, 2
3, 5
98, 83
453, 375
122, 83
2, 5
1, 0
1, 2
10, 7
8, 6
9, 7
49, 45
62, 46
25, 31
14, 12
9, 8
0, 0
3, 3
5, 0
10, 4
23, 12
22, 23
23, 11
25, 7
10, 12
10, 17
14, 14
12, 9
14, 26
25, 18
19, 12
14, 14
9, 7
6, 4
8, 3
12, 8
29, 26
22, 22
15, 6
10, 11
44, 33
69, 41
27, 26
33, 41
468, 582
2281, 2096
1711, 1254
205, 136
25, 12
43, 21
113, 116
323, 319
227, 175
30, 21
7, 9
23, 11
14, 13
6, 3
8, 4
9, 4
7, 8
11, 3
9, 4
5, 6
11, 8
7, 2
3, 5
4, 0
0, 0
1, 4
7, 3
4, 4
5, 6
5, 6
1, 2
3, 4
4, 5
2, 2
4, 0
3, 3
3, 3
3, 3
3, 3
2, 3
2, 1
0, 4
6, 3
4, 2
5, 0
5, 4
1, 1
4, 2
3, 0
5, 2
4, 2
0, 1
4, 2
0, 3
5, 0
0, 0
0, 3
1, 2
5, 2
7, 2
6, 6
2, 1
1, 1
3, 1
2, 4
0, 0
2, 2
2, 0
1, 2
1, 2
0, 0
3, 0
1, 1
1, 3
1, 1
1, 3
1, 1
0, 0
1, 1
1, 1
0, 1
0, 1
0, 0
1, 0
1, 0
0, 0
1, 1
2, 1
0, 0
3, 0
1, 1
0, 0
0, 0
0, 1
0, 1
1, 0
1, 0
0, 0
0, 0
0, 0
0, 0
0, 0
0, 0
0, 0
0, 0
2, 0
0, 1
1, 0
0, 1
0, 1
0, 0
2, 1
0, 0
0, 1
0, 1
0, 2
1, 0
0, 1
1, 0
0, 0
0, 0
0, 0
0, 0
0, 0
0, 0
0, 0
0, 0
0, 0
1, 0
0, 0
0, 0
0, 0
0, 0
0, 1
0, 0
0, 1
0, 0
0, 0
0, 0
1, 0
0, 0
0, 0
0, 0
0, 1
0, 0
0, 0
0, 0
0, 0
0, 0
0, 0
0, 0
0, 0
0, 0
0, 0
0, 0
0, 0
0, 0
0, 0
0, 0
0, 0
0, 0
0, 0
0, 0
0, 0
0, 0
0, 0
0, 0
0, 0
0, 0
0, 0
0, 0
0, 0
0, 0
0, 0
0, 0
0, 0
0, 0
0, 0
0, 0
0, 0
0, 0
0, 0
0, 0
0, 0
0, 0
0, 0
0, 0
0, 0
0, 0
0, 0
0, 0
0, 0
0, 0
0, 0
0, 0
0, 0
0, 0
0, 0
0, 0
0, 0
0, 0
0, 0
0, 0
0, 0
0, 0
0, 0
0, 0
0, 0
0, 0
0, 0
0, 0
0, 0
0, 0
0, 0
0, 0
0, 0
0, 0
0, 0
0, 0
0, 0
0, 0
0, 0
0, 0
0, 0
0, 0
0, 0
0, 0
0, 0
0, 0
0, 0
0, 0
0, 0
0, 0
0, 0
0, 0
0, 0
0, 0
#ENDOFDATA     end of spectrum data

File: ps__0852shot_2095.msa
#FORMAT      : EMSA/MAS spectral data file
#VERSION     : TC202v2.0 PIXL
#TITLE       : N/A
#DATE        :       Date in the format DD-MMM-YYYY, for example 07-JUL-2010
#TIME        :             The time of day at which the spectrum was recorded, in 24-hour format
#OWNER       : PIXL Flight Model       (PIXL will use this to indicate which instrument took the data.)
#NPOINTS     : 4096     Number of data points in the spectrum (This can be zero for configuration only files)
#NCOLUMNS    : 2     Number of data columns in the spectrum (This can be zero for configuration only files)
#XUNITS      : eV
#YUNITS      : COUNTS
#DATATYPE    : YY
#XPERCHAN    : 7.862, 7.881   eV per channel (separate by commas if more than one detector)
#OFFSET      : 18.5, -22.4         eV of first channel  (separate by commas if more than one detector
#SIGNALTYPE  : XRF
#YP_TEMP     : 2.364
#LIVETIME    : 8.56787, 8.55595   seconds (separate by commas if more than one detector)
#REALTIME    : 10, 10.0   seconds (separate by commas if more than one detector)
#SPECTRUM    : start of spectrum data
0, 0
0, 0
0, 0
0, 0
0, 0
0, 0
0, 0
0, 0
0, 1
0, 0
7, 0
68, 32
70, 45
5, 5
5, 2
104, 64
449, 224
114, 54
8, 0
5, 4
53, 46
287, 249
129, 97
26, 21
21, 41
36, 22
26, 27
8, 8
2, 1
2, 2
3, 0
2, 2
5, 1
8, 6
21, 16
20, 10
35, 13
8, 8
3, 5
5, 3
6, 6
12, 9
12, 6
18, 8
5, 10
13, 6
20, 6
10, 3
3, 4
13, 10
16, 7
9, 14
8, 13
50, 34
67, 42
31, 15
36, 28
590, 416
2340, 1583
1810, 901
228, 95
12, 8
12, 16
98, 87
389, 248
278, 136
31, 19
6, 5
12, 7
15, 7
8, 5
12, 1
5, 7
4, 5
9, 2
9, 2
6, 4
5, 2
6, 2
3, 4
4, 4
4, 3
1, 3
6, 1
5, 2
8, 3
13, 1
11, 3
5, 3
4, 4
2, 3
3, 2
5, 2
4, 5
1, 8
3, 13
7, 6
1, 6
6, 2
3, 0
3, 2
4, 4
3, 1
1, 1
1, 2
2, 2
5, 2
1, 1
3, 3
2, 1
1, 0
2, 1
2, 2
3, 3
2, 0
3, 3
6, 5
3, 5
5, 2
1, 0
4, 1
3, 0
5, 0
0, 2
1, 2
3, 0
1, 0
1, 1
0, 2
0, 4
1, 3
1, 1
0, 3
2, 0
1, 0
3, 0
0, 1
0, 0
0, 0
1, 2
0, 0
0, 3
0, 2
0, 0
1, 1
0, 0
0, 0
1, 0
0, 0
1, 1
0, 0
0, 0
1, 0
0, 0
1, 0
0, 0
0, 0
1, 1
0, 0
0, 0
0, 0
0, 1
1, 0
0, 1
1, 0
2, 0
0, 1
1, 0
1, 0
0, 0
0, 0
0, 0
0, 0
0, 0
0, 0
1, 0
0, 0
0, 0
1, 0
1, 0
0, 0
0, 0
0, 0
0, 0
0, 0
0, 0
0, 0
0, 0
0, 0
0, 0
0, 0
0, 0
0, 0
0, 0
0, 0
0, 0
0, 0
0, 0
0, 0
0, 0
0, 0
0, 0
0, 0
0, 0
0, 0
0, 0
0, 0
0, 0
0, 0
0, 0
0, 0
0, 0
0, 0
0, 0
0, 0
0, 0
0, 0
0, 0
0, 0
0, 0
0, 0
0, 0
0, 0
0, 0
0, 0
0, 0
0, 0
0, 0
0, 0
0, 0
0, 0
0, 0
0, 0
0, 0
0, 0
0, 0
0, 0
0, 0
0, 0
0, 0
0, 0
0, 0
0, 0
0, 0
0, 0
0, 0
0, 0
0, 0
0, 0
0, 0
0, 0
0, 0
0, 0
0, 0
0, 0
0, 0
0, 0
0, 0
0, 0
0, 0
0, 0
0, 0
0, 0
0, 0
0, 0
0, 0
0, 0
0, 0
0, 0
0, 0
0, 0
0, 0
0, 0
0, 0
0, 0
0, 0
0, 0
0, 0
0, 0
0, 0
0, 0
0, 0
0, 0
0, 0
0, 0
0, 0
0, 0
0, 0
0, 0
0, 0
0, 0
0, 0
0, 0
0, 0
#ENDOFDATA     end of spectrum data

File: ps__0852shot_2096.msa
#FORMAT      : EMSA/MAS spectral data file
#VERSION     : TC202v2.0 PIXL
#TITLE       : N/A
#DATE        :       Date in the format DD-MMM-YYYY, for example 07-JUL-2010
#TIME        :             The time of day at which the spectrum was recorded, in 24-hour format
#OWNER       : PIXL Flight Model       (PIXL will use this to indicate which instrument took the data.)
#NPOINTS     : 4096     Number of data points in the spectrum (This can be zero for configuration only files)
#NCOLUMNS    : 2     Number of data columns in the spectrum (This can be zero for configuration only files)
#XUNITS      : eV
#YUNITS      : COUNTS
#DATATYPE    : YY
#XPERCHAN    : 7.862, 7.881   eV per channel (separate by commas if more than one detector)
#OFFSET      : 18.5, -22.4         eV of first channel  (separate by commas if more than one detector
#SIGNALTYPE  : XRF
#YP_TEMP     : 2.364
#LIVETIME    : 8.54768, 8.55755   seconds (separate by commas if more than one detector)
#REALTIME    : 10, 10.0   seconds (separate by commas if more than one detector)
#SPECTRUM    : start of spectrum data
0, 0
0, 0
0, 0
0, 0
0, 0
0, 0
0, 0
1, 0
2, 1
1, 4
5, 4
45, 35
55, 51
6, 2
2, 4
87, 83
312, 342
83, 76
4, 2
3, 4
73, 84
418, 391
157, 177
40, 37
36, 51
51, 51
21, 24
13, 20
8, 7
3, 2
5, 3
4, 4
1, 3
6, 7
13, 8
6, 11
3, 8
2, 5
5, 2
3, 3
9, 4
41, 10
32, 14
21, 14
10, 14
6, 13
9, 6
13, 2
10, 9
8, 14
13, 13
8, 4
11, 18
28, 63
51, 51
30, 18
58, 28
469, 520
2013, 2209
1408, 1271
177, 115
16, 13
20, 18
108, 109
293, 307
214, 191
34, 20
9, 14
16, 11
13, 10
8, 5
5, 2
3, 3
2, 7
6, 4
6, 5
8, 4
7, 3
10, 3
3, 3
5, 6
2, 5
2, 3
4, 4
10, 1
8, 2
2, 7
6, 6
4, 4
4, 3
5, 4
1, 4
7, 5
4, 7
3, 7
4, 11
3, 3
3, 2
1, 2
0, 2
1, 3
3, 0
1, 1
1, 1
2, 3
0, 6
3, 1
1, 5
0, 5
2, 6
2, 1
2, 2
1, 5
2, 1
2, 1
6, 2
6, 2
1, 3
2, 2
0, 2
1, 0
0, 0
3, 3
2, 0
3, 1
2, 0
1, 0
1, 1
0, 0
1, 2
0, 1
0, 1
0, 2
1, 0
3, 0
0, 1
2, 0
2, 0
0, 1
0, 0
0, 0
1, 0
1, 0
0, 0
0, 2
3, 0
1, 0
0, 0
0, 0
0, 0
1, 2
0, 1
1, 0
0, 0
0, 1
1, 0
1, 0
0, 2
0, 0
0, 0
2, 0
0, 1
0, 0
1, 0
0, 0
0, 0
0, 0
0, 0
0, 0
0, 0
0, 1
0, 0
0, 0
0, 1
0, 0
0, 0
2, 0
0, 0
0, 0
1, 0
2, 0
0, 0
1, 0
0, 0
1, 0
0, 0
0, 0
0, 0
0, 0
0, 0
0, 0
0, 0
0, 0
0, 0
0, 0
0, 0
0, 0
0, 0
0, 0
0, 0
0, 0
0, 0
0, 0
0, 0
0, 0
0, 0
0, 0
0, 0
0, 0
0, 0
0, 0
0, 0
0, 0
0, 0
0, 0
0, 0
0, 0
0, 0
0, 1
0, 0
0, 0
0, 0
0, 0
0, 0
0, 0
0, 0
0, 0
0, 0
0, 0
0, 0
0, 0
0, 0
0, 0
0, 0
0, 0
0, 0
0, 0
1, 0
0, 0
0, 0
0, 0
0, 0
0, 0
0, 0
0, 0
0, 0
0, 0
0, 0
0, 0
0, 0
0, 0
0, 0
0, 0
0, 0
0, 0
0, 0
0, 0
0, 0
0, 0
0, 0
0, 0
0, 0
0, 0
0, 0
0, 0
0, 0
0, 0
0, 0
0, 0
0, 0
0, 0
0, 0
0, 0
0, 0
0, 0
0, 0
0, 0
0, 0
0, 0
0, 0
0, 0
0, 0
0, 0
0, 0
0, 0
0, 0
0, 0
0, 0
0, 0
0, 0
0, 0
0, 0
0, 0
0, 0
#ENDOFDATA     end of spectrum data

File: ps__0852shot_2097.msa
#FORMAT      : EMSA/MAS spectral data file
#VERSION     : TC202v2.0 PIXL
#TITLE       : N/A
#DATE        :       Date in the format DD-MMM-YYYY, for example 07-JUL-2010
#TIME        :             The time of day at which the spectrum was recorded, in 24-hour format
#OWNER       : PIXL Flight Model       (PIXL will use this to indicate which instrument took the data.)
#NPOINTS     : 4096     Number of data points in the spectrum (This can be zero for configuration only files)
#NCOLUMNS    : 2     Number of data columns in the spectrum (This can be zero for configuration only files)
#XUNITS      : eV
#YUNITS      : COUNTS
#DATATYPE    : YY
#XPERCHAN    : 7.862, 7.881   eV per channel (separate by commas if more than one detector)
#OFFSET      : 18.5, -22.4         eV of first channel  (separate by commas if more than one detector
#SIGNALTYPE  : XRF
#YP_TEMP     : 2.524
#LIVETIME    : 8.5608, 8.35233   seconds (separate by commas if more than one detector)
#REALTIME    : 10, 10.0   seconds (separate by commas if more than one detector)
#SPECTRUM    : start of spectrum data
0, 0
0, 0
0, 0
0, 0
0, 0
0, 0
0, 0
0, 1
0, 1
2, 4
1, 3
32, 32
49, 33
4, 2
5, 5
82, 71
350, 364
86, 84
11, 6
4, 1
40, 53
269, 317
114, 135
21, 29
45, 58
41, 31
32, 21
18, 12
6, 5
5, 2
1, 1
0, 4
3, 5
8, 10
13, 12
4, 10
1, 8
3, 6
4, 2
4, 5
38, 4
106, 4
59, 17
41, 16
22, 5
6, 9
7, 6
4, 6
7, 3
6, 18
7, 14
5, 8
12, 25
34, 81
40, 73
18, 16
39, 36
427, 599
2017, 2179
1477, 1299
211, 139
15, 21
20, 20
105, 123
326, 335
202, 196
31, 21
4, 9
12, 14
26, 6
10, 7
1, 4
4, 4
4, 3
7, 7
5, 7
8, 3
6, 2
1, 7
3, 3
2, 4
6, 4
3, 3
13, 2
18, 4
17, 10
7, 8
2, 3
3, 0
1, 4
3, 0
4, 3
3, 4
1, 4
3, 1
3, 4
4, 3
5, 3
4, 2
1, 2
3, 1
4, 1
3, 1
5, 1
2, 4
4, 5
2, 4
3, 8
0, 2
5, 2
3, 0
0, 1
2, 2
4, 2
2, 1
2, 2
4, 7
3, 2
3, 2
2, 5
1, 3
1, 1
0, 2
2, 1
0, 2
0, 0
0, 0
0, 0
1, 1
0, 2
1, 0
2, 0
0, 0
0, 0
2, 1
0, 0
1, 2
0, 4
0, 1
0, 0
0, 0
0, 1
1, 0
1, 1
1, 0
3, 2
0, 0
0, 1
0, 1
0, 0
0, 1
0, 1
0, 0
0, 0
0, 1
0, 0
0, 0
0, 1
1, 1
0, 1
1, 0
1, 0
0, 0
0, 0
0, 0
0, 0
0, 0
0, 1
0, 0
0, 0
0, 0
0, 0
1, 0
0, 0
0, 0
0, 0
0, 1
0, 0
0, 0
0, 0
0, 0
0, 1
0, 0
0, 0
0, 0
0, 0
0, 0
0, 0
0, 1
0, 0
0, 0
0, 0
0, 0
1, 0
0, 0
0, 0
0, 0
0, 0
0, 0
0, 0
0, 0
0, 0
0, 0
0, 0
0, 0
0, 0
0, 0
0, 0
0, 0
0, 0
0, 0
0, 0
0, 0
0, 0
0, 0
0, 0
0, 0
0, 0
0, 0
0, 0
0, 0
0, 0
0, 0
0, 0
0, 0
0, 0
0, 0
0, 0
0, 0
0, 0
0, 0
0, 0
0, 0
0, 0
0, 0
0, 0
0, 0
0, 0
0, 0
0, 0
0, 0
0, 0
0, 0
0, 0
0, 0
0, 0
0, 0
0, 0
0, 0
0, 0
0, 0
0, 0
0, 0
0, 0
0, 0
0, 0
0, 0
0, 0
0, 0
0, 0
0, 0
0, 0
0, 0
0, 0
0, 0
0, 0
0, 0
0, 0
0, 0
0, 0
0, 0
0, 0
0, 0
0, 0
0, 0
0, 0
0, 0
0, 0
0, 0
0, 0
0, 0
0, 0
0, 0
0, 0
0, 0
0, 0
0, 0
0, 0
0, 0
0, 0
0, 0
0, 0
0, 0
0, 0
#ENDOFDATA     end of spectrum data

File: ps__0852shot_2098.msa
#FORMAT      : EMSA/MAS spectral data file
#VERSION     : TC202v2.0 PIXL
#TITLE       : N/A
#DATE        :       Date in the format DD-MMM-YYYY, for example 07-JUL-2010
#TIME        :             The time of day at which the spectrum was recorded, in 24-hour format
#OWNER       : PIXL Flight Model       (PIXL will use this to indicate which instrument took the data.)
#NPOINTS     : 4096     Number of data points in the spectrum (This can be zero for configuration only files)
#NCOLUMNS    : 2     Number of data columns in the spectrum (This can be zero for configuration only files)
#XUNITS      : eV
#YUNITS      : COUNTS
#DATATYPE    : YY
#XPERCHAN    : 7.862, 7.881   eV per channel (separate by commas if more than one detector)
#OFFSET      : 18.5, -22.4         eV of first channel  (separate by commas if more than one detector
#SIGNALTYPE  : XRF
#YP_TEMP     : 2.3
#LIVETIME    : 8.55981, 8.58295   seconds (separate by commas if more than one detector)
#REALTIME    : 10, 10.0   seconds (separate by commas if more than one detector)
#SPECTRUM    : start of spectrum data
0, 0
0, 0
0, 0
0, 0
0, 0
0, 0
0, 0
0, 0
1, 0
1, 0
0, 3
41, 47
52, 57
6, 5
3, 9
86, 80
406, 396
109, 101
4, 3
2, 3
22, 25
123, 154
65, 59
14, 15
20, 20
39, 39
24, 11
16, 14
5, 4
3, 3
2, 1
0, 1
1, 6
11, 15
14, 14
6, 7
5, 6
2, 3
5, 6
3, 0
16, 4
112, 8
70, 19
54, 3
28, 7
10, 6
6, 2
2, 4
6, 11
9, 22
5, 8
8, 21
12, 29
36, 68
50, 88
26, 17
34, 41
478, 551
2180, 2246
1585, 1282
184, 139
17, 14
18, 24
111, 115
302, 365
231, 196
24, 23
8, 4
23, 9
22, 12
15, 6
0, 4
1, 4
6, 4
6, 5
4, 2
3, 1
4, 6
3, 3
8, 2
1, 3
8, 3
3, 2
8, 4
21, 8
16, 12
8, 8
6, 4
5, 0
5, 3
0, 3
3, 5
3, 2
2, 0
6, 6
6, 3
7, 1
5, 1
3, 0
3, 2
4, 1
6, 0
2, 3
0, 3
5, 2
0, 1
1, 3
0, 10
1, 4
0, 3
0, 5
0, 2
4, 2
3, 1
1, 0
1, 3
2, 5
1, 5
0, 2
0, 3
2, 1
0, 0
1, 1
2, 1
3, 0
1, 0
1, 0
1, 4
0, 2
1, 1
1, 1
0, 0
0, 0
1, 2
0, 0
1, 0
1, 0
0, 1
0, 0
1, 1
1, 0
0, 0
1, 0
1, 1
2, 3
0, 0
1, 1
0, 0
0, 0
0, 0
0, 0
1, 0
0, 0
0, 2
0, 0
0, 1
0, 0
0, 0
0, 0
0, 0
2, 1
0, 0
1, 0
0, 0
0, 0
1, 1
1, 0
0, 0
2, 0
0, 2
0, 1
0, 0
0, 0
0, 0
0, 0
1, 0
2, 0
0, 0
0, 0
0, 1
0, 0
0, 0
0, 0
0, 0
0, 0
0, 0
0, 0
0, 0
0, 0
0, 0
0, 0
0, 0
1, 0
0, 0
0, 0
0, 0
0, 0
0, 0
0, 0
0, 0
0, 0
0, 0
0, 0
0, 0
0, 0
0, 1
0, 0
0, 0
0, 0
0, 0
0, 0
0, 0
0, 0
0, 0
0, 0
0, 0
0, 0
0, 0
0, 0
0, 0
0, 0
0, 0
0, 0
0, 0
0, 0
0, 0
0, 0
0, 0
0, 0
0, 0
0, 0
0, 0
0, 0
0, 0
0, 0
0, 0
0, 0
0, 1
0, 0
0, 0
0, 0
0, 0
0, 0
0, 0
0, 0
0, 0
0, 0
0, 0
0, 0
0, 0
0, 0
0, 0
0, 0
0, 0
0, 0
0, 0
0, 0
0, 0
0, 0
0, 0
0, 0
0, 0
0, 0
0, 0
0, 0
0, 0
0, 0
0, 0
0, 0
0, 0
0, 0
0, 0
0, 0
0, 0
0, 0
0, 0
0, 0
0, 0
0, 0
0, 0
0, 0
0, 0
0, 0
0, 0
0, 0
0, 0
0, 0
0, 0
0, 0
0, 0
0, 0
0, 0
0, 0
0, 0
#ENDOFDATA     end of spectrum data

File: ps__0852shot_2099.msa
#FORMAT      : EMSA/MAS spectral data file
#VERSION     : TC202v2.0 PIXL
#TITLE       : N/A
#DATE        :       Date in the format DD-MMM-YYYY, for example 07-JUL-2010
#TIME        :             The time of day at which the spectrum was recorded, in 24-hour format
#OWNER       : PIXL Flight Model       (PIXL will use this to indicate which instrument took the data.)
#NPOINTS     : 4096     Number of data points in the spectrum (This can be zero for configuration only files)
#NCOLUMNS    : 2     Number of data columns in the spectrum (This can be zero for configuration only files)
#XUNITS      : eV
#YUNITS      : COUNTS
#DATATYPE    : YY
#XPERCHAN    : 7.862, 7.881   eV per channel (separate by commas if more than one detector)
#OFFSET      : 18.5, -22.4         eV of first channel  (separate by commas if more than one detector
#SIGNALTYPE  : XRF
#YP_TEMP     : 2.62
#LIVETIME    : 8.58327, 8.5698   seconds (separate by commas if more than one detector)
#REALTIME    : 10, 10.0   seconds (separate by commas if more than one detector)
#SPECTRUM    : start of spectrum data
0, 0
0, 0
0, 0
0, 0
0, 0
0, 0
0, 0
0, 0
1, 1
2, 0
3, 2
31, 48
69, 49
2, 5
7, 3
81, 81
296, 342
77, 94
7, 6
3, 5
69, 76
390, 405
153, 184
42, 22
52, 53
46, 54
20, 25
16, 16
5, 8
4, 2
4, 1
3, 3
1, 4
34, 46
57, 65
4, 49
9, 42
6, 15
2, 7
8, 4
17, 5
67, 13
40, 14
39, 13
25, 8
6, 12
6, 12
5, 9
8, 11
10, 30
12, 18
6, 48
17, 60
31, 66
55, 84
21, 25
43, 28
408, 537
1801, 2152
1377, 1319
164, 123
14, 14
19, 25
93, 108
296, 301
211, 193
31, 27
8, 5
14, 8
11, 15
4, 16
4, 10
4, 6
8, 5
5, 5
3, 4
6, 4
4, 4
7, 8
7, 6
2, 4
6, 1
7, 5
9, 3
18, 2
11, 3
6, 13
5, 9
4, 2
3, 5
6, 6
1, 1
4, 1
1, 1
1, 1
2, 4
5, 4
2, 1
2, 3
4, 4
1, 2
1, 2
1, 2
2, 2
4, 2
1, 6
1, 6
1, 6
0, 3
4, 3
1, 2
2, 1
2, 2
1, 1
2, 2
4, 4
8, 5
3, 3
1, 2
0, 1
2, 2
0, 1
0, 3
2, 1
1, 1
0, 0
1, 4
1, 0
0, 3
1, 1
2, 1
1, 0
0, 0
0, 0
0, 0
0, 1
1, 1
1, 1
3, 0
1, 2
0, 1
1, 0
0, 0
0, 0
0, 2
0, 0
0, 2
0, 1
0, 0
0, 0
1, 0
0, 0
1, 0
0, 1
0, 1
0, 0
0, 0
0, 0
0, 0
0, 0
0, 0
1, 0
0, 0
0, 0
0, 0
0, 1
0, 1
0, 0
0, 0
0, 0
0, 0
0, 1
0, 0
0, 0
0, 0
0, 0
0, 0
0, 0
0, 0
1, 0
0, 0
0, 0
0, 0
0, 0
1, 0
0, 0
0, 0
0, 0
0, 0
0, 1
0, 0
0, 1
0, 0
0, 0
0, 0
0, 0
0, 0
0, 0
0, 0
0, 0
0, 0
1, 0
0, 0
0, 0
0, 0
0, 0
0, 0
0, 0
0, 0
0, 0
0, 0
0, 0
0, 0
0, 0
0, 0
0, 0
0, 0
0, 0
0, 0
0, 0
0, 0
0, 0
0, 0
0, 0
0, 0
0, 0
0, 0
0, 0
0, 0
0, 0
0, 0
0, 0
0, 0
0, 0
0, 0
0, 0
0, 0
0, 0
0, 0
0, 0
0, 0
0, 0
0, 0
0, 0
0, 0
0, 0
0, 0
0, 0
0, 0
0, 0
0, 0
0, 0
0, 0
0, 0
0, 0
0, 0
0, 0
0, 0
0, 0
0, 0
0, 0
0, 0
0, 0
0, 0
0, 0
0, 0
0, 0
0, 0
0, 0
0, 0
0, 0
0, 0
0, 0
0, 0
0, 0
0, 0
0, 0
0, 0
0, 0
0, 0
0, 0
0, 0
0, 0
0, 0
0, 0
0, 0
0, 0
0, 0
0, 0
0, 0
0, 0
0, 0
0, 0
0, 0
#ENDOFDATA     end of spectrum data

File: ps__0852shot_2100.msa
#FORMAT      : EMSA/MAS spectral data file
#VERSION     : TC202v2.0 PIXL
#TITLE       : N/A
#DATE        :       Date in the format DD-MMM-YYYY, for example 07-JUL-2010
#TIME        :             The time of day at which the spectrum was recorded, in 24-hour format
#OWNER       : PIXL Flight Model       (PIXL will use this to indicate which instrument took the data.)
#NPOINTS     : 4096     Number of data points in the spectrum (This can be zero for configuration only files)
#NCOLUMNS    : 2     Number of data columns in the spectrum (This can be zero for configuration only files)
#XUNITS      : eV
#YUNITS      : COUNTS
#DATATYPE    : YY
#XPERCHAN    : 7.862, 7.881   eV per channel (separate by commas if more than one detector)
#OFFSET      : 18.5, -22.4         eV of first channel  (separate by commas if more than one detector
#SIGNALTYPE  : XRF
#YP_TEMP     : 2.139
#LIVETIME    : 8.56841, 8.55751   seconds (separate by commas if more than one detector)
#REALTIME    : 10, 10.0   seconds (separate by commas if more than one detector)
#SPECTRUM    : start of spectrum data
0, 0
0, 0
0, 0
0, 0
0, 0
0, 0
0, 0
0, 0
1, 0
1, 2
4, 4
26, 34
42, 51
8, 7
3, 8
52, 75
322, 319
72, 94
4, 4
5, 3
62, 72
363, 470
142, 171
36, 36
81, 61
82, 67
28, 38
20, 11
5, 10
3, 4
4, 6
4, 3
6, 9
86, 144
169, 189
33, 112
24, 97
31, 32
3, 8
4, 8
8, 3
32, 14
28, 22
20, 29
17, 19
12, 12
11, 4
6, 5
15, 16
34, 39
30, 24
11, 39
12, 27
48, 39
50, 40
28, 19
41, 28
416, 540
1713, 1891
1321, 1159
183, 126
16, 19
17, 9
98, 100
310, 317
214, 168
64, 27
42, 9
15, 12
8, 11
7, 8
4, 2
10, 1
5, 4
14, 7
12, 10
17, 11
7, 11
6, 8
4, 5
4, 7
6, 2
4, 5
7, 2
5, 1
4, 7
4, 4
5, 4
7, 7
5, 3
2, 9
6, 5
3, 4
3, 4
1, 5
6, 2
1, 3
5, 1
4, 3
2, 7
3, 1
4, 2
7, 1
0, 4
1, 4
3, 1
4, 2
2, 6
2, 3
1, 1
1, 4
1, 4
3, 0
0, 4
2, 1
3, 4
1, 0
2, 5
1, 1
4, 0
2, 2
3, 1
1, 1
0, 1
0, 0
0, 0
1, 0
2, 1
3, 2
2, 1
3, 1
0, 0
2, 1
1, 0
0, 1
0, 1
2, 0
4, 0
1, 0
1, 0
1, 2
0, 1
2, 0
0, 1
1, 2
0, 0
0, 1
1, 0
1, 0
0, 0
0, 0
0, 0
0, 1
0, 1
0, 2
0, 0
0, 0
0, 1
1, 0
0, 0
0, 2
0, 1
1, 0
1, 0
0, 1
0, 0
0, 1
0, 0
0, 0
0, 0
0, 1
0, 0
0, 0
0, 0
0, 0
0, 0
0, 0
0, 0
0, 0
0, 1
0, 0
0, 1
0, 0
0, 0
0, 0
0, 0
0, 0
0, 0
0, 0
0, 0
0, 0
0, 1
0, 0
0, 0
0, 0
0, 0
0, 0
0, 0
0, 0
0, 0
0, 0
1, 0
0, 0
0, 0
0, 0
0, 0
0, 0
0, 0
0, 0
0, 0
0, 0
0, 0
0, 0
0, 0
0, 0
0, 0
0, 0
0, 0
0, 0
0, 0
0, 0
0, 0
0, 0
0, 0
0, 0
0, 0
0, 0
0, 0
0, 0
0, 0
0, 0
0, 0
0, 0
0, 0
0, 0
0, 0
0, 0
0, 0
0, 0
0, 0
0, 0
0, 0
0, 0
0, 0
0, 0
0, 0
0, 0
0, 0
0, 0
0, 0
0, 0
0, 0
0, 0
0, 0
0, 0
0, 0
0, 0
0, 0
0, 0
0, 0
0, 0
0, 0
0, 0
0, 0
0, 0
0, 0
0, 0
0, 0
0, 0
0, 0
0, 0
0, 0
0, 0
0, 0
0, 0
0, 0
0, 0
0, 0
0, 0
0, 0
0, 0
0, 0
0, 0
0, 0
0, 0
0, 0
0, 0
0, 0
0, 0
0, 0
0, 0
0, 0
0, 0
0, 0
#ENDOFDATA     end of spectrum data