Folder: data-repository/host_upload/06-09-2024/ps_0852/dump3 (part 47)

File: ps__0852shot_2419.msa
#FORMAT      : EMSA/MAS spectral data file
#VERSION     : TC202v2.0 PIXL
#TITLE       : N/A
#DATE        :       Date in the format DD-MMM-YYYY, for example 07-JUL-2010
#TIME        :             The time of day at which the spectrum was recorded, in 24-hour format
#OWNER       : PIXL Flight Model       (PIXL will use this to indicate which instrument took the data.)
#NPOINTS     : 4096     Number of data points in the spectrum (This can be zero for configuration only files)
#NCOLUMNS    : 2     Number of data columns in the spectrum (This can be zero for configuration only files)
#XUNITS      : eV
#YUNITS      : COUNTS
#DATATYPE    : YY
#XPERCHAN    : 7.862, 7.881   eV per channel (separate by commas if more than one detector)
#OFFSET      : 18.5, -22.4         eV of first channel  (separate by commas if more than one detector
#SIGNALTYPE  : XRF
#YP_TEMP     : 2.428
#LIVETIME    : 8.57878, 8.58105   seconds (separate by commas if more than one detector)
#REALTIME    : 10, 10.0   seconds (separate by commas if more than one detector)
#SPECTRUM    : start of spectrum data
0, 0
0, 0
0, 0
0, 0
0, 0
0, 0
0, 0
0, 1
0, 0
2, 3
3, 0
52, 48
71, 55
7, 4
9, 7
86, 109
417, 422
103, 96
5, 4
1, 1
3, 3
6, 6
1, 4
6, 7
23, 27
29, 26
30, 18
24, 9
8, 3
3, 0
6, 2
1, 4
2, 3
20, 12
12, 12
8, 5
6, 1
7, 2
7, 3
50, 4
108, 5
37, 6
15, 9
18, 15
9, 3
6, 4
6, 16
3, 10
2, 9
8, 14
11, 12
35, 8
69, 7
161, 35
117, 56
27, 30
40, 42
471, 567
2247, 2414
1573, 1385
188, 155
13, 19
18, 32
104, 116
357, 348
278, 185
29, 24
20, 8
17, 7
5, 8
6, 4
1, 2
3, 2
2, 0
7, 4
7, 6
3, 11
5, 17
10, 15
24, 12
11, 15
6, 20
5, 11
1, 3
3, 4
3, 3
5, 4
2, 1
1, 3
2, 6
3, 2
8, 9
6, 7
13, 27
2, 11
3, 5
4, 4
2, 5
3, 1
4, 2
1, 1
4, 3
6, 3
4, 3
2, 4
3, 5
5, 1
3, 4
3, 4
2, 4
1, 2
5, 2
2, 4
1, 5
3, 1
1, 5
4, 8
3, 1
0, 2
5, 2
1, 5
2, 2
2, 1
2, 3
4, 1
0, 1
0, 1
2, 0
1, 0
1, 1
3, 1
1, 1
0, 1
1, 1
0, 0
2, 0
1, 0
0, 0
0, 0
0, 0
0, 0
2, 0
0, 3
1, 1
0, 3
0, 1
1, 0
0, 0
0, 0
0, 0
0, 0
1, 0
0, 1
0, 0
0, 0
2, 0
0, 1
0, 0
0, 1
0, 0
0, 0
1, 0
0, 0
0, 1
1, 0
0, 0
0, 0
0, 2
0, 1
1, 0
0, 0
0, 0
0, 0
0, 0
0, 0
0, 0
0, 0
0, 0
0, 0
0, 0
0, 1
0, 0
0, 0
0, 0
2, 0
0, 0
0, 0
0, 0
0, 0
0, 0
1, 0
0, 0
0, 0
0, 0
0, 0
0, 0
1, 0
0, 0
0, 0
0, 0
0, 0
0, 0
0, 0
0, 0
1, 0
0, 0
0, 0
0, 0
0, 0
0, 0
0, 0
0, 0
0, 0
0, 0
0, 0
0, 0
0, 0
0, 0
0, 0
0, 0
0, 0
0, 0
0, 0
0, 1
0, 0
0, 0
0, 0
0, 0
0, 0
0, 0
0, 0
0, 0
0, 0
0, 0
0, 0
0, 0
0, 0
0, 0
0, 0
0, 0
0, 0
0, 0
0, 0
0, 0
0, 0
0, 0
0, 0
0, 0
0, 0
0, 0
0, 0
0, 0
0, 0
0, 0
0, 0
0, 0
0, 0
0, 0
0, 0
0, 0
0, 0
0, 0
0, 0
0, 0
0, 0
0, 0
0, 0
0, 0
0, 0
0, 0
0, 0
0, 0
0, 0
0, 0
0, 0
0, 0
0, 0
0, 0
0, 0
0, 0
0, 0
0, 0
0, 0
0, 0
0, 0
0, 0
0, 0
0, 0
0, 0
0, 0
0, 0
0, 0
0, 0
0, 0
#ENDOFDATA     end of spectrum data

File: ps__0852shot_2421.msa
#FORMAT      : EMSA/MAS spectral data file
#VERSION     : TC202v2.0 PIXL
#TITLE       : N/A
#DATE        :       Date in the format DD-MMM-YYYY, for example 07-JUL-2010
#TIME        :             The time of day at which the spectrum was recorded, in 24-hour format
#OWNER       : PIXL Flight Model       (PIXL will use this to indicate which instrument took the data.)
#NPOINTS     : 4096     Number of data points in the spectrum (This can be zero for configuration only files)
#NCOLUMNS    : 2     Number of data columns in the spectrum (This can be zero for configuration only files)
#XUNITS      : eV
#YUNITS      : COUNTS
#DATATYPE    : YY
#XPERCHAN    : 7.862, 7.881   eV per channel (separate by commas if more than one detector)
#OFFSET      : 18.5, -22.4         eV of first channel  (separate by commas if more than one detector
#SIGNALTYPE  : XRF
#YP_TEMP     : 2.364
#LIVETIME    : 8.52198, 8.34663   seconds (separate by commas if more than one detector)
#REALTIME    : 10, 10.0   seconds (separate by commas if more than one detector)
#SPECTRUM    : start of spectrum data
0, 0
0, 0
0, 0
0, 0
0, 0
0, 0
0, 0
0, 0
0, 2
0, 1
4, 3
42, 35
60, 61
9, 13
8, 11
80, 104
468, 441
106, 113
7, 9
6, 5
1, 2
6, 4
6, 2
17, 10
55, 67
35, 38
29, 25
10, 14
5, 4
3, 3
7, 4
8, 2
3, 8
25, 18
22, 17
7, 4
5, 6
8, 8
5, 13
6, 2
2, 5
17, 8
89, 17
103, 9
54, 9
12, 10
5, 4
5, 3
5, 8
21, 11
26, 15
15, 15
8, 13
26, 32
52, 69
26, 14
45, 56
439, 579
2133, 2293
1501, 1345
187, 115
22, 13
22, 36
95, 134
333, 347
199, 212
28, 21
3, 4
22, 17
9, 7
3, 3
6, 4
3, 2
10, 5
3, 15
4, 18
9, 10
3, 5
4, 3
2, 3
7, 4
9, 16
11, 9
7, 3
15, 4
13, 9
3, 4
7, 3
4, 4
2, 5
4, 4
1, 3
3, 3
5, 2
5, 5
3, 7
2, 2
5, 7
2, 3
4, 1
1, 3
6, 2
1, 1
2, 1
3, 0
1, 3
5, 4
3, 2
0, 2
4, 1
1, 1
4, 2
2, 2
0, 7
3, 3
2, 3
2, 5
8, 0
1, 4
0, 2
1, 0
0, 6
0, 1
0, 1
1, 1
0, 0
0, 2
1, 2
1, 3
0, 0
2, 2
0, 0
1, 1
1, 1
1, 0
0, 0
1, 0
0, 2
1, 1
1, 2
0, 2
1, 0
0, 0
1, 0
3, 0
2, 0
1, 0
0, 0
0, 0
0, 1
0, 0
0, 0
0, 1
0, 0
2, 0
0, 1
0, 0
0, 0
1, 0
0, 1
1, 0
0, 0
0, 0
2, 0
0, 0
0, 0
1, 0
1, 0
0, 0
0, 1
0, 0
0, 0
0, 0
0, 0
0, 0
0, 0
0, 0
0, 0
0, 0
0, 0
0, 0
0, 0
0, 0
0, 0
0, 0
0, 0
0, 0
0, 0
0, 0
0, 0
0, 0
0, 0
0, 0
0, 0
0, 0
0, 0
0, 0
0, 0
0, 0
1, 0
0, 0
0, 0
1, 0
0, 0
0, 0
0, 0
0, 0
0, 0
0, 0
0, 0
0, 0
0, 0
0, 0
0, 0
0, 0
0, 0
0, 0
0, 0
0, 0
0, 0
0, 0
0, 0
0, 0
0, 0
0, 0
0, 0
0, 0
0, 0
0, 0
0, 0
0, 0
0, 0
0, 0
0, 0
0, 0
0, 0
0, 0
0, 0
0, 0
0, 0
0, 0
0, 0
0, 0
0, 0
0, 0
0, 0
0, 0
0, 0
0, 0
0, 0
0, 0
0, 0
0, 0
0, 0
0, 0
0, 0
0, 0
0, 0
0, 0
0, 0
0, 0
0, 0
0, 0
0, 0
0, 0
0, 0
0, 0
0, 0
0, 0
0, 0
0, 0
0, 0
0, 0
0, 0
0, 0
0, 0
0, 0
0, 0
0, 0
0, 0
0, 0
0, 0
0, 0
0, 0
0, 0
0, 0
0, 0
0, 0
0, 0
0, 0
0, 0
0, 0
0, 0
0, 0
#ENDOFDATA     end of spectrum data

File: ps__0852shot_2422.msa
#FORMAT      : EMSA/MAS spectral data file
#VERSION     : TC202v2.0 PIXL
#TITLE       : N/A
#DATE        :       Date in the format DD-MMM-YYYY, for example 07-JUL-2010
#TIME        :             The time of day at which the spectrum was recorded, in 24-hour format
#OWNER       : PIXL Flight Model       (PIXL will use this to indicate which instrument took the data.)
#NPOINTS     : 4096     Number of data points in the spectrum (This can be zero for configuration only files)
#NCOLUMNS    : 2     Number of data columns in the spectrum (This can be zero for configuration only files)
#XUNITS      : eV
#YUNITS      : COUNTS
#DATATYPE    : YY
#XPERCHAN    : 7.862, 7.881   eV per channel (separate by commas if more than one detector)
#OFFSET      : 18.5, -22.4         eV of first channel  (separate by commas if more than one detector
#SIGNALTYPE  : XRF
#YP_TEMP     : 2.107
#LIVETIME    : 8.54882, 8.56871   seconds (separate by commas if more than one detector)
#REALTIME    : 10, 10.0   seconds (separate by commas if more than one detector)
#SPECTRUM    : start of spectrum data
0, 0
0, 0
0, 0
0, 0
0, 0
0, 0
0, 0
2, 0
0, 0
2, 1
2, 1
39, 39
59, 60
1, 3
2, 9
93, 109
465, 482
131, 105
8, 16
3, 7
2, 2
11, 11
4, 11
22, 33
78, 82
48, 50
27, 32
13, 12
3, 4
2, 0
2, 0
1, 3
5, 3
16, 10
20, 21
14, 6
6, 6
4, 9
4, 1
3, 2
3, 6
9, 12
26, 13
46, 13
66, 7
19, 16
4, 12
5, 3
8, 5
13, 18
12, 19
4, 14
13, 13
26, 31
53, 47
23, 23
44, 39
468, 603
2050, 2441
1571, 1403
192, 130
24, 25
15, 26
103, 118
322, 399
219, 168
27, 22
7, 7
12, 17
9, 8
5, 1
3, 2
6, 2
3, 9
13, 4
9, 15
3, 14
2, 3
6, 3
3, 1
5, 6
2, 6
13, 7
13, 2
7, 3
2, 3
5, 5
10, 2
7, 4
17, 5
3, 3
4, 8
6, 3
2, 1
4, 2
1, 7
0, 4
0, 3
4, 2
4, 6
2, 2
5, 1
2, 1
4, 0
3, 1
2, 2
1, 1
1, 1
3, 2
3, 2
1, 0
3, 2
1, 0
3, 3
2, 3
2, 4
3, 4
2, 3
4, 6
2, 3
1, 3
0, 0
0, 5
0, 2
0, 1
0, 1
2, 1
0, 1
0, 0
0, 1
2, 0
2, 2
0, 0
2, 0
0, 0
1, 0
1, 1
2, 0
0, 0
0, 2
0, 0
0, 0
1, 1
0, 0
2, 0
0, 1
1, 1
0, 0
0, 2
1, 2
0, 0
0, 0
0, 0
0, 0
0, 0
0, 0
0, 0
0, 0
0, 0
0, 1
0, 0
0, 0
0, 0
0, 1
0, 0
0, 0
0, 0
0, 0
2, 0
0, 0
0, 1
0, 0
0, 0
0, 0
0, 1
0, 1
0, 0
0, 0
1, 0
0, 0
0, 0
0, 0
0, 1
0, 0
0, 0
0, 0
0, 0
0, 0
0, 0
0, 1
0, 0
0, 0
1, 0
0, 0
0, 0
0, 0
0, 0
0, 0
0, 0
0, 1
0, 0
0, 0
0, 0
0, 0
0, 0
0, 0
0, 0
0, 0
0, 0
0, 0
0, 0
0, 0
0, 0
0, 0
0, 0
0, 0
0, 0
0, 0
0, 0
0, 0
0, 0
0, 0
0, 0
0, 0
0, 0
0, 0
0, 0
0, 0
0, 0
0, 0
0, 0
0, 0
0, 0
0, 0
0, 0
0, 0
0, 0
0, 0
0, 0
0, 0
0, 0
0, 0
0, 0
0, 0
0, 0
0, 0
0, 0
0, 0
0, 0
0, 0
0, 0
0, 0
0, 0
0, 0
0, 0
0, 0
0, 0
0, 0
0, 0
0, 0
0, 0
0, 0
0, 0
0, 0
0, 0
0, 0
0, 0
0, 0
0, 0
0, 0
0, 0
0, 0
0, 0
0, 0
0, 0
0, 0
0, 0
0, 0
0, 0
0, 0
0, 0
0, 0
0, 0
0, 0
0, 0
0, 0
0, 0
0, 0
0, 0
0, 0
0, 0
0, 0
0, 0
0, 0
#ENDOFDATA     end of spectrum data

File: ps__0852shot_2423.msa
#FORMAT      : EMSA/MAS spectral data file
#VERSION     : TC202v2.0 PIXL
#TITLE       : N/A
#DATE        :       Date in the format DD-MMM-YYYY, for example 07-JUL-2010
#TIME        :             The time of day at which the spectrum was recorded, in 24-hour format
#OWNER       : PIXL Flight Model       (PIXL will use this to indicate which instrument took the data.)
#NPOINTS     : 4096     Number of data points in the spectrum (This can be zero for configuration only files)
#NCOLUMNS    : 2     Number of data columns in the spectrum (This can be zero for configuration only files)
#XUNITS      : eV
#YUNITS      : COUNTS
#DATATYPE    : YY
#XPERCHAN    : 7.862, 7.881   eV per channel (separate by commas if more than one detector)
#OFFSET      : 18.5, -22.4         eV of first channel  (separate by commas if more than one detector
#SIGNALTYPE  : XRF
#YP_TEMP     : 2.492
#LIVETIME    : 8.55478, 8.56186   seconds (separate by commas if more than one detector)
#REALTIME    : 10, 10.0   seconds (separate by commas if more than one detector)
#SPECTRUM    : start of spectrum data
0, 0
0, 0
0, 0
0, 0
0, 0
0, 0
0, 0
0, 0
1, 1
2, 4
1, 4
51, 45
65, 47
4, 9
5, 1
89, 86
431, 392
98, 93
4, 17
7, 5
3, 1
3, 0
5, 4
11, 16
127, 38
150, 20
44, 21
20, 13
2, 2
5, 0
1, 0
2, 1
14, 7
33, 20
47, 22
67, 6
26, 7
2, 9
6, 4
6, 2
4, 9
10, 18
5, 18
4, 13
9, 11
6, 9
5, 13
8, 5
14, 6
22, 14
14, 13
14, 6
8, 21
36, 44
45, 55
20, 34
52, 40
537, 565
2211, 2320
1611, 1394
222, 126
22, 18
20, 25
108, 140
320, 334
236, 177
30, 26
15, 10
11, 17
9, 5
13, 4
9, 4
7, 9
9, 9
15, 7
12, 11
5, 5
5, 5
4, 1
3, 5
9, 2
6, 5
2, 7
4, 2
5, 7
3, 1
8, 4
8, 8
10, 4
10, 3
2, 4
3, 0
5, 3
1, 3
5, 4
6, 4
4, 6
3, 4
3, 0
5, 3
2, 2
4, 1
1, 2
2, 3
1, 2
3, 1
1, 4
1, 2
4, 3
1, 2
2, 4
1, 2
3, 1
3, 1
3, 2
4, 3
1, 2
0, 4
2, 2
3, 2
2, 3
2, 3
4, 2
0, 2
2, 3
1, 1
0, 0
0, 0
0, 2
2, 2
1, 1
1, 0
0, 1
0, 1
1, 0
3, 0
0, 0
1, 1
0, 1
1, 2
1, 0
2, 0
1, 1
1, 1
2, 1
2, 0
0, 0
1, 2
0, 1
1, 0
0, 1
1, 0
0, 0
0, 0
1, 0
0, 0
0, 1
0, 0
0, 0
1, 0
0, 0
0, 1
0, 0
0, 1
1, 0
0, 0
0, 0
0, 1
0, 0
2, 0
1, 0
0, 1
0, 0
0, 0
0, 0
0, 0
1, 0
0, 0
0, 0
0, 0
0, 1
0, 0
0, 0
0, 0
0, 1
1, 1
0, 0
0, 0
0, 0
0, 0
0, 0
0, 0
0, 0
0, 0
0, 0
0, 0
0, 0
0, 0
0, 0
0, 0
0, 0
0, 0
0, 0
0, 0
0, 0
0, 0
0, 0
0, 0
0, 0
0, 0
0, 0
0, 0
2, 0
0, 0
0, 0
0, 0
0, 0
0, 0
0, 0
0, 0
0, 0
0, 0
0, 0
0, 0
0, 0
0, 0
0, 0
0, 0
0, 0
0, 0
0, 0
0, 0
0, 0
0, 0
0, 0
0, 0
0, 0
0, 0
0, 0
0, 0
0, 0
0, 0
0, 0
0, 0
0, 0
0, 0
0, 0
0, 0
0, 0
0, 0
0, 0
0, 0
0, 0
0, 0
0, 0
0, 0
0, 0
0, 0
0, 0
0, 0
0, 0
0, 0
0, 0
0, 0
0, 0
0, 0
0, 0
0, 0
0, 0
0, 0
0, 0
0, 0
0, 0
0, 0
0, 0
0, 0
0, 0
0, 0
0, 0
0, 0
0, 0
0, 0
0, 0
0, 0
0, 0
0, 0
0, 0
0, 0
0, 0
0, 0
0, 0
0, 0
0, 0
0, 0
#ENDOFDATA     end of spectrum data

File: ps__0852shot_2424.msa
#FORMAT      : EMSA/MAS spectral data file
#VERSION     : TC202v2.0 PIXL
#TITLE       : N/A
#DATE        :       Date in the format DD-MMM-YYYY, for example 07-JUL-2010
#TIME        :             The time of day at which the spectrum was recorded, in 24-hour format
#OWNER       : PIXL Flight Model       (PIXL will use this to indicate which instrument took the data.)
#NPOINTS     : 4096     Number of data points in the spectrum (This can be zero for configuration only files)
#NCOLUMNS    : 2     Number of data columns in the spectrum (This can be zero for configuration only files)
#XUNITS      : eV
#YUNITS      : COUNTS
#DATATYPE    : YY
#XPERCHAN    : 7.862, 7.881   eV per channel (separate by commas if more than one detector)
#OFFSET      : 18.5, -22.4         eV of first channel  (separate by commas if more than one detector
#SIGNALTYPE  : XRF
#YP_TEMP     : 2.139
#LIVETIME    : 8.56051, 8.56594   seconds (separate by commas if more than one detector)
#REALTIME    : 10, 10.0   seconds (separate by commas if more than one detector)
#SPECTRUM    : start of spectrum data
0, 0
0, 0
0, 0
0, 0
0, 0
0, 0
0, 0
0, 0
4, 0
3, 0
2, 3
51, 51
72, 52
9, 3
5, 3
86, 107
465, 430
106, 99
9, 7
1, 0
2, 2
2, 3
5, 5
16, 6
193, 18
262, 28
43, 22
12, 28
8, 5
1, 1
1, 1
1, 0
8, 3
6, 7
34, 10
80, 3
30, 6
3, 8
2, 2
5, 3
5, 7
6, 25
9, 20
7, 6
4, 7
7, 3
4, 4
10, 4
27, 4
27, 14
16, 12
7, 48
8, 100
36, 80
57, 58
29, 21
32, 38
477, 569
2245, 2244
1572, 1364
198, 123
23, 12
28, 25
95, 104
343, 357
210, 213
23, 30
8, 28
16, 26
15, 5
14, 3
10, 6
9, 5
10, 2
4, 5
11, 5
4, 3
1, 12
7, 14
4, 12
4, 3
1, 7
8, 2
6, 9
8, 2
12, 4
4, 4
4, 5
2, 1
4, 0
2, 5
1, 6
1, 12
3, 7
6, 7
4, 8
7, 3
4, 1
2, 2
4, 1
0, 1
4, 1
4, 2
2, 2
6, 4
1, 4
3, 2
6, 3
8, 3
2, 2
6, 0
2, 2
4, 0
2, 2
1, 1
3, 0
1, 3
0, 3
2, 0
3, 2
0, 0
6, 0
0, 2
2, 3
1, 1
1, 1
3, 1
1, 0
2, 0
0, 2
1, 0
2, 1
2, 1
2, 0
1, 0
2, 0
2, 0
1, 0
0, 1
1, 1
1, 0
1, 1
0, 1
0, 1
1, 1
0, 3
2, 0
2, 0
0, 0
0, 1
0, 2
0, 0
0, 0
1, 0
0, 0
1, 1
0, 0
0, 0
0, 0
0, 0
0, 0
0, 0
0, 0
1, 0
1, 0
0, 0
0, 0
0, 0
0, 0
0, 1
0, 0
0, 0
0, 0
0, 1
3, 0
0, 0
1, 0
0, 0
0, 0
0, 0
0, 0
0, 0
0, 0
0, 0
0, 0
0, 0
0, 0
0, 0
0, 0
0, 0
0, 0
0, 1
1, 0
1, 0
0, 0
0, 0
0, 0
0, 0
0, 0
0, 0
0, 0
0, 0
1, 0
0, 0
0, 0
0, 0
0, 0
0, 1
0, 0
0, 0
0, 0
0, 0
0, 0
0, 0
0, 0
0, 0
1, 0
0, 0
0, 0
0, 0
0, 0
0, 0
0, 0
0, 0
0, 0
0, 0
0, 0
0, 0
0, 0
0, 0
0, 0
0, 0
0, 0
0, 0
0, 0
0, 0
0, 0
0, 0
0, 0
0, 0
0, 0
0, 0
0, 0
0, 0
0, 0
0, 0
0, 0
0, 0
0, 0
0, 0
0, 0
0, 0
0, 0
0, 0
0, 0
0, 0
0, 0
0, 0
0, 0
0, 0
0, 0
0, 0
0, 0
0, 0
0, 0
0, 0
0, 0
0, 0
0, 0
0, 0
0, 0
0, 0
0, 0
0, 0
0, 0
0, 0
0, 0
0, 0
0, 0
0, 0
0, 0
0, 0
0, 0
0, 0
0, 0
0, 0
0, 0
0, 0
0, 0
0, 0
0, 0
0, 0
0, 0
0, 0
#ENDOFDATA     end of spectrum data

File: ps__0852shot_2425.msa
#FORMAT      : EMSA/MAS spectral data file
#VERSION     : TC202v2.0 PIXL
#TITLE       : N/A
#DATE        :       Date in the format DD-MMM-YYYY, for example 07-JUL-2010
#TIME        :             The time of day at which the spectrum was recorded, in 24-hour format
#OWNER       : PIXL Flight Model       (PIXL will use this to indicate which instrument took the data.)
#NPOINTS     : 4096     Number of data points in the spectrum (This can be zero for configuration only files)
#NCOLUMNS    : 2     Number of data columns in the spectrum (This can be zero for configuration only files)
#XUNITS      : eV
#YUNITS      : COUNTS
#DATATYPE    : YY
#XPERCHAN    : 7.862, 7.881   eV per channel (separate by commas if more than one detector)
#OFFSET      : 18.5, -22.4         eV of first channel  (separate by commas if more than one detector
#SIGNALTYPE  : XRF
#YP_TEMP     : 2.3
#LIVETIME    : 8.54485, 8.5582   seconds (separate by commas if more than one detector)
#REALTIME    : 10, 10.0   seconds (separate by commas if more than one detector)
#SPECTRUM    : start of spectrum data
0, 0
0, 0
0, 0
0, 0
0, 0
0, 0
0, 0
0, 0
1, 0
2, 0
3, 6
48, 57
61, 80
6, 2
5, 2
86, 100
472, 408
99, 95
4, 1
1, 0
5, 0
2, 5
3, 3
6, 0
57, 36
68, 47
26, 32
13, 18
3, 6
2, 2
0, 2
1, 1
3, 0
2, 14
9, 12
8, 3
7, 1
2, 5
1, 3
5, 2
6, 12
5, 30
12, 21
7, 15
8, 7
2, 5
3, 5
10, 6
29, 4
29, 18
15, 15
5, 66
5, 130
39, 74
50, 54
19, 16
34, 37
443, 571
2104, 2439
1467, 1413
211, 148
30, 14
21, 21
110, 127
331, 394
225, 217
27, 42
5, 79
5, 40
9, 11
5, 4
3, 4
3, 4
10, 1
2, 4
5, 7
6, 5
2, 13
8, 15
4, 9
2, 5
4, 6
2, 2
6, 3
16, 3
11, 4
5, 1
2, 0
2, 4
4, 0
2, 5
0, 7
1, 17
0, 13
4, 5
6, 1
11, 0
12, 1
4, 0
1, 2
2, 1
4, 4
0, 2
1, 5
2, 6
2, 3
5, 2
2, 4
2, 2
2, 3
3, 7
1, 3
1, 2
1, 2
3, 2
1, 4
10, 4
2, 3
1, 2
1, 2
2, 2
1, 0
1, 2
2, 1
3, 1
1, 2
3, 2
1, 0
1, 0
0, 0
1, 2
0, 2
0, 1
0, 2
1, 1
1, 4
0, 1
2, 0
0, 1
2, 0
2, 0
0, 0
0, 0
1, 0
0, 2
0, 1
1, 0
0, 0
0, 0
1, 1
0, 0
0, 1
0, 0
0, 0
0, 0
0, 1
0, 0
0, 0
0, 0
0, 0
0, 0
0, 0
0, 0
0, 1
1, 0
0, 0
0, 0
0, 0
0, 0
0, 0
1, 1
0, 0
0, 0
1, 0
0, 0
0, 0
0, 0
0, 0
0, 0
0, 0
0, 1
0, 1
0, 0
0, 0
0, 0
0, 1
0, 0
0, 0
0, 1
0, 0
0, 0
0, 0
0, 0
0, 0
0, 0
0, 0
0, 0
0, 1
0, 0
0, 0
0, 0
0, 0
1, 0
0, 0
0, 0
1, 0
0, 0
0, 0
0, 0
0, 0
0, 0
0, 0
0, 0
0, 0
1, 0
0, 0
0, 0
0, 0
0, 0
0, 0
0, 0
0, 0
0, 0
0, 0
0, 0
0, 0
0, 0
0, 0
0, 0
0, 0
0, 0
0, 0
0, 0
0, 0
0, 0
0, 0
0, 0
0, 0
0, 0
0, 0
0, 0
0, 0
0, 0
0, 0
0, 0
0, 0
0, 0
0, 0
0, 0
0, 0
0, 0
0, 0
0, 0
0, 0
0, 0
0, 0
0, 0
0, 0
0, 0
0, 0
0, 0
0, 0
0, 0
0, 0
0, 0
0, 0
0, 0
0, 0
0, 0
0, 0
0, 0
0, 0
0, 0
0, 0
0, 0
0, 0
0, 0
0, 0
0, 0
0, 0
0, 0
0, 0
0, 0
0, 0
0, 0
0, 0
0, 0
0, 0
0, 0
0, 0
0, 0
0, 0
0, 0
0, 0
#ENDOFDATA     end of spectrum data

File: ps__0852shot_2426.msa
#FORMAT      : EMSA/MAS spectral data file
#VERSION     : TC202v2.0 PIXL
#TITLE       : N/A
#DATE        :       Date in the format DD-MMM-YYYY, for example 07-JUL-2010
#TIME        :             The time of day at which the spectrum was recorded, in 24-hour format
#OWNER       : PIXL Flight Model       (PIXL will use this to indicate which instrument took the data.)
#NPOINTS     : 4096     Number of data points in the spectrum (This can be zero for configuration only files)
#NCOLUMNS    : 2     Number of data columns in the spectrum (This can be zero for configuration only files)
#XUNITS      : eV
#YUNITS      : COUNTS
#DATATYPE    : YY
#XPERCHAN    : 7.862, 7.881   eV per channel (separate by commas if more than one detector)
#OFFSET      : 18.5, -22.4         eV of first channel  (separate by commas if more than one detector
#SIGNALTYPE  : XRF
#YP_TEMP     : 2.332
#LIVETIME    : 8.55229, 8.56278   seconds (separate by commas if more than one detector)
#REALTIME    : 10, 10.0   seconds (separate by commas if more than one detector)
#SPECTRUM    : start of spectrum data
0, 0
0, 0
0, 0
0, 0
0, 0
0, 0
0, 0
0, 0
0, 1
0, 4
1, 1
48, 44
72, 55
7, 8
1, 3
96, 96
428, 409
103, 91
3, 3
2, 1
2, 1
3, 5
2, 0
27, 12
55, 91
73, 121
27, 37
13, 19
1, 5
2, 3
1, 3
0, 1
5, 5
15, 12
11, 15
3, 2
5, 7
9, 3
6, 3
3, 2
6, 11
14, 30
16, 15
14, 10
9, 2
8, 3
7, 3
7, 20
24, 43
21, 37
15, 21
25, 22
42, 37
54, 54
62, 64
27, 25
32, 37
511, 637
2201, 2352
1566, 1386
209, 147
16, 22
17, 20
107, 118
347, 335
213, 180
45, 36
13, 44
26, 24
10, 4
0, 2
5, 4
7, 5
8, 6
9, 2
8, 10
10, 5
6, 5
3, 5
3, 9
6, 6
3, 3
5, 7
7, 2
6, 6
9, 0
1, 5
4, 2
4, 3
1, 2
1, 4
12, 4
4, 12
11, 8
11, 2
5, 4
6, 2
2, 8
3, 2
2, 6
3, 1
1, 6
0, 4
0, 7
1, 2
2, 1
2, 0
2, 3
3, 8
4, 6
2, 6
0, 1
1, 0
1, 4
4, 2
1, 1
3, 3
3, 3
2, 2
1, 0
2, 5
3, 5
4, 0
3, 3
2, 2
2, 1
1, 2
0, 3
1, 2
1, 2
0, 0
0, 1
2, 0
1, 0
2, 1
0, 0
1, 1
1, 1
0, 0
0, 1
0, 1
1, 1
0, 0
0, 0
0, 1
1, 1
0, 0
0, 0
3, 0
0, 0
0, 0
1, 2
0, 0
2, 0
0, 0
0, 0
0, 0
0, 0
1, 1
0, 0
0, 0
0, 0
0, 2
0, 0
1, 0
0, 0
0, 1
0, 0
0, 1
0, 0
1, 0
0, 0
0, 0
1, 1
0, 0
1, 0
0, 0
0, 0
0, 0
0, 0
0, 0
0, 0
0, 0
0, 0
0, 0
0, 0
0, 0
0, 0
0, 0
0, 0
0, 1
0, 0
0, 0
0, 0
0, 1
0, 0
0, 0
0, 0
0, 0
0, 0
0, 0
0, 0
0, 0
0, 0
0, 0
0, 0
0, 0
0, 0
0, 0
0, 0
0, 0
0, 0
0, 0
0, 0
0, 0
0, 0
0, 0
0, 0
0, 0
0, 0
0, 0
0, 0
0, 0
0, 0
0, 0
0, 0
0, 0
0, 0
0, 0
0, 0
0, 0
0, 0
0, 0
0, 0
0, 0
0, 0
0, 0
0, 0
0, 0
0, 0
0, 0
0, 0
0, 0
0, 0
0, 0
0, 0
0, 0
0, 0
0, 0
0, 0
0, 0
0, 0
0, 0
0, 0
0, 0
0, 0
0, 0
0, 0
0, 0
0, 0
0, 0
0, 0
0, 0
0, 0
0, 0
0, 0
0, 0
0, 0
0, 0
0, 0
0, 0
0, 0
0, 0
0, 0
0, 0
0, 0
0, 0
0, 0
0, 0
0, 0
0, 0
0, 0
0, 0
0, 0
0, 0
0, 0
0, 0
0, 0
0, 0
0, 0
0, 0
0, 0
0, 0
0, 0
#ENDOFDATA     end of spectrum data

File: ps__0852shot_2427.msa
#FORMAT      : EMSA/MAS spectral data file
#VERSION     : TC202v2.0 PIXL
#TITLE       : N/A
#DATE        :       Date in the format DD-MMM-YYYY, for example 07-JUL-2010
#TIME        :             The time of day at which the spectrum was recorded, in 24-hour format
#OWNER       : PIXL Flight Model       (PIXL will use this to indicate which instrument took the data.)
#NPOINTS     : 4096     Number of data points in the spectrum (This can be zero for configuration only files)
#NCOLUMNS    : 2     Number of data columns in the spectrum (This can be zero for configuration only files)
#XUNITS      : eV
#YUNITS      : COUNTS
#DATATYPE    : YY
#XPERCHAN    : 7.862, 7.881   eV per channel (separate by commas if more than one detector)
#OFFSET      : 18.5, -22.4         eV of first channel  (separate by commas if more than one detector
#SIGNALTYPE  : XRF
#YP_TEMP     : 2.267
#LIVETIME    : 8.58355, 8.54898   seconds (separate by commas if more than one detector)
#REALTIME    : 10, 10.0   seconds (separate by commas if more than one detector)
#SPECTRUM    : start of spectrum data
0, 0
0, 0
0, 0
0, 0
0, 0
0, 0
0, 0
0, 1
0, 0
4, 2
5, 2
43, 59
56, 58
13, 4
9, 6
106, 103
457, 369
111, 95
8, 2
1, 0
2, 0
5, 5
5, 3
22, 15
55, 33
75, 42
20, 13
14, 14
3, 4
1, 2
1, 0
2, 4
4, 2
44, 35
81, 60
22, 7
9, 5
16, 10
4, 3
3, 4
6, 9
16, 13
16, 10
7, 9
1, 7
2, 7
5, 6
9, 30
9, 93
23, 55
21, 14
36, 6
75, 8
74, 38
71, 55
18, 16
33, 31
499, 499
2254, 2141
1569, 1269
206, 105
11, 11
23, 15
86, 105
323, 340
259, 188
41, 31
50, 12
43, 15
15, 6
3, 3
6, 3
5, 4
9, 1
10, 11
6, 6
10, 12
10, 1
10, 4
4, 4
10, 6
4, 2
5, 2
3, 7
4, 5
2, 2
3, 2
2, 3
4, 1
5, 2
6, 1
5, 4
16, 6
11, 4
11, 4
4, 4
3, 3
3, 4
1, 1
1, 3
3, 2
2, 3
3, 1
3, 2
2, 3
0, 1
1, 1
1, 2
3, 2
2, 6
4, 3
2, 3
3, 0
4, 0
2, 1
1, 1
4, 5
0, 2
2, 1
0, 0
1, 1
0, 4
1, 3
1, 1
1, 1
2, 0
0, 1
0, 1
3, 0
1, 0
0, 0
2, 0
1, 3
0, 1
5, 1
1, 0
1, 2
1, 1
0, 0
0, 0
0, 1
1, 0
1, 0
0, 1
1, 0
2, 1
1, 1
0, 1
0, 2
1, 2
0, 0
0, 0
0, 0
0, 0
3, 1
0, 0
2, 1
1, 0
0, 0
0, 0
0, 0
0, 0
0, 1
0, 0
0, 1
0, 0
0, 0
0, 0
0, 1
2, 1
0, 0
0, 0
2, 1
0, 0
0, 0
0, 0
0, 0
0, 0
1, 0
0, 0
0, 0
0, 0
0, 0
0, 0
0, 0
0, 0
0, 0
1, 0
0, 0
0, 0
0, 0
0, 1
0, 0
0, 0
0, 0
0, 0
0, 0
0, 0
0, 0
0, 0
0, 0
0, 0
0, 0
0, 0
0, 0
0, 0
0, 0
1, 0
0, 0
0, 0
0, 0
0, 0
0, 0
0, 0
0, 0
0, 0
0, 0
0, 0
0, 0
0, 0
0, 0
0, 0
0, 0
0, 0
0, 0
0, 0
0, 0
0, 0
0, 0
0, 0
0, 0
0, 0
0, 0
0, 0
0, 0
0, 0
0, 0
0, 0
0, 0
0, 0
0, 0
0, 0
0, 0
0, 0
0, 0
0, 0
0, 0
0, 0
0, 0
0, 0
0, 0
0, 0
0, 0
0, 0
0, 0
0, 0
0, 0
0, 0
0, 0
0, 0
0, 0
0, 0
0, 0
0, 0
0, 0
0, 0
0, 0
0, 0
0, 0
0, 0
0, 0
0, 0
0, 0
0, 0
0, 0
0, 0
0, 0
0, 0
0, 0
0, 0
0, 0
0, 0
0, 0
0, 0
0, 0
0, 0
0, 0
0, 0
0, 0
0, 0
0, 0
0, 0
0, 0
0, 0
#ENDOFDATA     end of spectrum data

File: ps__0852shot_2428.msa
#FORMAT      : EMSA/MAS spectral data file
#VERSION     : TC202v2.0 PIXL
#TITLE       : N/A
#DATE        :       Date in the format DD-MMM-YYYY, for example 07-JUL-2010
#TIME        :             The time of day at which the spectrum was recorded, in 24-hour format
#OWNER       : PIXL Flight Model       (PIXL will use this to indicate which instrument took the data.)
#NPOINTS     : 4096     Number of data points in the spectrum (This can be zero for configuration only files)
#NCOLUMNS    : 2     Number of data columns in the spectrum (This can be zero for configuration only files)
#XUNITS      : eV
#YUNITS      : COUNTS
#DATATYPE    : YY
#XPERCHAN    : 7.862, 7.881   eV per channel (separate by commas if more than one detector)
#OFFSET      : 18.5, -22.4         eV of first channel  (separate by commas if more than one detector
#SIGNALTYPE  : XRF
#YP_TEMP     : 2.46
#LIVETIME    : 8.56911, 8.55737   seconds (separate by commas if more than one detector)
#REALTIME    : 10, 10.0   seconds (separate by commas if more than one detector)
#SPECTRUM    : start of spectrum data
0, 0
0, 0
0, 0
0, 0
0, 0
0, 0
0, 0
0, 0
1, 0
1, 2
2, 0
38, 55
60, 54
3, 8
3, 0
96, 102
438, 380
105, 83
8, 4
0, 1
3, 1
2, 2
2, 5
4, 6
23, 25
33, 25
18, 8
14, 12
3, 4
1, 3
2, 2
1, 2
4, 8
42, 45
78, 58
18, 10
8, 5
16, 9
7, 5
5, 3
6, 2
18, 10
15, 10
10, 11
7, 3
6, 3
6, 2
9, 4
7, 19
19, 27
23, 21
11, 4
20, 11
33, 42
87, 69
33, 22
26, 41
448, 543
1969, 2283
1397, 1313
189, 126
15, 12
17, 29
102, 115
314, 361
219, 169
35, 28
32, 11
25, 12
8, 13
5, 8
2, 4
3, 8
3, 7
3, 22
3, 11
3, 7
5, 7
5, 5
5, 3
9, 3
13, 2
10, 1
6, 3
4, 6
7, 6
2, 6
3, 1
6, 2
5, 2
3, 2
3, 2
2, 1
3, 4
7, 6
2, 5
1, 2
5, 1
6, 5
5, 3
2, 3
0, 0
3, 2
1, 6
3, 2
4, 3
3, 1
1, 3
2, 3
0, 2
2, 1
0, 2
3, 3
2, 1
3, 2
4, 1
3, 5
3, 6
3, 6
1, 2
0, 0
0, 1
1, 2
1, 2
1, 1
1, 1
0, 2
1, 2
0, 0
1, 1
0, 1
0, 0
0, 0
0, 0
1, 1
0, 0
1, 0
0, 0
0, 0
0, 1
0, 0
1, 0
1, 0
1, 0
1, 2
0, 1
1, 1
0, 0
2, 0
0, 1
1, 1
0, 1
0, 0
0, 1
0, 0
0, 0
0, 0
0, 0
0, 0
0, 0
0, 1
0, 0
0, 0
0, 0
0, 0
0, 0
1, 0
1, 1
1, 0
1, 1
0, 0
2, 0
0, 0
0, 0
0, 0
0, 0
0, 0
0, 0
0, 0
0, 1
0, 0
0, 0
0, 0
0, 0
0, 0
1, 0
0, 0
0, 0
0, 0
0, 0
0, 0
0, 0
0, 0
2, 0
0, 0
0, 0
0, 0
0, 0
0, 0
0, 0
0, 0
0, 0
0, 0
0, 0
0, 0
0, 0
0, 0
0, 0
0, 0
0, 0
0, 0
0, 0
0, 0
0, 0
0, 0
0, 0
0, 0
0, 0
0, 0
0, 0
0, 0
0, 0
1, 0
0, 0
0, 0
0, 0
0, 0
0, 0
0, 0
0, 0
0, 0
0, 0
0, 0
0, 0
0, 0
0, 0
0, 0
0, 0
0, 0
0, 0
0, 0
0, 0
0, 0
0, 0
0, 0
0, 0
0, 0
0, 0
0, 0
0, 0
0, 0
0, 0
0, 0
0, 0
0, 0
0, 0
0, 0
0, 0
0, 0
0, 0
0, 0
0, 0
0, 0
0, 0
0, 0
0, 0
0, 0
0, 0
0, 0
0, 0
0, 0
0, 0
0, 0
0, 0
0, 0
0, 0
0, 0
0, 0
0, 0
0, 0
0, 0
0, 0
0, 0
0, 0
0, 0
0, 0
0, 0
0, 0
0, 0
0, 0
0, 0
0, 0
0, 0
0, 0
#ENDOFDATA     end of spectrum data