Folder: data-repository/host_upload/06-09-2024/ps_0852/dump3 (part 53)

File: ps__0852shot_2474.msa
#FORMAT      : EMSA/MAS spectral data file
#VERSION     : TC202v2.0 PIXL
#TITLE       : N/A
#DATE        :       Date in the format DD-MMM-YYYY, for example 07-JUL-2010
#TIME        :             The time of day at which the spectrum was recorded, in 24-hour format
#OWNER       : PIXL Flight Model       (PIXL will use this to indicate which instrument took the data.)
#NPOINTS     : 4096     Number of data points in the spectrum (This can be zero for configuration only files)
#NCOLUMNS    : 2     Number of data columns in the spectrum (This can be zero for configuration only files)
#XUNITS      : eV
#YUNITS      : COUNTS
#DATATYPE    : YY
#XPERCHAN    : 7.862, 7.881   eV per channel (separate by commas if more than one detector)
#OFFSET      : 18.5, -22.4         eV of first channel  (separate by commas if more than one detector
#SIGNALTYPE  : XRF
#YP_TEMP     : 2.3
#LIVETIME    : 8.54153, 8.55293   seconds (separate by commas if more than one detector)
#REALTIME    : 10, 10.0   seconds (separate by commas if more than one detector)
#SPECTRUM    : start of spectrum data
0, 0
0, 0
0, 0
0, 0
0, 0
0, 0
0, 0
0, 0
1, 3
4, 1
3, 0
32, 31
57, 44
7, 2
6, 2
86, 88
409, 386
96, 80
10, 10
4, 4
38, 43
196, 216
81, 84
28, 23
47, 43
40, 33
36, 22
19, 19
4, 4
1, 3
4, 1
6, 2
4, 2
62, 63
113, 98
24, 12
24, 14
28, 12
7, 6
6, 3
4, 4
21, 13
15, 15
12, 16
9, 5
5, 5
6, 7
16, 3
15, 9
50, 28
38, 26
9, 7
10, 15
32, 48
67, 45
20, 20
35, 30
419, 519
1958, 2096
1505, 1148
181, 102
27, 12
27, 27
103, 95
328, 317
223, 182
31, 23
6, 15
15, 16
11, 9
4, 3
4, 6
11, 3
5, 5
3, 5
4, 10
1, 8
11, 3
4, 4
7, 7
5, 1
0, 2
7, 4
3, 4
4, 10
4, 7
4, 4
4, 10
6, 4
8, 1
2, 3
3, 3
6, 2
6, 1
2, 5
5, 4
3, 2
7, 4
1, 3
3, 0
5, 4
4, 3
0, 3
3, 2
1, 4
3, 1
0, 1
3, 0
2, 2
1, 2
4, 1
1, 1
4, 1
2, 1
1, 1
1, 4
5, 2
2, 1
1, 4
0, 1
1, 1
1, 1
4, 1
2, 2
0, 3
1, 2
0, 1
1, 0
0, 2
0, 0
2, 0
1, 0
2, 1
0, 1
1, 1
0, 1
0, 0
0, 0
0, 0
1, 1
0, 2
2, 0
0, 1
0, 0
0, 0
0, 0
0, 0
0, 0
0, 1
0, 0
0, 0
0, 0
1, 1
1, 1
1, 0
0, 0
0, 0
0, 0
0, 0
1, 0
0, 0
0, 0
0, 0
0, 0
0, 0
0, 0
0, 0
0, 0
0, 0
0, 0
0, 1
0, 2
0, 0
1, 1
0, 0
0, 0
0, 0
0, 1
0, 0
0, 0
0, 0
0, 0
0, 1
0, 0
0, 0
0, 0
0, 0
0, 0
0, 0
0, 0
0, 0
0, 0
0, 1
0, 0
0, 0
0, 0
1, 0
1, 0
0, 0
0, 0
0, 0
1, 0
0, 1
0, 0
0, 0
0, 0
0, 0
0, 0
0, 0
0, 0
0, 0
0, 0
0, 0
0, 0
0, 0
0, 0
0, 0
0, 0
0, 0
0, 0
0, 0
0, 0
0, 0
0, 0
0, 0
0, 0
0, 0
0, 0
0, 0
0, 0
0, 0
0, 0
0, 0
0, 0
0, 0
0, 0
0, 0
0, 0
0, 0
0, 0
0, 0
0, 0
0, 0
0, 0
0, 0
0, 0
0, 0
0, 0
0, 0
0, 0
0, 0
0, 0
0, 0
0, 0
0, 0
0, 0
0, 0
0, 0
0, 0
0, 0
0, 0
0, 0
0, 0
0, 0
0, 0
0, 0
0, 0
0, 0
0, 0
0, 0
0, 0
0, 0
0, 0
0, 0
0, 0
0, 0
0, 0
0, 0
0, 0
0, 0
0, 0
0, 0
0, 0
0, 0
0, 0
0, 0
0, 0
0, 0
0, 0
0, 0
0, 0
0, 0
0, 0
0, 0
#ENDOFDATA     end of spectrum data

File: ps__0852shot_2475.msa
#FORMAT      : EMSA/MAS spectral data file
#VERSION     : TC202v2.0 PIXL
#TITLE       : N/A
#DATE        :       Date in the format DD-MMM-YYYY, for example 07-JUL-2010
#TIME        :             The time of day at which the spectrum was recorded, in 24-hour format
#OWNER       : PIXL Flight Model       (PIXL will use this to indicate which instrument took the data.)
#NPOINTS     : 4096     Number of data points in the spectrum (This can be zero for configuration only files)
#NCOLUMNS    : 2     Number of data columns in the spectrum (This can be zero for configuration only files)
#XUNITS      : eV
#YUNITS      : COUNTS
#DATATYPE    : YY
#XPERCHAN    : 7.862, 7.881   eV per channel (separate by commas if more than one detector)
#OFFSET      : 18.5, -22.4         eV of first channel  (separate by commas if more than one detector
#SIGNALTYPE  : XRF
#YP_TEMP     : 2.267
#LIVETIME    : 8.55506, 8.55573   seconds (separate by commas if more than one detector)
#REALTIME    : 10, 10.0   seconds (separate by commas if more than one detector)
#SPECTRUM    : start of spectrum data
0, 0
0, 0
0, 0
0, 0
0, 0
0, 0
0, 0
0, 0
0, 0
0, 1
1, 3
38, 46
63, 42
4, 8
6, 7
91, 97
481, 472
90, 107
5, 9
2, 2
10, 16
82, 89
44, 40
25, 16
56, 46
80, 40
83, 27
22, 16
7, 6
1, 2
4, 0
2, 3
5, 5
39, 53
73, 69
16, 16
16, 11
13, 17
6, 6
2, 5
3, 5
4, 7
11, 13
8, 14
4, 3
4, 7
7, 7
5, 6
12, 9
39, 15
48, 12
36, 7
19, 14
37, 39
48, 79
25, 67
34, 47
420, 616
2061, 2440
1431, 1382
174, 139
21, 40
24, 23
97, 119
315, 357
206, 200
23, 37
7, 14
11, 17
7, 15
4, 6
2, 7
5, 7
2, 3
7, 5
6, 12
11, 19
7, 11
6, 9
4, 5
6, 5
7, 3
1, 6
2, 0
2, 4
2, 3
6, 2
5, 2
2, 2
2, 1
5, 4
1, 3
1, 8
5, 3
2, 1
1, 3
2, 1
5, 3
2, 1
0, 3
3, 0
4, 3
4, 3
0, 1
1, 4
3, 1
3, 3
4, 4
1, 2
1, 3
2, 0
2, 1
4, 2
4, 4
3, 3
0, 2
2, 2
0, 2
0, 1
0, 0
3, 1
1, 6
1, 2
0, 3
0, 1
1, 2
0, 1
1, 1
1, 2
0, 1
1, 1
2, 2
0, 1
0, 2
1, 0
2, 0
1, 0
2, 1
1, 1
0, 0
0, 0
1, 1
0, 2
0, 0
0, 0
0, 0
0, 1
0, 0
1, 0
0, 0
1, 0
0, 2
0, 0
1, 0
1, 0
0, 1
0, 0
0, 1
2, 0
0, 0
2, 1
0, 0
0, 0
1, 0
0, 0
0, 0
0, 2
0, 1
2, 0
1, 1
1, 0
1, 0
0, 0
1, 0
1, 0
0, 0
0, 0
0, 0
0, 0
0, 0
0, 0
0, 1
0, 0
0, 0
0, 0
0, 0
0, 0
0, 0
0, 0
0, 0
0, 0
0, 0
0, 0
0, 0
0, 0
0, 1
0, 0
0, 0
0, 0
0, 0
0, 0
0, 0
0, 0
0, 0
0, 0
1, 0
0, 0
0, 0
0, 0
0, 0
0, 0
0, 0
0, 0
0, 0
0, 0
0, 0
0, 0
0, 0
0, 0
0, 0
0, 0
0, 0
0, 0
0, 0
0, 0
0, 0
0, 0
0, 0
0, 0
0, 0
0, 0
0, 0
0, 0
0, 0
0, 0
0, 0
0, 0
0, 0
0, 0
0, 0
0, 0
0, 0
0, 0
0, 0
0, 0
0, 0
0, 0
0, 0
0, 0
0, 0
0, 0
0, 0
0, 0
0, 0
0, 0
0, 0
0, 0
0, 0
0, 0
0, 0
0, 0
0, 0
0, 0
0, 0
0, 0
0, 0
0, 0
0, 0
0, 0
0, 0
0, 0
0, 0
0, 0
0, 0
0, 0
0, 0
0, 0
0, 0
0, 0
0, 0
0, 0
0, 0
0, 0
0, 0
0, 0
0, 0
0, 0
0, 0
0, 0
0, 0
0, 0
0, 0
0, 0
0, 0
#ENDOFDATA     end of spectrum data

File: ps__0852shot_2476.msa
#FORMAT      : EMSA/MAS spectral data file
#VERSION     : TC202v2.0 PIXL
#TITLE       : N/A
#DATE        :       Date in the format DD-MMM-YYYY, for example 07-JUL-2010
#TIME        :             The time of day at which the spectrum was recorded, in 24-hour format
#OWNER       : PIXL Flight Model       (PIXL will use this to indicate which instrument took the data.)
#NPOINTS     : 4096     Number of data points in the spectrum (This can be zero for configuration only files)
#NCOLUMNS    : 2     Number of data columns in the spectrum (This can be zero for configuration only files)
#XUNITS      : eV
#YUNITS      : COUNTS
#DATATYPE    : YY
#XPERCHAN    : 7.862, 7.881   eV per channel (separate by commas if more than one detector)
#OFFSET      : 18.5, -22.4         eV of first channel  (separate by commas if more than one detector
#SIGNALTYPE  : XRF
#YP_TEMP     : 2.46
#LIVETIME    : 8.55906, 8.55545   seconds (separate by commas if more than one detector)
#REALTIME    : 10, 10.0   seconds (separate by commas if more than one detector)
#SPECTRUM    : start of spectrum data
0, 0
0, 0
0, 0
0, 0
0, 0
0, 0
0, 0
0, 0
1, 1
0, 1
2, 3
39, 38
55, 41
5, 9
4, 7
114, 85
420, 412
100, 90
3, 4
1, 2
10, 9
25, 29
12, 10
9, 6
39, 35
70, 33
66, 33
17, 22
2, 3
1, 3
1, 2
8, 2
1, 2
13, 15
16, 9
4, 6
7, 3
3, 4
9, 5
3, 4
5, 8
4, 6
10, 18
7, 7
2, 4
7, 4
5, 5
2, 7
4, 6
16, 19
45, 13
63, 8
22, 16
44, 53
59, 77
25, 59
39, 55
477, 595
2304, 2282
1671, 1377
203, 151
18, 23
25, 31
94, 131
352, 386
230, 208
26, 40
5, 14
9, 17
11, 7
6, 1
3, 7
5, 5
5, 5
2, 9
7, 9
16, 23
15, 13
8, 7
5, 3
6, 3
6, 4
1, 2
3, 1
4, 0
1, 4
3, 5
5, 4
5, 3
3, 4
4, 2
0, 3
3, 6
6, 1
3, 3
3, 1
3, 1
3, 5
1, 2
3, 1
1, 1
3, 4
5, 3
2, 0
3, 3
1, 1
2, 1
0, 3
3, 3
1, 3
3, 2
1, 4
0, 5
1, 3
1, 2
1, 2
1, 1
2, 2
3, 1
0, 2
2, 2
2, 1
1, 3
2, 0
1, 1
0, 1
3, 0
1, 2
3, 1
1, 0
1, 0
1, 0
1, 0
0, 3
1, 1
0, 1
1, 0
1, 0
2, 1
0, 1
1, 1
1, 0
0, 1
1, 0
0, 0
0, 1
1, 1
2, 1
0, 0
0, 1
1, 1
0, 0
0, 1
0, 1
0, 0
0, 1
0, 0
0, 0
0, 2
0, 0
0, 0
1, 0
0, 2
1, 0
1, 1
0, 0
2, 0
0, 0
0, 0
0, 0
0, 0
0, 0
0, 0
0, 1
1, 0
0, 0
0, 0
0, 0
0, 0
0, 2
0, 0
0, 0
0, 0
0, 0
0, 1
0, 1
0, 0
0, 0
0, 0
0, 0
0, 0
0, 0
0, 1
0, 1
0, 0
0, 0
0, 0
0, 0
0, 1
0, 0
0, 0
0, 0
0, 0
0, 0
0, 0
0, 0
0, 0
0, 0
0, 0
1, 0
0, 0
0, 0
0, 0
0, 0
0, 0
0, 0
0, 0
0, 0
0, 0
0, 0
0, 0
0, 0
0, 0
0, 0
0, 0
0, 0
0, 0
0, 0
0, 0
0, 0
0, 0
0, 0
0, 0
0, 0
0, 0
0, 0
0, 0
0, 0
0, 0
0, 0
0, 0
0, 0
0, 0
0, 0
0, 0
0, 0
0, 0
0, 0
0, 0
0, 0
0, 0
0, 0
0, 0
0, 0
0, 0
0, 0
0, 0
0, 0
0, 0
0, 0
0, 0
0, 0
0, 0
0, 0
0, 0
0, 0
0, 0
0, 0
0, 0
0, 0
0, 0
0, 0
0, 0
0, 0
0, 0
0, 0
0, 0
0, 0
0, 0
0, 0
0, 0
0, 0
0, 0
0, 0
0, 0
0, 0
0, 0
0, 0
0, 0
0, 0
0, 0
0, 0
0, 0
0, 0
#ENDOFDATA     end of spectrum data

File: ps__0852shot_2477.msa
#FORMAT      : EMSA/MAS spectral data file
#VERSION     : TC202v2.0 PIXL
#TITLE       : N/A
#DATE        :       Date in the format DD-MMM-YYYY, for example 07-JUL-2010
#TIME        :             The time of day at which the spectrum was recorded, in 24-hour format
#OWNER       : PIXL Flight Model       (PIXL will use this to indicate which instrument took the data.)
#NPOINTS     : 4096     Number of data points in the spectrum (This can be zero for configuration only files)
#NCOLUMNS    : 2     Number of data columns in the spectrum (This can be zero for configuration only files)
#XUNITS      : eV
#YUNITS      : COUNTS
#DATATYPE    : YY
#XPERCHAN    : 7.862, 7.881   eV per channel (separate by commas if more than one detector)
#OFFSET      : 18.5, -22.4         eV of first channel  (separate by commas if more than one detector
#SIGNALTYPE  : XRF
#YP_TEMP     : 2.396
#LIVETIME    : 8.56134, 8.56406   seconds (separate by commas if more than one detector)
#REALTIME    : 10, 10.0   seconds (separate by commas if more than one detector)
#SPECTRUM    : start of spectrum data
0, 0
0, 0
0, 0
0, 0
0, 0
0, 0
0, 0
0, 1
1, 0
1, 0
2, 5
27, 33
67, 50
8, 5
8, 5
98, 83
424, 401
89, 84
4, 6
3, 2
8, 1
16, 25
12, 9
9, 10
42, 29
64, 42
52, 30
11, 17
3, 6
1, 2
3, 3
2, 1
1, 3
32, 20
47, 42
12, 7
7, 2
11, 5
7, 6
9, 2
8, 4
9, 8
15, 12
11, 5
11, 2
6, 7
6, 11
6, 6
8, 10
24, 19
39, 10
46, 7
19, 15
33, 46
65, 71
20, 44
18, 51
516, 526
2285, 2143
1630, 1321
208, 130
18, 26
27, 15
88, 124
342, 343
226, 192
33, 28
7, 10
9, 16
8, 7
4, 3
7, 6
3, 6
3, 5
4, 9
10, 6
12, 12
10, 9
5, 5
1, 6
2, 3
5, 1
0, 5
2, 9
2, 5
2, 5
1, 3
1, 1
3, 2
6, 4
1, 1
4, 0
4, 1
3, 5
3, 1
5, 0
3, 3
1, 3
0, 1
3, 4
2, 0
5, 6
5, 1
1, 1
1, 1
3, 4
3, 3
5, 2
1, 2
5, 1
2, 1
1, 0
1, 2
1, 2
2, 2
1, 4
7, 1
2, 4
1, 1
1, 0
1, 1
2, 1
1, 2
4, 2
1, 0
1, 0
1, 1
1, 0
2, 2
3, 0
1, 3
0, 0
1, 2
1, 0
0, 0
1, 1
0, 0
0, 0
0, 0
1, 3
0, 0
0, 1
0, 1
0, 1
1, 0
0, 0
0, 0
1, 0
0, 0
1, 1
0, 3
0, 0
0, 0
0, 1
1, 1
1, 0
1, 0
1, 0
0, 0
0, 0
0, 0
0, 1
0, 0
1, 0
2, 0
0, 0
0, 0
0, 0
0, 1
0, 0
0, 1
1, 0
1, 0
1, 0
0, 0
0, 0
0, 0
1, 0
0, 0
0, 0
0, 0
0, 0
0, 0
0, 0
0, 0
0, 0
1, 0
0, 0
0, 0
0, 0
0, 0
0, 0
0, 0
0, 0
0, 0
0, 0
0, 0
0, 0
0, 0
0, 0
0, 0
0, 0
0, 0
0, 0
0, 0
0, 0
0, 0
0, 0
0, 0
0, 0
0, 0
0, 0
0, 0
0, 0
0, 0
0, 0
0, 0
0, 0
0, 0
0, 0
0, 0
0, 0
0, 0
0, 0
0, 0
0, 0
0, 0
0, 0
0, 0
0, 0
0, 0
0, 0
0, 0
0, 0
1, 0
0, 0
0, 0
0, 0
0, 0
0, 0
0, 0
0, 0
0, 0
0, 0
0, 0
0, 0
0, 0
0, 0
0, 0
0, 0
0, 0
0, 0
0, 0
0, 0
0, 0
0, 0
0, 0
0, 0
0, 0
0, 0
0, 0
0, 0
0, 0
0, 0
0, 0
0, 0
0, 0
0, 0
0, 0
0, 0
0, 0
0, 0
0, 0
0, 0
0, 0
0, 0
0, 0
0, 0
0, 0
0, 0
0, 0
0, 0
0, 0
0, 0
0, 0
0, 0
0, 0
0, 0
0, 0
0, 0
0, 0
0, 0
0, 0
0, 0
#ENDOFDATA     end of spectrum data

File: ps__0852shot_2478.msa
#FORMAT      : EMSA/MAS spectral data file
#VERSION     : TC202v2.0 PIXL
#TITLE       : N/A
#DATE        :       Date in the format DD-MMM-YYYY, for example 07-JUL-2010
#TIME        :             The time of day at which the spectrum was recorded, in 24-hour format
#OWNER       : PIXL Flight Model       (PIXL will use this to indicate which instrument took the data.)
#NPOINTS     : 4096     Number of data points in the spectrum (This can be zero for configuration only files)
#NCOLUMNS    : 2     Number of data columns in the spectrum (This can be zero for configuration only files)
#XUNITS      : eV
#YUNITS      : COUNTS
#DATATYPE    : YY
#XPERCHAN    : 7.862, 7.881   eV per channel (separate by commas if more than one detector)
#OFFSET      : 18.5, -22.4         eV of first channel  (separate by commas if more than one detector
#SIGNALTYPE  : XRF
#YP_TEMP     : 2.524
#LIVETIME    : 8.56462, 8.56704   seconds (separate by commas if more than one detector)
#REALTIME    : 10, 10.0   seconds (separate by commas if more than one detector)
#SPECTRUM    : start of spectrum data
0, 0
0, 0
0, 0
0, 0
0, 0
0, 0
0, 0
0, 0
1, 0
1, 2
4, 1
57, 41
62, 58
7, 5
7, 4
101, 110
479, 467
100, 106
4, 1
2, 1
0, 2
6, 8
4, 2
7, 5
32, 26
32, 24
23, 15
6, 16
4, 4
4, 2
3, 2
2, 2
11, 1
46, 13
35, 25
9, 7
3, 4
7, 3
2, 3
3, 8
2, 2
6, 2
16, 16
16, 14
5, 5
11, 6
6, 12
5, 12
4, 9
18, 7
31, 6
22, 33
18, 31
52, 55
58, 50
20, 25
33, 29
493, 592
2247, 2235
1518, 1358
183, 137
16, 12
22, 21
109, 118
342, 319
259, 165
34, 22
11, 8
17, 16
4, 3
6, 2
4, 3
3, 2
6, 8
9, 7
13, 5
4, 5
3, 5
7, 5
3, 6
3, 3
7, 2
5, 9
0, 19
2, 29
3, 4
2, 5
3, 8
1, 5
2, 4
3, 6
4, 7
2, 2
5, 2
1, 5
5, 3
5, 2
4, 4
2, 1
4, 3
4, 2
3, 2
6, 3
6, 5
0, 2
2, 4
3, 2
2, 4
0, 5
3, 1
1, 3
2, 3
2, 6
1, 4
2, 3
2, 5
3, 6
1, 1
2, 3
2, 1
1, 1
1, 0
2, 0
0, 1
0, 0
1, 2
0, 2
3, 0
0, 1
0, 0
0, 2
0, 0
2, 1
1, 0
0, 0
0, 0
3, 0
0, 0
0, 1
1, 0
1, 0
0, 2
1, 1
0, 2
0, 0
3, 0
1, 0
0, 0
1, 1
0, 0
0, 1
1, 0
0, 0
0, 0
1, 0
0, 1
1, 0
0, 0
0, 0
0, 1
0, 0
0, 0
1, 0
0, 0
0, 0
0, 0
0, 0
0, 0
0, 0
0, 0
0, 0
0, 0
0, 0
0, 0
1, 0
0, 0
2, 0
0, 1
0, 0
0, 0
0, 0
0, 1
0, 0
0, 1
0, 0
0, 0
0, 0
1, 0
0, 0
0, 1
0, 0
0, 1
0, 0
0, 0
0, 0
0, 0
1, 0
0, 0
0, 0
0, 0
1, 0
0, 0
0, 0
0, 0
1, 0
0, 0
0, 0
0, 0
0, 0
0, 0
0, 0
0, 0
0, 0
0, 0
0, 0
0, 0
0, 0
0, 0
0, 0
0, 0
0, 0
0, 0
0, 0
0, 0
0, 0
0, 0
0, 0
0, 0
0, 0
0, 0
0, 0
0, 0
0, 0
0, 0
0, 0
0, 0
0, 0
0, 0
0, 0
0, 0
0, 0
0, 0
0, 0
0, 0
0, 0
0, 0
0, 0
0, 0
0, 0
0, 0
0, 0
0, 0
0, 0
0, 0
0, 0
0, 0
0, 0
0, 0
0, 0
0, 0
0, 0
0, 0
0, 0
0, 0
0, 0
0, 0
0, 0
0, 0
0, 0
0, 0
0, 0
0, 0
0, 0
0, 0
0, 0
0, 0
0, 0
0, 0
0, 0
0, 0
0, 0
0, 0
0, 0
0, 0
0, 0
0, 0
0, 0
0, 0
0, 0
0, 0
0, 0
0, 0
0, 0
0, 0
#ENDOFDATA     end of spectrum data

File: ps__0852shot_2479.msa
#FORMAT      : EMSA/MAS spectral data file
#VERSION     : TC202v2.0 PIXL
#TITLE       : N/A
#DATE        :       Date in the format DD-MMM-YYYY, for example 07-JUL-2010
#TIME        :             The time of day at which the spectrum was recorded, in 24-hour format
#OWNER       : PIXL Flight Model       (PIXL will use this to indicate which instrument took the data.)
#NPOINTS     : 4096     Number of data points in the spectrum (This can be zero for configuration only files)
#NCOLUMNS    : 2     Number of data columns in the spectrum (This can be zero for configuration only files)
#XUNITS      : eV
#YUNITS      : COUNTS
#DATATYPE    : YY
#XPERCHAN    : 7.862, 7.881   eV per channel (separate by commas if more than one detector)
#OFFSET      : 18.5, -22.4         eV of first channel  (separate by commas if more than one detector
#SIGNALTYPE  : XRF
#YP_TEMP     : 2.46
#LIVETIME    : 8.56763, 8.56886   seconds (separate by commas if more than one detector)
#REALTIME    : 10, 10.0   seconds (separate by commas if more than one detector)
#SPECTRUM    : start of spectrum data
0, 0
0, 0
0, 0
0, 0
0, 0
0, 0
0, 0
0, 1
0, 0
1, 0
8, 1
41, 43
58, 67
6, 5
5, 1
127, 104
485, 431
109, 98
5, 3
0, 1
3, 2
2, 1
8, 1
4, 2
19, 23
32, 26
14, 19
10, 6
2, 2
1, 3
0, 2
4, 4
15, 3
47, 23
32, 14
7, 2
7, 0
2, 6
8, 4
5, 7
0, 3
9, 10
15, 15
10, 11
4, 3
4, 8
2, 11
0, 11
12, 15
22, 10
27, 12
17, 30
9, 51
55, 33
71, 49
25, 19
37, 33
483, 570
2249, 2175
1645, 1327
215, 121
19, 12
19, 24
92, 120
296, 325
241, 185
36, 25
10, 12
19, 17
10, 7
1, 6
2, 6
2, 8
4, 7
6, 7
7, 5
3, 7
5, 4
3, 5
8, 5
4, 3
2, 5
3, 3
2, 21
5, 12
5, 4
5, 1
7, 2
3, 3
3, 4
5, 7
7, 2
4, 3
3, 2
4, 5
3, 4
3, 2
3, 1
2, 5
4, 2
6, 3
2, 3
3, 1
1, 2
2, 2
3, 2
3, 1
0, 3
1, 2
0, 3
2, 2
5, 0
4, 1
3, 4
2, 3
4, 5
3, 3
3, 2
3, 1
1, 1
0, 2
0, 1
1, 2
0, 0
1, 1
2, 1
1, 1
1, 2
1, 0
1, 2
1, 1
0, 2
1, 0
0, 1
2, 0
2, 1
0, 1
1, 0
0, 0
0, 1
0, 0
1, 1
0, 0
2, 0
0, 0
2, 1
1, 0
0, 0
0, 0
0, 0
1, 0
0, 4
0, 0
0, 0
0, 3
0, 2
0, 0
2, 0
0, 1
0, 0
0, 0
0, 2
0, 0
1, 0
0, 0
1, 0
0, 0
0, 1
1, 0
0, 0
0, 0
0, 0
0, 0
0, 0
1, 0
0, 1
0, 0
0, 0
0, 0
0, 0
0, 0
0, 0
0, 0
0, 0
0, 0
0, 0
0, 0
0, 0
0, 0
0, 0
0, 0
0, 0
0, 0
0, 0
0, 1
0, 0
0, 0
0, 1
0, 0
0, 0
0, 1
0, 0
0, 0
0, 0
0, 0
0, 0
0, 0
0, 0
0, 0
0, 0
0, 0
0, 1
0, 0
0, 0
0, 0
0, 0
0, 0
0, 0
0, 0
0, 0
0, 0
0, 0
0, 0
0, 0
0, 0
0, 0
0, 0
0, 0
0, 0
0, 0
0, 0
0, 0
0, 0
0, 0
0, 0
0, 0
0, 0
0, 0
0, 0
0, 0
0, 0
0, 0
0, 0
0, 0
0, 0
0, 0
0, 0
0, 0
0, 0
0, 0
0, 0
0, 0
0, 0
0, 0
0, 0
0, 0
0, 0
0, 0
0, 0
0, 0
0, 0
0, 0
0, 0
0, 0
0, 0
0, 0
0, 0
0, 0
0, 0
0, 0
0, 0
0, 0
0, 0
0, 0
0, 0
0, 0
0, 0
0, 0
0, 0
0, 0
0, 0
0, 0
0, 0
0, 0
0, 0
0, 0
0, 0
0, 0
0, 0
0, 0
0, 0
0, 0
0, 0
0, 0
#ENDOFDATA     end of spectrum data

File: ps__0852shot_2480.msa
#FORMAT      : EMSA/MAS spectral data file
#VERSION     : TC202v2.0 PIXL
#TITLE       : N/A
#DATE        :       Date in the format DD-MMM-YYYY, for example 07-JUL-2010
#TIME        :             The time of day at which the spectrum was recorded, in 24-hour format
#OWNER       : PIXL Flight Model       (PIXL will use this to indicate which instrument took the data.)
#NPOINTS     : 4096     Number of data points in the spectrum (This can be zero for configuration only files)
#NCOLUMNS    : 2     Number of data columns in the spectrum (This can be zero for configuration only files)
#XUNITS      : eV
#YUNITS      : COUNTS
#DATATYPE    : YY
#XPERCHAN    : 7.862, 7.881   eV per channel (separate by commas if more than one detector)
#OFFSET      : 18.5, -22.4         eV of first channel  (separate by commas if more than one detector
#SIGNALTYPE  : XRF
#YP_TEMP     : 2.203
#LIVETIME    : 8.58167, 8.5644   seconds (separate by commas if more than one detector)
#REALTIME    : 10, 10.0   seconds (separate by commas if more than one detector)
#SPECTRUM    : start of spectrum data
0, 0
0, 0
0, 0
0, 0
0, 0
0, 0
0, 0
2, 0
0, 0
2, 1
4, 4
54, 40
71, 59
7, 2
4, 1
106, 78
426, 371
116, 88
7, 6
1, 2
3, 1
3, 3
1, 3
1, 4
20, 16
34, 26
28, 22
17, 7
5, 3
1, 2
0, 2
2, 2
9, 5
32, 4
20, 13
3, 1
5, 4
5, 5
2, 7
6, 4
6, 5
13, 6
22, 20
12, 15
7, 2
12, 4
4, 6
2, 9
19, 18
66, 41
54, 29
25, 22
15, 29
52, 43
88, 40
37, 26
31, 36
517, 484
2337, 2070
1636, 1281
175, 126
21, 14
29, 22
111, 110
314, 318
229, 182
28, 17
9, 7
13, 9
12, 5
4, 2
5, 2
4, 5
2, 8
7, 5
7, 4
7, 6
4, 5
2, 5
5, 7
2, 6
4, 7
2, 11
3, 19
3, 14
0, 5
3, 5
3, 7
3, 5
2, 6
4, 2
1, 0
4, 1
4, 2
3, 4
3, 2
2, 0
7, 2
4, 3
7, 1
3, 2
7, 6
3, 1
0, 2
1, 3
5, 2
2, 0
4, 2
1, 0
1, 1
1, 1
2, 3
1, 0
4, 3
2, 1
2, 3
9, 3
2, 3
3, 0
0, 0
3, 2
4, 3
1, 2
0, 1
1, 0
2, 0
0, 1
0, 2
0, 0
0, 1
0, 0
0, 0
0, 0
1, 1
0, 1
0, 1
1, 0
2, 3
1, 1
0, 0
1, 0
1, 0
0, 1
0, 0
1, 0
0, 0
0, 0
0, 0
0, 0
0, 1
0, 0
2, 1
0, 0
0, 0
3, 1
0, 0
0, 0
1, 0
0, 1
1, 0
0, 0
0, 1
0, 0
0, 0
0, 0
1, 0
0, 0
0, 1
0, 0
0, 0
0, 0
0, 1
0, 0
1, 0
1, 0
0, 1
0, 0
0, 0
0, 0
0, 0
0, 0
0, 0
0, 0
0, 0
0, 0
1, 1
0, 0
0, 0
0, 0
0, 0
0, 0
0, 0
0, 0
0, 0
0, 0
0, 0
0, 0
0, 0
0, 0
0, 0
0, 0
0, 0
0, 0
0, 0
0, 1
0, 0
0, 0
0, 0
0, 0
0, 0
0, 0
0, 1
0, 1
0, 0
0, 0
0, 0
0, 0
0, 0
0, 0
0, 0
0, 0
0, 0
0, 0
0, 0
0, 0
0, 0
0, 0
0, 0
0, 0
0, 0
0, 0
0, 0
0, 0
0, 0
0, 0
0, 0
0, 0
0, 0
0, 0
0, 0
0, 0
0, 0
0, 0
0, 0
0, 0
0, 0
0, 0
0, 0
0, 0
0, 0
0, 0
0, 0
0, 0
0, 0
0, 0
0, 0
0, 0
0, 0
0, 0
0, 0
0, 0
0, 0
0, 0
0, 0
0, 0
0, 0
0, 0
0, 0
0, 0
0, 0
0, 0
0, 0
0, 0
0, 0
0, 0
0, 0
0, 0
0, 0
0, 0
0, 0
0, 0
0, 0
0, 0
0, 0
0, 0
0, 0
0, 0
0, 0
0, 0
0, 0
0, 0
0, 0
0, 0
0, 0
#ENDOFDATA     end of spectrum data

File: ps__0852shot_2481.msa
#FORMAT      : EMSA/MAS spectral data file
#VERSION     : TC202v2.0 PIXL
#TITLE       : N/A
#DATE        :       Date in the format DD-MMM-YYYY, for example 07-JUL-2010
#TIME        :             The time of day at which the spectrum was recorded, in 24-hour format
#OWNER       : PIXL Flight Model       (PIXL will use this to indicate which instrument took the data.)
#NPOINTS     : 4096     Number of data points in the spectrum (This can be zero for configuration only files)
#NCOLUMNS    : 2     Number of data columns in the spectrum (This can be zero for configuration only files)
#XUNITS      : eV
#YUNITS      : COUNTS
#DATATYPE    : YY
#XPERCHAN    : 7.862, 7.881   eV per channel (separate by commas if more than one detector)
#OFFSET      : 18.5, -22.4         eV of first channel  (separate by commas if more than one detector
#SIGNALTYPE  : XRF
#YP_TEMP     : 2.364
#LIVETIME    : 8.59659, 8.55715   seconds (separate by commas if more than one detector)
#REALTIME    : 10, 10.0   seconds (separate by commas if more than one detector)
#SPECTRUM    : start of spectrum data
0, 0
0, 0
0, 0
0, 0
0, 0
0, 0
0, 0
0, 0
0, 0
0, 1
2, 1
50, 66
70, 51
6, 3
6, 5
111, 92
440, 378
95, 83
5, 4
2, 1
1, 1
4, 1
3, 1
9, 12
22, 23
46, 33
25, 21
25, 16
12, 6
1, 1
6, 2
1, 2
6, 10
16, 11
25, 21
11, 8
6, 3
6, 7
5, 7
2, 10
7, 14
21, 19
21, 15
7, 12
6, 7
10, 5
7, 2
8, 11
34, 52
238, 253
193, 159
29, 27
17, 13
64, 67
96, 99
46, 71
33, 65
446, 561
2076, 2093
1486, 1277
203, 114
16, 14
24, 30
99, 102
287, 307
226, 164
36, 13
14, 6
14, 15
8, 9
3, 2
6, 3
4, 2
9, 3
6, 5
6, 6
5, 2
4, 4
5, 6
9, 1
4, 7
4, 1
2, 7
6, 11
4, 10
4, 4
3, 3
1, 3
2, 9
3, 2
2, 3
2, 4
3, 1
3, 1
5, 8
4, 4
2, 2
1, 3
0, 3
6, 4
1, 2
3, 5
4, 1
6, 0
7, 4
0, 2
2, 1
3, 3
3, 0
0, 4
2, 1
2, 2
3, 1
2, 2
1, 2
0, 1
3, 0
4, 2
1, 1
2, 0
4, 1
2, 2
2, 1
0, 0
0, 1
1, 0
1, 1
1, 0
1, 0
0, 1
1, 2
0, 1
0, 0
1, 1
2, 0
1, 5
0, 0
0, 2
0, 0
0, 0
0, 2
1, 0
0, 0
0, 0
0, 0
0, 1
0, 0
0, 1
0, 0
1, 1
0, 1
0, 1
1, 1
0, 0
0, 1
1, 0
0, 0
0, 0
0, 0
0, 1
0, 0
0, 0
0, 0
1, 0
0, 0
1, 0
0, 0
0, 0
0, 1
0, 1
0, 0
0, 0
0, 0
0, 1
0, 0
0, 0
1, 0
1, 1
1, 0
0, 0
0, 0
0, 0
0, 0
0, 0
1, 0
0, 0
0, 0
0, 0
0, 0
0, 0
0, 0
0, 1
0, 0
1, 0
0, 0
0, 1
0, 0
0, 0
0, 0
1, 0
1, 0
0, 0
0, 0
0, 0
0, 0
0, 0
0, 0
0, 0
0, 0
0, 0
0, 0
0, 0
0, 0
0, 0
0, 0
0, 0
0, 0
0, 0
0, 0
0, 0
0, 0
0, 0
0, 0
0, 0
0, 0
0, 0
0, 0
0, 0
0, 0
0, 0
0, 0
0, 0
0, 0
0, 0
0, 0
0, 0
0, 0
0, 0
0, 0
0, 0
0, 0
0, 0
0, 0
0, 0
0, 0
0, 0
0, 0
0, 0
0, 0
0, 0
0, 0
0, 0
0, 0
0, 0
0, 0
0, 0
0, 0
0, 0
0, 0
0, 0
0, 0
0, 0
0, 0
0, 0
0, 0
0, 0
0, 0
0, 0
0, 0
0, 0
0, 0
0, 0
0, 0
0, 0
0, 0
0, 0
0, 0
0, 0
0, 0
0, 0
0, 0
0, 0
0, 0
0, 0
0, 0
0, 0
0, 0
0, 0
0, 0
0, 0
0, 0
0, 0
0, 0
0, 0
#ENDOFDATA     end of spectrum data

File: ps__0852shot_2482.msa
#FORMAT      : EMSA/MAS spectral data file
#VERSION     : TC202v2.0 PIXL
#TITLE       : N/A
#DATE        :       Date in the format DD-MMM-YYYY, for example 07-JUL-2010
#TIME        :             The time of day at which the spectrum was recorded, in 24-hour format
#OWNER       : PIXL Flight Model       (PIXL will use this to indicate which instrument took the data.)
#NPOINTS     : 4096     Number of data points in the spectrum (This can be zero for configuration only files)
#NCOLUMNS    : 2     Number of data columns in the spectrum (This can be zero for configuration only files)
#XUNITS      : eV
#YUNITS      : COUNTS
#DATATYPE    : YY
#XPERCHAN    : 7.862, 7.881   eV per channel (separate by commas if more than one detector)
#OFFSET      : 18.5, -22.4         eV of first channel  (separate by commas if more than one detector
#SIGNALTYPE  : XRF
#YP_TEMP     : 2.235
#LIVETIME    : 8.59211, 8.55805   seconds (separate by commas if more than one detector)
#REALTIME    : 10, 10.0   seconds (separate by commas if more than one detector)
#SPECTRUM    : start of spectrum data
0, 0
0, 0
0, 0
0, 0
0, 0
0, 0
0, 0
0, 0
0, 0
1, 1
4, 2
36, 29
71, 41
4, 5
3, 2
94, 73
461, 382
126, 105
3, 4
2, 4
3, 0
0, 2
2, 5
9, 8
29, 30
56, 39
42, 17
15, 16
3, 1
1, 5
0, 0
4, 0
4, 9
44, 51
67, 77
15, 15
14, 10
13, 22
5, 6
4, 16
5, 11
16, 10
12, 17
10, 14
10, 7
8, 12
5, 9
12, 6
14, 10
53, 52
59, 28
34, 13
13, 31
45, 86
74, 92
29, 57
26, 52
423, 584
2067, 2144
1421, 1259
153, 113
13, 16
23, 27
114, 128
305, 315
211, 172
31, 22
10, 10
11, 11
6, 13
8, 3
6, 1
6, 4
20, 1
21, 8
6, 13
6, 6
5, 5
4, 8
4, 5
5, 5
5, 5
6, 9
4, 6
5, 3
4, 4
6, 5
4, 3
6, 5
5, 14
3, 14
8, 8
1, 3
4, 3
4, 3
2, 3
3, 2
5, 3
0, 3
1, 4
2, 4
1, 0
1, 4
4, 4
2, 2
1, 4
2, 1
0, 2
2, 2
1, 0
1, 5
2, 4
2, 6
4, 1
4, 4
4, 3
4, 3
4, 3
0, 2
1, 2
0, 5
0, 3
2, 2
1, 1
1, 3
1, 2
1, 1
1, 0
3, 1
3, 0
0, 0
1, 0
1, 1
0, 1
0, 3
0, 2
0, 0
1, 2
0, 1
1, 1
1, 0
2, 0
0, 0
1, 1
0, 1
0, 1
0, 0
1, 0
0, 0
0, 0
0, 1
1, 2
1, 1
0, 0
1, 1
0, 0
0, 0
0, 0
1, 1
0, 1
0, 0
0, 0
0, 0
0, 0
0, 0
0, 0
0, 2
0, 0
0, 0
1, 1
0, 1
1, 1
0, 1
0, 1
0, 0
0, 0
0, 0
0, 0
0, 0
0, 0
0, 0
0, 0
0, 0
0, 0
1, 0
0, 0
0, 0
0, 0
0, 0
0, 0
0, 0
0, 0
0, 0
0, 0
0, 0
0, 0
0, 0
0, 0
0, 0
0, 0
0, 0
0, 0
0, 0
0, 0
0, 0
0, 0
0, 0
0, 0
0, 0
0, 0
0, 0
0, 0
0, 0
0, 0
0, 0
0, 0
0, 0
0, 0
0, 0
0, 0
0, 0
0, 0
0, 0
0, 0
0, 0
0, 0
0, 0
0, 0
0, 0
0, 0
0, 0
0, 0
0, 0
0, 0
0, 0
0, 0
0, 0
0, 0
0, 0
0, 0
0, 0
0, 0
0, 0
0, 0
0, 0
0, 0
0, 0
0, 0
0, 0
0, 0
0, 0
0, 0
0, 0
0, 0
0, 0
0, 0
0, 0
0, 0
0, 0
0, 0
0, 0
0, 0
0, 0
0, 0
0, 0
0, 0
0, 0
0, 0
0, 0
0, 0
0, 0
0, 0
0, 0
0, 0
0, 0
0, 0
0, 0
0, 0
0, 0
0, 0
0, 0
0, 0
0, 0
0, 0
0, 0
0, 0
0, 0
0, 0
0, 0
0, 0
0, 0
0, 0
0, 0
0, 0
#ENDOFDATA     end of spectrum data