Folder: data-repository/host_upload/06-09-2024/ps_0852/dump3 (part 51)

File: ps__0852shot_2456.msa
#FORMAT      : EMSA/MAS spectral data file
#VERSION     : TC202v2.0 PIXL
#TITLE       : N/A
#DATE        :       Date in the format DD-MMM-YYYY, for example 07-JUL-2010
#TIME        :             The time of day at which the spectrum was recorded, in 24-hour format
#OWNER       : PIXL Flight Model       (PIXL will use this to indicate which instrument took the data.)
#NPOINTS     : 4096     Number of data points in the spectrum (This can be zero for configuration only files)
#NCOLUMNS    : 2     Number of data columns in the spectrum (This can be zero for configuration only files)
#XUNITS      : eV
#YUNITS      : COUNTS
#DATATYPE    : YY
#XPERCHAN    : 7.862, 7.881   eV per channel (separate by commas if more than one detector)
#OFFSET      : 18.5, -22.4         eV of first channel  (separate by commas if more than one detector
#SIGNALTYPE  : XRF
#YP_TEMP     : 2.332
#LIVETIME    : 8.51593, 8.56157   seconds (separate by commas if more than one detector)
#REALTIME    : 10, 10.0   seconds (separate by commas if more than one detector)
#SPECTRUM    : start of spectrum data
0, 0
0, 0
0, 0
0, 0
0, 0
0, 0
0, 0
0, 0
0, 1
0, 2
2, 6
50, 45
57, 45
5, 5
4, 6
106, 118
478, 427
108, 89
6, 1
0, 1
17, 16
72, 57
30, 23
17, 14
53, 54
43, 36
18, 28
14, 13
6, 4
2, 1
7, 3
2, 0
13, 4
88, 84
128, 119
30, 30
12, 31
18, 12
6, 7
2, 3
7, 3
6, 28
15, 36
7, 21
5, 2
13, 17
4, 14
1, 6
6, 16
25, 54
23, 31
8, 11
11, 23
31, 41
67, 58
20, 14
41, 36
430, 487
2098, 2116
1471, 1195
165, 109
23, 13
22, 25
121, 123
321, 305
206, 167
27, 24
11, 7
13, 8
11, 3
1, 8
2, 7
1, 7
1, 7
4, 4
6, 6
6, 6
6, 19
6, 8
11, 5
14, 4
10, 0
2, 4
8, 1
5, 11
6, 5
4, 4
4, 3
4, 2
6, 3
2, 8
4, 7
4, 3
7, 3
6, 3
9, 4
6, 2
3, 4
3, 1
1, 2
6, 3
3, 5
5, 0
5, 2
1, 3
5, 2
5, 4
5, 1
5, 3
4, 2
1, 2
2, 3
2, 4
2, 0
1, 1
3, 4
3, 3
2, 3
4, 1
0, 1
1, 0
1, 1
1, 2
2, 2
1, 0
1, 3
1, 1
1, 0
2, 1
0, 0
0, 0
1, 0
0, 0
3, 0
0, 2
0, 0
1, 0
0, 0
2, 0
1, 1
2, 0
2, 1
1, 0
0, 1
1, 0
0, 0
1, 1
0, 1
0, 2
1, 0
0, 1
0, 0
1, 0
0, 0
0, 0
0, 0
1, 2
2, 0
0, 0
0, 1
0, 0
0, 0
2, 0
1, 0
0, 1
1, 2
0, 0
1, 1
0, 0
0, 0
0, 1
0, 0
0, 1
0, 0
0, 0
1, 0
0, 0
0, 0
0, 0
0, 0
1, 0
0, 0
0, 0
0, 0
0, 0
0, 0
0, 0
0, 0
0, 0
0, 0
0, 0
1, 0
0, 0
0, 1
0, 1
0, 0
0, 0
0, 0
0, 0
0, 0
0, 0
0, 0
0, 0
0, 0
0, 0
0, 0
0, 0
1, 0
0, 0
0, 0
0, 0
0, 0
0, 0
0, 0
0, 0
0, 0
0, 0
0, 0
0, 0
0, 0
0, 0
0, 0
0, 0
0, 0
0, 0
0, 0
0, 0
0, 0
0, 0
0, 0
0, 0
0, 0
0, 0
0, 0
0, 0
0, 0
0, 0
0, 0
0, 0
0, 0
0, 0
0, 0
0, 0
0, 0
0, 0
0, 0
0, 0
0, 0
0, 0
0, 0
0, 0
0, 0
0, 0
0, 0
0, 0
0, 0
0, 0
0, 0
0, 0
0, 0
0, 0
0, 0
0, 0
0, 0
0, 0
0, 0
0, 0
0, 0
0, 0
0, 0
0, 0
0, 0
0, 0
0, 0
0, 0
0, 0
0, 0
0, 0
0, 0
0, 0
0, 0
0, 0
0, 0
0, 0
0, 0
0, 0
0, 0
0, 0
0, 0
0, 0
0, 0
0, 0
0, 0
0, 0
#ENDOFDATA     end of spectrum data

File: ps__0852shot_2457.msa
#FORMAT      : EMSA/MAS spectral data file
#VERSION     : TC202v2.0 PIXL
#TITLE       : N/A
#DATE        :       Date in the format DD-MMM-YYYY, for example 07-JUL-2010
#TIME        :             The time of day at which the spectrum was recorded, in 24-hour format
#OWNER       : PIXL Flight Model       (PIXL will use this to indicate which instrument took the data.)
#NPOINTS     : 4096     Number of data points in the spectrum (This can be zero for configuration only files)
#NCOLUMNS    : 2     Number of data columns in the spectrum (This can be zero for configuration only files)
#XUNITS      : eV
#YUNITS      : COUNTS
#DATATYPE    : YY
#XPERCHAN    : 7.862, 7.881   eV per channel (separate by commas if more than one detector)
#OFFSET      : 18.5, -22.4         eV of first channel  (separate by commas if more than one detector
#SIGNALTYPE  : XRF
#YP_TEMP     : 2.332
#LIVETIME    : 8.52711, 8.5466   seconds (separate by commas if more than one detector)
#REALTIME    : 10, 10.0   seconds (separate by commas if more than one detector)
#SPECTRUM    : start of spectrum data
0, 0
0, 0
0, 0
0, 0
0, 0
0, 0
0, 0
0, 0
1, 1
0, 0
2, 2
46, 47
66, 48
6, 7
5, 3
89, 95
469, 401
98, 97
4, 8
1, 1
12, 11
70, 80
34, 27
21, 10
38, 28
38, 31
21, 20
15, 14
5, 10
1, 3
2, 0
5, 1
6, 1
35, 26
40, 52
4, 27
8, 20
7, 4
2, 3
5, 1
4, 5
7, 8
15, 18
9, 8
4, 8
6, 24
5, 18
4, 11
6, 8
29, 31
48, 31
18, 19
4, 11
51, 36
62, 63
37, 32
22, 46
442, 562
2080, 2347
1482, 1367
205, 124
23, 13
27, 18
101, 114
338, 340
215, 193
23, 24
8, 12
11, 12
10, 4
5, 9
7, 6
4, 5
3, 6
4, 5
5, 4
6, 7
6, 7
6, 5
7, 4
7, 5
9, 3
8, 3
14, 4
3, 7
7, 5
7, 5
6, 2
2, 4
2, 8
2, 4
3, 8
2, 10
4, 4
3, 2
7, 1
5, 2
3, 4
2, 4
1, 3
2, 2
4, 4
2, 3
3, 2
1, 2
2, 1
1, 2
3, 6
0, 7
1, 2
2, 2
1, 3
2, 1
2, 2
2, 1
1, 2
8, 3
4, 4
3, 1
2, 1
0, 0
3, 1
5, 4
0, 2
1, 1
1, 0
0, 2
0, 1
2, 2
1, 2
0, 2
1, 1
1, 2
3, 0
0, 2
1, 1
1, 1
0, 0
0, 0
1, 0
0, 0
1, 0
1, 2
1, 0
1, 0
1, 0
1, 0
0, 0
0, 2
1, 2
0, 0
1, 0
0, 0
0, 0
0, 0
1, 0
0, 0
0, 0
0, 1
0, 0
0, 0
0, 0
0, 0
1, 0
0, 1
1, 0
1, 1
0, 0
0, 0
0, 0
0, 0
0, 1
0, 0
0, 0
0, 0
0, 1
0, 0
0, 0
0, 0
0, 0
0, 0
0, 1
0, 0
0, 0
0, 0
0, 0
0, 0
1, 0
0, 0
0, 0
0, 0
0, 0
0, 0
0, 0
0, 0
0, 0
0, 0
0, 0
0, 0
0, 0
0, 0
0, 0
0, 0
0, 0
0, 0
0, 0
0, 0
0, 0
0, 0
0, 0
0, 0
0, 0
0, 0
0, 0
0, 0
0, 0
0, 0
0, 0
0, 0
0, 0
0, 0
0, 0
0, 0
0, 0
0, 0
0, 0
0, 0
0, 0
0, 0
0, 0
0, 0
0, 0
0, 0
0, 0
0, 0
0, 0
0, 0
0, 0
0, 0
0, 0
0, 0
0, 0
0, 0
0, 0
0, 0
0, 0
0, 0
0, 0
0, 0
0, 0
0, 0
0, 0
0, 0
0, 0
0, 0
0, 0
0, 0
0, 0
0, 0
0, 0
0, 0
0, 0
0, 0
0, 0
0, 0
0, 0
0, 0
0, 0
0, 0
0, 0
0, 0
0, 0
0, 0
0, 0
0, 0
0, 0
0, 0
0, 0
0, 0
0, 0
0, 0
0, 0
0, 0
0, 0
0, 0
0, 0
0, 0
0, 0
0, 0
0, 0
0, 0
0, 0
0, 0
0, 0
#ENDOFDATA     end of spectrum data

File: ps__0852shot_2458.msa
#FORMAT      : EMSA/MAS spectral data file
#VERSION     : TC202v2.0 PIXL
#TITLE       : N/A
#DATE        :       Date in the format DD-MMM-YYYY, for example 07-JUL-2010
#TIME        :             The time of day at which the spectrum was recorded, in 24-hour format
#OWNER       : PIXL Flight Model       (PIXL will use this to indicate which instrument took the data.)
#NPOINTS     : 4096     Number of data points in the spectrum (This can be zero for configuration only files)
#NCOLUMNS    : 2     Number of data columns in the spectrum (This can be zero for configuration only files)
#XUNITS      : eV
#YUNITS      : COUNTS
#DATATYPE    : YY
#XPERCHAN    : 7.862, 7.881   eV per channel (separate by commas if more than one detector)
#OFFSET      : 18.5, -22.4         eV of first channel  (separate by commas if more than one detector
#SIGNALTYPE  : XRF
#YP_TEMP     : 2.235
#LIVETIME    : 8.54539, 8.54694   seconds (separate by commas if more than one detector)
#REALTIME    : 10, 10.0   seconds (separate by commas if more than one detector)
#SPECTRUM    : start of spectrum data
0, 0
0, 0
0, 0
0, 0
0, 0
0, 0
0, 0
0, 0
0, 0
1, 1
3, 2
43, 41
61, 72
6, 9
4, 4
109, 99
440, 506
103, 92
6, 5
0, 3
2, 6
29, 25
10, 7
11, 6
18, 29
24, 20
22, 13
13, 14
3, 4
2, 1
2, 1
3, 1
2, 4
9, 12
17, 13
2, 4
3, 1
3, 4
3, 3
2, 4
3, 1
6, 5
10, 16
6, 10
4, 3
11, 8
5, 6
6, 5
14, 5
44, 15
94, 17
49, 7
16, 6
41, 57
107, 50
43, 21
35, 31
465, 584
2099, 2426
1475, 1426
197, 148
14, 16
12, 19
69, 116
324, 371
210, 202
26, 32
4, 7
5, 14
14, 8
3, 4
7, 8
10, 10
3, 4
4, 5
7, 2
7, 4
8, 6
4, 0
10, 6
14, 4
27, 7
17, 9
6, 4
5, 3
7, 6
6, 4
5, 3
3, 5
3, 8
1, 4
1, 4
2, 2
4, 3
4, 3
2, 1
1, 1
1, 2
7, 3
3, 1
10, 5
4, 2
2, 2
4, 1
1, 0
2, 2
1, 2
2, 3
3, 2
3, 2
6, 2
1, 1
4, 3
0, 4
1, 3
3, 3
6, 5
3, 11
2, 2
4, 1
2, 2
0, 1
4, 2
1, 1
0, 1
1, 0
1, 0
0, 0
0, 2
1, 1
2, 1
1, 1
1, 1
0, 0
2, 2
3, 0
2, 2
0, 1
1, 4
0, 1
2, 0
0, 2
1, 1
0, 1
1, 0
1, 0
0, 0
0, 0
0, 0
1, 0
1, 1
1, 2
0, 0
0, 0
1, 2
1, 0
0, 2
1, 0
1, 1
1, 0
0, 0
0, 0
0, 0
0, 1
0, 0
0, 0
0, 0
1, 0
0, 1
0, 0
0, 2
0, 1
0, 0
0, 0
0, 0
0, 0
1, 0
0, 0
1, 0
0, 0
0, 0
1, 0
1, 0
0, 1
0, 0
0, 0
0, 0
0, 0
0, 0
0, 0
0, 1
0, 0
0, 0
0, 0
0, 0
0, 0
0, 0
0, 0
0, 0
0, 0
0, 0
0, 0
0, 0
0, 0
1, 0
0, 1
0, 0
0, 0
0, 1
1, 0
0, 0
0, 0
0, 0
0, 0
0, 0
0, 0
0, 0
0, 0
0, 0
0, 0
0, 0
0, 0
0, 0
0, 0
0, 0
0, 0
0, 0
0, 0
0, 0
0, 0
0, 0
0, 0
0, 0
0, 0
0, 0
0, 0
0, 0
0, 0
0, 0
0, 0
0, 0
0, 0
0, 0
0, 0
0, 0
0, 0
0, 0
0, 0
0, 0
0, 0
0, 0
0, 0
0, 0
0, 0
0, 0
0, 0
0, 0
0, 0
0, 0
0, 0
0, 0
0, 0
0, 0
0, 0
0, 0
0, 0
0, 0
0, 0
0, 0
0, 0
0, 0
0, 0
0, 0
0, 0
0, 0
0, 0
0, 0
0, 0
0, 0
0, 0
0, 0
0, 0
0, 0
0, 0
0, 0
0, 0
0, 0
0, 0
0, 0
0, 0
0, 0
0, 0
0, 0
0, 0
#ENDOFDATA     end of spectrum data

File: ps__0852shot_2459.msa
#FORMAT      : EMSA/MAS spectral data file
#VERSION     : TC202v2.0 PIXL
#TITLE       : N/A
#DATE        :       Date in the format DD-MMM-YYYY, for example 07-JUL-2010
#TIME        :             The time of day at which the spectrum was recorded, in 24-hour format
#OWNER       : PIXL Flight Model       (PIXL will use this to indicate which instrument took the data.)
#NPOINTS     : 4096     Number of data points in the spectrum (This can be zero for configuration only files)
#NCOLUMNS    : 2     Number of data columns in the spectrum (This can be zero for configuration only files)
#XUNITS      : eV
#YUNITS      : COUNTS
#DATATYPE    : YY
#XPERCHAN    : 7.862, 7.881   eV per channel (separate by commas if more than one detector)
#OFFSET      : 18.5, -22.4         eV of first channel  (separate by commas if more than one detector
#SIGNALTYPE  : XRF
#YP_TEMP     : 2.075
#LIVETIME    : 8.56959, 8.37179   seconds (separate by commas if more than one detector)
#REALTIME    : 10, 10.0   seconds (separate by commas if more than one detector)
#SPECTRUM    : start of spectrum data
0, 0
0, 0
0, 0
0, 0
0, 0
0, 0
0, 0
0, 0
0, 2
1, 1
1, 3
57, 61
68, 55
7, 3
3, 7
84, 96
484, 449
98, 96
3, 3
1, 1
1, 1
4, 9
7, 3
16, 8
25, 18
26, 31
15, 14
14, 15
4, 2
6, 1
3, 1
2, 2
2, 4
6, 13
15, 19
6, 1
3, 4
10, 6
1, 1
0, 5
2, 4
11, 11
9, 13
14, 11
1, 3
2, 3
3, 7
6, 8
9, 5
43, 17
110, 8
48, 9
18, 11
61, 34
117, 58
51, 15
29, 45
451, 611
2167, 2407
1577, 1349
205, 147
14, 11
21, 22
94, 104
327, 330
202, 222
28, 29
5, 9
13, 16
8, 6
3, 3
4, 11
7, 13
2, 3
6, 5
5, 6
3, 3
7, 3
4, 6
10, 8
18, 5
34, 7
22, 8
8, 11
6, 8
5, 3
4, 3
0, 6
4, 7
4, 5
4, 4
5, 3
4, 5
3, 3
3, 2
1, 5
1, 3
2, 3
7, 4
9, 1
9, 2
3, 1
1, 3
2, 3
3, 5
2, 3
1, 2
1, 4
2, 1
1, 2
2, 0
3, 0
2, 2
5, 2
6, 1
4, 4
5, 4
4, 3
0, 4
1, 1
2, 5
1, 1
1, 4
3, 1
2, 2
1, 0
0, 1
1, 1
1, 0
0, 0
3, 0
1, 1
0, 1
1, 0
2, 2
0, 1
1, 0
2, 0
1, 0
0, 1
3, 2
1, 0
0, 0
1, 1
0, 2
0, 1
0, 0
0, 0
0, 0
0, 0
0, 1
0, 0
0, 0
0, 0
0, 0
1, 1
0, 1
0, 0
0, 0
0, 0
0, 0
2, 0
1, 1
0, 0
0, 0
0, 0
0, 0
0, 0
0, 0
0, 0
0, 0
0, 0
0, 0
0, 0
0, 0
0, 1
0, 1
1, 0
0, 0
0, 0
0, 0
0, 0
0, 0
0, 1
0, 0
0, 0
1, 0
0, 0
0, 0
0, 0
0, 0
0, 0
0, 0
0, 1
0, 0
0, 0
0, 0
0, 0
0, 0
0, 0
0, 1
0, 0
0, 0
0, 0
0, 0
0, 0
0, 0
0, 0
0, 0
0, 0
0, 0
0, 0
1, 0
0, 0
0, 0
0, 0
0, 0
0, 0
0, 0
0, 0
0, 0
0, 0
0, 0
0, 0
0, 0
0, 0
0, 0
0, 0
0, 0
0, 0
0, 0
1, 0
0, 0
0, 0
0, 0
0, 0
0, 0
0, 0
0, 0
0, 0
0, 0
0, 0
0, 0
0, 0
0, 0
0, 0
0, 0
0, 0
0, 0
0, 0
0, 0
0, 0
0, 0
0, 0
0, 0
0, 0
0, 0
0, 0
0, 0
0, 0
0, 0
0, 0
0, 0
0, 0
0, 0
0, 0
0, 0
0, 0
0, 0
0, 0
0, 0
0, 0
0, 0
0, 0
0, 0
0, 0
0, 0
0, 0
0, 0
0, 0
0, 0
0, 0
0, 0
0, 0
0, 0
0, 0
0, 0
0, 0
0, 0
0, 0
0, 0
0, 0
0, 0
0, 0
#ENDOFDATA     end of spectrum data

File: ps__0852shot_2460.msa
#FORMAT      : EMSA/MAS spectral data file
#VERSION     : TC202v2.0 PIXL
#TITLE       : N/A
#DATE        :       Date in the format DD-MMM-YYYY, for example 07-JUL-2010
#TIME        :             The time of day at which the spectrum was recorded, in 24-hour format
#OWNER       : PIXL Flight Model       (PIXL will use this to indicate which instrument took the data.)
#NPOINTS     : 4096     Number of data points in the spectrum (This can be zero for configuration only files)
#NCOLUMNS    : 2     Number of data columns in the spectrum (This can be zero for configuration only files)
#XUNITS      : eV
#YUNITS      : COUNTS
#DATATYPE    : YY
#XPERCHAN    : 7.862, 7.881   eV per channel (separate by commas if more than one detector)
#OFFSET      : 18.5, -22.4         eV of first channel  (separate by commas if more than one detector
#SIGNALTYPE  : XRF
#YP_TEMP     : 2.3
#LIVETIME    : 8.5432, 8.56123   seconds (separate by commas if more than one detector)
#REALTIME    : 10, 10.0   seconds (separate by commas if more than one detector)
#SPECTRUM    : start of spectrum data
0, 0
0, 0
0, 0
0, 0
0, 0
0, 0
0, 0
1, 0
0, 1
2, 0
2, 5
54, 46
78, 59
1, 8
2, 1
104, 97
427, 367
121, 106
7, 3
0, 0
6, 2
15, 17
13, 7
3, 6
23, 8
25, 25
14, 18
7, 10
10, 0
2, 1
2, 0
2, 2
4, 4
6, 7
17, 15
5, 3
6, 2
4, 2
6, 2
2, 3
5, 2
9, 8
14, 17
8, 5
5, 3
5, 5
6, 4
1, 5
6, 4
61, 11
113, 12
45, 6
14, 7
50, 41
115, 54
47, 14
34, 25
488, 514
2260, 2083
1564, 1212
189, 101
20, 11
19, 13
99, 103
315, 313
213, 156
25, 20
9, 6
10, 11
7, 5
4, 8
3, 14
7, 8
11, 10
2, 3
9, 2
4, 2
11, 5
5, 2
9, 5
12, 2
25, 6
17, 9
6, 9
4, 3
4, 3
8, 2
2, 2
2, 11
2, 3
2, 1
1, 4
3, 5
1, 3
5, 3
4, 1
1, 0
5, 2
5, 4
18, 1
10, 4
6, 1
6, 3
4, 0
3, 0
1, 2
1, 3
2, 2
0, 1
2, 1
2, 2
0, 4
3, 3
2, 1
1, 4
2, 2
7, 1
4, 3
0, 3
1, 0
5, 1
0, 0
2, 2
2, 1
4, 4
1, 3
1, 0
0, 1
0, 1
0, 0
3, 3
3, 2
0, 1
1, 0
0, 2
4, 2
0, 2
0, 1
0, 0
0, 0
2, 0
0, 2
0, 0
0, 0
1, 1
0, 0
1, 0
0, 0
1, 0
0, 0
1, 0
0, 0
0, 0
0, 0
0, 2
0, 0
0, 0
2, 3
0, 1
0, 0
0, 1
1, 0
1, 0
1, 0
2, 0
1, 0
0, 0
0, 0
0, 1
1, 0
0, 1
0, 0
0, 0
0, 0
0, 0
0, 0
0, 0
0, 0
0, 0
0, 0
0, 0
0, 0
0, 0
0, 0
0, 0
0, 0
0, 1
1, 0
0, 0
0, 0
0, 0
0, 0
1, 0
0, 0
0, 0
0, 0
0, 0
0, 1
0, 0
0, 0
0, 0
0, 0
0, 0
0, 0
0, 0
0, 0
0, 1
0, 0
0, 0
0, 0
0, 0
0, 1
0, 0
0, 0
0, 0
0, 0
0, 0
0, 0
0, 0
0, 0
0, 0
0, 0
0, 0
0, 0
0, 0
0, 0
0, 0
0, 0
0, 0
0, 0
0, 0
0, 0
0, 0
0, 0
0, 0
0, 0
0, 0
0, 0
0, 0
0, 0
0, 0
0, 0
0, 0
0, 0
0, 0
0, 0
0, 0
0, 0
0, 0
0, 0
0, 0
0, 0
0, 0
0, 0
0, 0
0, 0
0, 0
0, 0
0, 0
0, 0
0, 0
0, 0
0, 0
0, 0
0, 0
0, 0
0, 0
0, 0
0, 0
0, 0
0, 0
0, 0
0, 0
0, 0
0, 0
0, 0
0, 0
0, 0
0, 0
0, 0
0, 0
0, 0
0, 0
0, 0
0, 0
0, 0
0, 0
0, 0
0, 0
0, 0
0, 0
0, 0
0, 0
0, 0
#ENDOFDATA     end of spectrum data

File: ps__0852shot_2461.msa
#FORMAT      : EMSA/MAS spectral data file
#VERSION     : TC202v2.0 PIXL
#TITLE       : N/A
#DATE        :       Date in the format DD-MMM-YYYY, for example 07-JUL-2010
#TIME        :             The time of day at which the spectrum was recorded, in 24-hour format
#OWNER       : PIXL Flight Model       (PIXL will use this to indicate which instrument took the data.)
#NPOINTS     : 4096     Number of data points in the spectrum (This can be zero for configuration only files)
#NCOLUMNS    : 2     Number of data columns in the spectrum (This can be zero for configuration only files)
#XUNITS      : eV
#YUNITS      : COUNTS
#DATATYPE    : YY
#XPERCHAN    : 7.862, 7.881   eV per channel (separate by commas if more than one detector)
#OFFSET      : 18.5, -22.4         eV of first channel  (separate by commas if more than one detector
#SIGNALTYPE  : XRF
#YP_TEMP     : 2.46
#LIVETIME    : 8.57621, 8.55063   seconds (separate by commas if more than one detector)
#REALTIME    : 10, 10.0   seconds (separate by commas if more than one detector)
#SPECTRUM    : start of spectrum data
0, 0
0, 0
0, 0
0, 0
0, 0
0, 0
0, 0
0, 0
1, 1
2, 1
3, 6
44, 51
64, 55
6, 5
4, 5
96, 108
413, 411
98, 105
3, 6
1, 2
15, 22
73, 87
30, 35
20, 17
45, 39
45, 38
12, 16
18, 13
2, 5
1, 1
3, 4
3, 4
5, 3
25, 33
41, 39
6, 6
4, 11
12, 17
6, 2
3, 5
5, 4
16, 10
14, 13
14, 10
6, 6
3, 4
1, 4
3, 5
7, 12
33, 13
80, 6
46, 7
12, 14
53, 31
73, 48
41, 19
29, 37
503, 589
2134, 2339
1574, 1386
211, 127
18, 10
28, 19
112, 109
335, 339
216, 177
38, 22
13, 4
14, 7
7, 5
4, 4
1, 8
6, 15
12, 8
9, 2
6, 4
6, 4
8, 1
4, 3
3, 4
7, 4
19, 5
10, 9
3, 7
1, 3
7, 5
1, 2
2, 6
2, 1
16, 3
7, 4
4, 5
5, 0
4, 3
5, 3
3, 1
1, 5
6, 2
2, 5
7, 2
6, 4
1, 2
3, 4
2, 2
3, 3
1, 13
0, 9
4, 4
0, 4
2, 1
1, 0
2, 0
3, 1
3, 5
1, 1
4, 3
2, 3
3, 3
4, 2
2, 2
1, 2
1, 2
1, 1
1, 1
1, 2
2, 2
1, 0
0, 2
1, 1
1, 2
2, 3
1, 0
0, 1
0, 1
0, 1
0, 2
1, 3
0, 0
2, 1
0, 2
0, 0
0, 0
0, 0
0, 1
1, 0
1, 1
2, 0
0, 0
0, 0
0, 0
0, 0
0, 0
0, 0
0, 0
0, 0
0, 0
0, 0
1, 1
0, 0
0, 1
0, 0
0, 0
0, 1
1, 0
0, 0
0, 0
0, 0
0, 0
0, 0
0, 0
0, 0
0, 0
0, 0
1, 0
0, 0
0, 1
0, 2
0, 0
0, 0
0, 0
0, 0
0, 0
0, 0
0, 0
0, 1
1, 0
1, 0
0, 0
0, 0
1, 0
0, 0
0, 0
0, 0
0, 0
0, 1
0, 1
0, 1
0, 0
0, 0
0, 0
0, 0
0, 0
0, 0
0, 0
0, 1
0, 0
0, 0
0, 0
0, 0
0, 0
0, 0
0, 0
0, 0
0, 0
0, 0
0, 0
0, 0
0, 0
0, 0
0, 0
0, 0
0, 0
0, 0
0, 0
0, 0
0, 0
0, 0
0, 0
0, 0
0, 0
0, 0
0, 0
0, 0
0, 0
0, 0
0, 0
0, 0
0, 0
0, 0
0, 0
0, 0
0, 0
0, 0
0, 0
0, 0
0, 0
0, 0
0, 0
0, 0
0, 0
0, 0
0, 0
0, 0
0, 0
0, 0
0, 0
0, 0
0, 0
0, 0
0, 0
0, 0
0, 0
0, 0
0, 0
0, 0
0, 0
0, 0
0, 0
0, 0
0, 0
0, 0
0, 0
0, 0
0, 0
0, 0
0, 0
0, 0
0, 0
0, 0
0, 0
0, 0
0, 0
0, 0
0, 0
0, 0
0, 0
0, 0
0, 0
0, 0
0, 0
0, 0
0, 0
0, 0
0, 0
#ENDOFDATA     end of spectrum data

File: ps__0852shot_2462.msa
#FORMAT      : EMSA/MAS spectral data file
#VERSION     : TC202v2.0 PIXL
#TITLE       : N/A
#DATE        :       Date in the format DD-MMM-YYYY, for example 07-JUL-2010
#TIME        :             The time of day at which the spectrum was recorded, in 24-hour format
#OWNER       : PIXL Flight Model       (PIXL will use this to indicate which instrument took the data.)
#NPOINTS     : 4096     Number of data points in the spectrum (This can be zero for configuration only files)
#NCOLUMNS    : 2     Number of data columns in the spectrum (This can be zero for configuration only files)
#XUNITS      : eV
#YUNITS      : COUNTS
#DATATYPE    : YY
#XPERCHAN    : 7.862, 7.881   eV per channel (separate by commas if more than one detector)
#OFFSET      : 18.5, -22.4         eV of first channel  (separate by commas if more than one detector
#SIGNALTYPE  : XRF
#YP_TEMP     : 2.524
#LIVETIME    : 8.56484, 8.54817   seconds (separate by commas if more than one detector)
#REALTIME    : 10, 10.0   seconds (separate by commas if more than one detector)
#SPECTRUM    : start of spectrum data
0, 0
0, 0
0, 0
0, 0
0, 0
0, 0
0, 0
0, 0
0, 0
5, 1
3, 3
35, 33
60, 46
11, 6
6, 13
85, 85
363, 358
85, 93
3, 3
4, 7
48, 42
266, 271
121, 88
19, 27
146, 49
165, 36
41, 23
10, 16
3, 4
1, 2
6, 6
6, 2
12, 5
46, 53
66, 84
15, 12
9, 16
7, 9
11, 4
3, 6
7, 8
9, 12
11, 10
12, 12
6, 5
10, 8
1, 9
7, 11
6, 9
18, 17
16, 15
13, 6
33, 12
103, 38
107, 65
24, 17
33, 39
519, 582
2094, 2217
1436, 1275
201, 149
6, 19
17, 23
108, 125
324, 331
239, 177
37, 16
4, 8
13, 11
11, 7
2, 3
0, 4
0, 9
3, 3
5, 4
7, 7
8, 3
10, 5
5, 3
4, 3
3, 4
1, 6
2, 4
9, 3
5, 5
6, 3
5, 3
2, 4
6, 6
8, 5
6, 2
6, 5
1, 1
3, 2
1, 3
3, 5
5, 2
2, 3
1, 2
3, 2
1, 2
3, 1
1, 5
2, 3
3, 4
4, 7
3, 5
7, 1
6, 1
2, 3
3, 0
0, 1
3, 3
3, 1
2, 1
1, 3
4, 11
1, 3
1, 3
2, 1
0, 1
1, 0
0, 3
4, 2
0, 2
0, 1
2, 1
2, 0
1, 1
1, 0
2, 0
2, 1
0, 1
0, 1
1, 0
2, 1
1, 0
0, 0
1, 1
0, 0
1, 1
1, 2
1, 0
0, 0
0, 0
2, 1
2, 1
0, 0
1, 0
0, 1
2, 0
1, 0
0, 0
1, 0
1, 0
1, 0
0, 0
1, 0
0, 0
0, 0
1, 0
1, 0
1, 1
0, 0
0, 0
0, 0
0, 0
0, 1
0, 0
0, 0
1, 0
0, 0
0, 0
0, 0
0, 0
0, 0
0, 0
0, 0
0, 0
0, 0
0, 0
0, 0
0, 1
0, 1
0, 0
0, 1
0, 0
0, 0
0, 0
1, 0
1, 0
0, 0
1, 0
0, 0
0, 0
0, 0
0, 0
0, 0
0, 0
0, 0
0, 0
0, 0
0, 0
0, 0
0, 1
0, 0
1, 0
0, 0
0, 0
0, 0
0, 0
0, 0
0, 0
0, 0
0, 0
0, 0
0, 0
0, 0
0, 0
0, 0
0, 0
0, 0
0, 0
0, 0
0, 0
0, 0
0, 0
0, 0
0, 0
0, 0
0, 0
0, 0
0, 0
0, 0
0, 1
0, 0
0, 0
0, 0
0, 0
0, 0
0, 0
0, 0
0, 0
0, 0
0, 0
0, 0
0, 0
0, 0
0, 0
0, 0
0, 0
0, 0
0, 0
0, 0
0, 0
0, 0
0, 0
0, 0
0, 0
0, 0
0, 0
0, 0
0, 0
0, 0
0, 0
0, 0
0, 0
0, 0
0, 0
0, 0
0, 0
0, 0
0, 0
0, 0
0, 0
0, 0
0, 0
0, 0
0, 0
0, 0
0, 0
0, 0
0, 0
0, 0
0, 0
0, 0
0, 0
0, 0
0, 0
0, 0
0, 0
0, 0
0, 0
0, 0
#ENDOFDATA     end of spectrum data

File: ps__0852shot_2463.msa
#FORMAT      : EMSA/MAS spectral data file
#VERSION     : TC202v2.0 PIXL
#TITLE       : N/A
#DATE        :       Date in the format DD-MMM-YYYY, for example 07-JUL-2010
#TIME        :             The time of day at which the spectrum was recorded, in 24-hour format
#OWNER       : PIXL Flight Model       (PIXL will use this to indicate which instrument took the data.)
#NPOINTS     : 4096     Number of data points in the spectrum (This can be zero for configuration only files)
#NCOLUMNS    : 2     Number of data columns in the spectrum (This can be zero for configuration only files)
#XUNITS      : eV
#YUNITS      : COUNTS
#DATATYPE    : YY
#XPERCHAN    : 7.862, 7.881   eV per channel (separate by commas if more than one detector)
#OFFSET      : 18.5, -22.4         eV of first channel  (separate by commas if more than one detector
#SIGNALTYPE  : XRF
#YP_TEMP     : 2.46
#LIVETIME    : 8.56581, 8.54834   seconds (separate by commas if more than one detector)
#REALTIME    : 10, 10.0   seconds (separate by commas if more than one detector)
#SPECTRUM    : start of spectrum data
0, 0
0, 0
0, 0
0, 0
0, 0
0, 0
0, 0
0, 0
0, 0
1, 0
2, 4
26, 34
48, 66
3, 4
4, 1
64, 96
373, 434
91, 91
5, 4
1, 2
28, 25
128, 133
59, 65
29, 13
136, 37
162, 37
33, 22
6, 15
7, 5
2, 1
3, 4
3, 2
5, 7
23, 31
41, 39
7, 9
4, 9
16, 7
16, 6
11, 3
5, 10
8, 10
16, 12
8, 6
6, 5
8, 6
7, 7
3, 9
15, 6
12, 20
21, 16
13, 12
27, 16
143, 47
106, 42
20, 20
29, 29
449, 552
2116, 2143
1486, 1279
178, 127
16, 16
18, 24
73, 117
336, 329
211, 205
32, 19
7, 7
15, 12
10, 7
7, 6
7, 4
5, 3
4, 7
7, 8
5, 10
4, 7
3, 3
7, 7
4, 10
6, 8
1, 0
2, 7
5, 3
4, 3
6, 3
10, 2
3, 6
2, 4
1, 1
3, 7
3, 3
2, 6
3, 4
0, 4
2, 1
5, 4
6, 3
1, 1
1, 5
3, 0
3, 3
2, 1
1, 2
5, 2
5, 2
6, 2
7, 3
2, 4
3, 2
1, 0
3, 2
4, 2
2, 2
3, 4
1, 5
3, 2
3, 4
4, 6
1, 3
0, 2
0, 2
1, 3
2, 3
1, 1
1, 2
1, 2
1, 4
1, 1
1, 0
1, 3
3, 1
1, 2
0, 1
2, 0
1, 0
0, 0
2, 2
0, 1
1, 0
0, 0
0, 0
0, 1
0, 1
1, 0
0, 0
0, 0
0, 0
1, 0
1, 0
2, 0
2, 0
0, 1
0, 2
0, 0
1, 0
1, 0
1, 0
0, 0
0, 0
1, 0
0, 0
0, 0
0, 1
0, 0
0, 1
0, 0
1, 0
0, 0
2, 2
0, 0
0, 0
0, 0
0, 0
1, 0
0, 0
0, 0
0, 0
0, 0
1, 0
0, 0
1, 0
0, 0
0, 0
0, 0
0, 0
0, 0
0, 0
0, 0
0, 1
0, 0
0, 0
0, 0
0, 0
0, 0
0, 0
0, 0
0, 0
1, 0
0, 0
1, 0
0, 0
0, 0
0, 0
0, 0
0, 0
0, 0
1, 0
0, 0
0, 1
0, 0
0, 0
0, 0
0, 0
0, 0
0, 0
0, 0
0, 0
0, 0
0, 0
0, 0
0, 0
0, 0
0, 0
0, 0
0, 0
0, 0
0, 0
0, 0
0, 0
0, 0
0, 0
0, 0
0, 0
0, 0
0, 0
0, 0
0, 0
0, 0
0, 0
0, 0
0, 0
0, 0
0, 0
0, 0
0, 0
0, 0
0, 0
0, 0
0, 0
0, 0
0, 0
0, 0
0, 0
0, 0
0, 0
0, 0
0, 0
0, 0
0, 0
0, 0
0, 0
0, 0
0, 0
0, 0
0, 0
0, 0
0, 0
0, 0
0, 0
0, 0
0, 0
0, 0
0, 0
0, 0
0, 0
0, 0
0, 0
0, 0
0, 0
0, 0
0, 0
0, 0
0, 0
0, 0
0, 0
0, 0
0, 0
0, 0
0, 0
0, 0
0, 0
0, 0
0, 0
#ENDOFDATA     end of spectrum data

File: ps__0852shot_2464.msa
#FORMAT      : EMSA/MAS spectral data file
#VERSION     : TC202v2.0 PIXL
#TITLE       : N/A
#DATE        :       Date in the format DD-MMM-YYYY, for example 07-JUL-2010
#TIME        :             The time of day at which the spectrum was recorded, in 24-hour format
#OWNER       : PIXL Flight Model       (PIXL will use this to indicate which instrument took the data.)
#NPOINTS     : 4096     Number of data points in the spectrum (This can be zero for configuration only files)
#NCOLUMNS    : 2     Number of data columns in the spectrum (This can be zero for configuration only files)
#XUNITS      : eV
#YUNITS      : COUNTS
#DATATYPE    : YY
#XPERCHAN    : 7.862, 7.881   eV per channel (separate by commas if more than one detector)
#OFFSET      : 18.5, -22.4         eV of first channel  (separate by commas if more than one detector
#SIGNALTYPE  : XRF
#YP_TEMP     : 2.332
#LIVETIME    : 8.55754, 8.51714   seconds (separate by commas if more than one detector)
#REALTIME    : 10, 10.0   seconds (separate by commas if more than one detector)
#SPECTRUM    : start of spectrum data
0, 0
0, 0
0, 0
0, 0
0, 0
0, 0
0, 0
0, 0
0, 0
1, 0
6, 6
43, 36
46, 58
4, 3
4, 1
73, 89
351, 301
96, 96
8, 1
3, 1
66, 76
347, 436
139, 143
28, 29
86, 50
89, 50
41, 26
18, 13
7, 8
4, 3
6, 8
2, 6
3, 2
12, 28
23, 36
9, 6
9, 13
19, 7
40, 7
18, 5
3, 8
8, 11
13, 13
9, 10
3, 15
5, 11
4, 9
3, 10
6, 7
19, 28
24, 25
14, 28
15, 32
53, 60
71, 50
26, 19
24, 41
437, 549
2085, 2317
1429, 1355
155, 149
15, 17
26, 20
82, 104
293, 341
221, 188
29, 14
11, 9
20, 15
25, 10
9, 4
7, 5
6, 5
4, 8
9, 8
3, 10
12, 9
7, 4
3, 9
9, 5
6, 3
6, 5
7, 4
2, 18
4, 9
6, 9
10, 5
3, 6
1, 6
7, 5
4, 5
5, 11
4, 7
6, 6
2, 4
1, 2
6, 1
4, 5
5, 2
2, 2
2, 2
4, 1
2, 5
1, 4
1, 3
1, 2
2, 3
0, 3
0, 3
1, 5
0, 2
4, 5
4, 2
2, 1
4, 2
2, 3
9, 3
4, 4
1, 2
2, 1
0, 1
2, 2
0, 4
1, 2
3, 1
0, 0
0, 2
2, 1
1, 1
1, 3
1, 1
0, 0
0, 3
2, 1
1, 1
0, 1
2, 1
0, 0
1, 0
0, 1
1, 0
0, 1
2, 0
1, 0
1, 0
0, 1
0, 1
0, 1
1, 0
1, 2
0, 1
0, 0
1, 0
1, 0
0, 0
0, 0
0, 0
1, 1
0, 0
0, 0
0, 0
1, 0
0, 0
0, 1
1, 0
0, 0
0, 1
0, 1
0, 1
1, 0
0, 0
0, 0
1, 0
0, 0
1, 0
0, 0
0, 0
0, 0
0, 0
0, 0
0, 0
0, 0
0, 0
0, 0
0, 0
0, 0
0, 0
0, 0
0, 0
0, 0
0, 0
0, 0
0, 0
0, 0
0, 0
0, 0
0, 0
0, 0
0, 0
1, 0
2, 0
0, 0
0, 0
0, 1
0, 0
0, 0
0, 0
0, 0
0, 0
0, 0
0, 0
0, 0
0, 0
0, 0
0, 0
0, 0
0, 0
0, 0
0, 0
0, 0
0, 0
0, 0
0, 0
0, 0
0, 0
0, 0
0, 0
0, 0
0, 0
0, 0
0, 0
0, 0
0, 0
0, 0
0, 0
0, 0
0, 0
0, 0
0, 0
0, 0
0, 0
0, 0
0, 0
0, 0
0, 0
0, 0
0, 0
0, 0
0, 0
0, 0
0, 0
0, 0
0, 0
0, 0
0, 0
0, 0
0, 0
0, 0
0, 0
0, 0
0, 0
0, 0
0, 0
0, 0
0, 0
0, 0
0, 0
0, 0
0, 0
0, 0
0, 0
0, 0
0, 0
0, 0
0, 0
0, 0
0, 0
0, 0
0, 0
0, 0
0, 0
0, 0
0, 0
0, 0
0, 0
0, 0
0, 0
0, 0
0, 0
0, 0
0, 0
0, 0
0, 0
0, 0
#ENDOFDATA     end of spectrum data