Folder: data-repository/host_upload/06-09-2024/ps_0852/dump3 (part 40)

File: ps__0852shot_2356.msa
#FORMAT      : EMSA/MAS spectral data file
#VERSION     : TC202v2.0 PIXL
#TITLE       : N/A
#DATE        :       Date in the format DD-MMM-YYYY, for example 07-JUL-2010
#TIME        :             The time of day at which the spectrum was recorded, in 24-hour format
#OWNER       : PIXL Flight Model       (PIXL will use this to indicate which instrument took the data.)
#NPOINTS     : 4096     Number of data points in the spectrum (This can be zero for configuration only files)
#NCOLUMNS    : 2     Number of data columns in the spectrum (This can be zero for configuration only files)
#XUNITS      : eV
#YUNITS      : COUNTS
#DATATYPE    : YY
#XPERCHAN    : 7.862, 7.881   eV per channel (separate by commas if more than one detector)
#OFFSET      : 18.5, -22.4         eV of first channel  (separate by commas if more than one detector
#SIGNALTYPE  : XRF
#YP_TEMP     : 2.62
#LIVETIME    : 8.5558, 8.56158   seconds (separate by commas if more than one detector)
#REALTIME    : 10, 10.0   seconds (separate by commas if more than one detector)
#SPECTRUM    : start of spectrum data
0, 0
0, 0
0, 0
0, 0
0, 0
0, 0
0, 0
0, 0
2, 1
2, 0
1, 2
49, 35
57, 46
8, 9
4, 3
102, 87
478, 373
132, 91
5, 3
2, 2
4, 2
13, 15
8, 10
8, 4
42, 31
42, 40
22, 21
18, 15
8, 2
2, 4
1, 3
2, 1
0, 1
11, 8
21, 6
10, 7
4, 4
3, 4
10, 10
3, 7
4, 7
9, 8
16, 11
13, 14
6, 18
6, 15
6, 3
12, 4
14, 5
16, 9
17, 12
6, 2
11, 9
40, 39
64, 64
30, 65
59, 171
490, 620
2217, 2186
1553, 1242
217, 120
24, 14
22, 22
103, 130
367, 328
239, 180
39, 21
14, 7
17, 10
13, 7
3, 5
3, 3
3, 6
7, 5
10, 6
7, 3
4, 3
12, 6
8, 4
6, 3
4, 2
4, 2
1, 2
1, 3
4, 4
2, 6
5, 2
5, 5
7, 5
4, 1
5, 4
5, 5
2, 5
3, 4
1, 6
4, 3
3, 2
3, 4
4, 3
1, 6
2, 1
4, 2
5, 2
2, 3
2, 2
1, 4
0, 3
2, 2
2, 1
0, 1
6, 3
1, 3
1, 2
2, 2
1, 2
2, 3
1, 3
6, 4
1, 0
1, 0
2, 0
1, 0
2, 0
5, 1
1, 0
0, 1
1, 0
2, 0
0, 0
1, 1
3, 2
0, 1
0, 0
2, 1
2, 1
1, 0
1, 1
0, 0
1, 0
0, 0
0, 0
0, 1
0, 1
0, 1
2, 1
0, 1
0, 0
2, 0
0, 0
2, 0
0, 1
2, 1
0, 0
0, 0
0, 1
0, 0
1, 1
0, 0
0, 0
1, 1
0, 0
0, 1
0, 1
2, 0
2, 0
0, 1
0, 1
0, 0
0, 1
2, 1
0, 1
1, 0
0, 0
0, 0
0, 0
0, 0
0, 1
0, 0
1, 0
0, 0
0, 0
0, 0
1, 1
0, 1
1, 0
0, 0
0, 0
0, 0
0, 0
0, 0
0, 0
0, 0
0, 0
1, 0
0, 1
0, 0
1, 1
0, 0
0, 0
0, 0
0, 0
0, 1
0, 0
0, 0
0, 0
0, 0
0, 1
0, 0
0, 0
0, 0
0, 0
0, 0
0, 0
0, 0
0, 0
0, 0
0, 0
0, 0
0, 0
0, 0
0, 0
0, 0
0, 0
0, 0
0, 0
0, 0
0, 0
0, 0
0, 0
0, 0
0, 0
0, 0
0, 0
0, 0
0, 0
0, 0
0, 0
0, 0
0, 0
0, 0
0, 0
0, 0
0, 0
0, 0
0, 0
0, 0
0, 0
0, 0
0, 0
0, 0
0, 0
0, 0
0, 0
0, 0
0, 0
0, 0
0, 0
0, 0
0, 0
0, 0
0, 0
0, 0
0, 0
0, 0
0, 0
0, 0
0, 0
0, 0
0, 0
0, 0
0, 0
0, 0
0, 0
0, 0
0, 0
0, 0
0, 0
0, 0
0, 0
0, 0
0, 0
0, 0
0, 0
0, 0
0, 0
0, 0
0, 0
0, 0
0, 0
0, 0
0, 0
0, 0
0, 0
0, 0
#ENDOFDATA     end of spectrum data

File: ps__0852shot_2357.msa
#FORMAT      : EMSA/MAS spectral data file
#VERSION     : TC202v2.0 PIXL
#TITLE       : N/A
#DATE        :       Date in the format DD-MMM-YYYY, for example 07-JUL-2010
#TIME        :             The time of day at which the spectrum was recorded, in 24-hour format
#OWNER       : PIXL Flight Model       (PIXL will use this to indicate which instrument took the data.)
#NPOINTS     : 4096     Number of data points in the spectrum (This can be zero for configuration only files)
#NCOLUMNS    : 2     Number of data columns in the spectrum (This can be zero for configuration only files)
#XUNITS      : eV
#YUNITS      : COUNTS
#DATATYPE    : YY
#XPERCHAN    : 7.862, 7.881   eV per channel (separate by commas if more than one detector)
#OFFSET      : 18.5, -22.4         eV of first channel  (separate by commas if more than one detector
#SIGNALTYPE  : XRF
#YP_TEMP     : 2.62
#LIVETIME    : 8.56989, 8.55674   seconds (separate by commas if more than one detector)
#REALTIME    : 10, 10.0   seconds (separate by commas if more than one detector)
#SPECTRUM    : start of spectrum data
0, 0
0, 0
0, 0
0, 0
0, 0
0, 0
0, 0
0, 0
0, 1
0, 0
2, 3
47, 45
67, 47
2, 1
5, 9
92, 79
427, 338
118, 81
8, 5
3, 0
3, 4
24, 34
13, 10
7, 11
34, 31
45, 37
29, 20
11, 11
8, 4
2, 9
6, 3
5, 1
4, 1
8, 9
15, 18
9, 10
8, 8
10, 2
3, 8
6, 10
3, 7
12, 9
17, 14
11, 33
5, 48
6, 23
3, 6
9, 6
12, 9
26, 11
18, 22
7, 10
11, 7
38, 35
63, 58
30, 53
44, 157
471, 649
2211, 2142
1540, 1343
168, 138
23, 19
20, 16
100, 125
323, 317
236, 152
27, 16
17, 15
17, 12
3, 12
2, 7
3, 4
5, 8
4, 13
5, 9
7, 11
8, 2
8, 5
5, 1
4, 4
10, 2
3, 3
2, 4
4, 3
0, 6
4, 4
3, 6
5, 4
4, 5
10, 2
3, 4
4, 1
2, 2
5, 6
2, 12
3, 9
4, 4
4, 2
3, 3
1, 5
3, 2
1, 4
4, 2
3, 6
3, 3
1, 0
3, 0
0, 3
0, 4
2, 4
2, 4
1, 2
5, 3
1, 0
3, 5
1, 4
2, 3
1, 3
3, 2
1, 1
1, 2
1, 0
0, 5
1, 1
0, 2
3, 1
0, 0
1, 0
5, 2
0, 2
1, 0
0, 0
0, 1
1, 0
2, 1
0, 0
2, 0
1, 0
3, 2
1, 2
0, 1
0, 0
0, 0
1, 0
0, 0
1, 1
0, 1
1, 0
2, 1
0, 1
0, 0
0, 1
1, 1
1, 0
0, 0
1, 1
0, 0
0, 0
0, 1
0, 0
0, 0
2, 0
0, 0
0, 0
0, 0
0, 0
0, 0
2, 0
0, 0
0, 0
0, 0
0, 0
1, 0
0, 0
0, 0
0, 0
0, 0
0, 0
0, 0
0, 0
0, 0
0, 0
0, 0
0, 0
0, 0
1, 0
0, 0
0, 0
0, 0
0, 1
0, 0
0, 0
0, 0
0, 0
0, 0
1, 0
0, 0
0, 1
0, 0
0, 0
0, 0
0, 0
0, 0
0, 0
0, 0
0, 0
0, 0
0, 0
0, 0
0, 0
0, 0
0, 0
0, 0
0, 0
0, 0
0, 0
0, 0
0, 0
0, 0
0, 0
0, 0
0, 0
0, 0
0, 0
0, 0
1, 0
0, 0
0, 0
0, 0
0, 0
0, 0
0, 0
0, 0
0, 0
0, 0
0, 0
0, 0
0, 0
0, 0
0, 0
0, 0
0, 0
0, 0
0, 0
0, 0
0, 0
0, 0
0, 0
0, 0
0, 0
0, 0
0, 0
0, 0
0, 0
0, 0
0, 0
0, 0
0, 0
0, 0
0, 0
0, 0
0, 0
0, 0
0, 0
0, 0
0, 0
0, 0
0, 0
0, 0
0, 0
0, 0
0, 0
0, 0
0, 0
0, 0
0, 0
0, 0
0, 0
0, 0
0, 0
0, 0
0, 0
0, 0
0, 0
0, 0
0, 0
0, 0
0, 0
0, 0
0, 0
0, 0
0, 0
0, 0
0, 0
#ENDOFDATA     end of spectrum data

File: ps__0852shot_2358.msa
#FORMAT      : EMSA/MAS spectral data file
#VERSION     : TC202v2.0 PIXL
#TITLE       : N/A
#DATE        :       Date in the format DD-MMM-YYYY, for example 07-JUL-2010
#TIME        :             The time of day at which the spectrum was recorded, in 24-hour format
#OWNER       : PIXL Flight Model       (PIXL will use this to indicate which instrument took the data.)
#NPOINTS     : 4096     Number of data points in the spectrum (This can be zero for configuration only files)
#NCOLUMNS    : 2     Number of data columns in the spectrum (This can be zero for configuration only files)
#XUNITS      : eV
#YUNITS      : COUNTS
#DATATYPE    : YY
#XPERCHAN    : 7.862, 7.881   eV per channel (separate by commas if more than one detector)
#OFFSET      : 18.5, -22.4         eV of first channel  (separate by commas if more than one detector
#SIGNALTYPE  : XRF
#YP_TEMP     : 2.332
#LIVETIME    : 8.60857, 8.50317   seconds (separate by commas if more than one detector)
#REALTIME    : 10, 10.0   seconds (separate by commas if more than one detector)
#SPECTRUM    : start of spectrum data
0, 0
0, 0
0, 0
0, 0
0, 0
0, 0
0, 0
0, 0
3, 0
0, 2
6, 2
43, 38
54, 54
11, 4
11, 3
91, 93
464, 370
87, 96
7, 4
4, 3
10, 4
22, 16
8, 2
9, 9
39, 42
40, 39
27, 22
7, 8
11, 7
7, 2
1, 6
1, 1
3, 4
19, 12
23, 16
9, 7
5, 14
5, 9
4, 21
11, 25
5, 10
8, 8
15, 22
13, 32
16, 86
17, 34
6, 8
9, 6
19, 5
32, 15
22, 13
10, 12
6, 14
46, 43
54, 45
22, 21
39, 34
500, 590
2358, 2148
1737, 1252
205, 138
21, 18
21, 23
106, 129
390, 321
234, 172
26, 24
6, 6
23, 16
8, 13
4, 4
8, 5
8, 12
13, 11
6, 15
8, 9
7, 3
3, 5
7, 6
5, 7
2, 5
3, 3
3, 4
4, 2
3, 2
5, 3
9, 2
5, 2
5, 3
6, 2
9, 3
5, 1
6, 1
3, 8
2, 1
2, 4
3, 3
3, 4
4, 3
3, 3
0, 1
9, 7
5, 1
4, 1
4, 1
2, 0
5, 5
0, 6
1, 4
2, 1
1, 0
1, 1
1, 2
3, 4
1, 3
1, 0
3, 3
6, 1
1, 2
2, 1
3, 2
0, 0
4, 3
2, 0
2, 1
1, 3
0, 0
3, 1
3, 0
1, 1
1, 1
0, 0
1, 1
0, 0
1, 1
1, 0
2, 1
4, 0
2, 0
0, 1
0, 0
0, 0
1, 0
1, 0
3, 1
0, 1
0, 0
1, 1
0, 1
1, 1
0, 0
0, 0
3, 1
0, 1
0, 0
0, 0
0, 1
1, 0
1, 0
0, 0
1, 0
1, 2
0, 0
0, 0
0, 0
0, 0
1, 0
0, 0
0, 1
0, 0
1, 0
0, 0
0, 0
0, 0
1, 0
0, 0
0, 0
0, 0
0, 0
1, 0
0, 0
0, 0
0, 0
0, 0
1, 0
1, 0
0, 0
0, 0
0, 0
0, 0
0, 0
0, 0
0, 0
0, 0
0, 0
0, 0
0, 0
0, 0
0, 0
0, 0
0, 0
0, 0
0, 1
0, 0
0, 0
0, 0
0, 0
0, 0
0, 0
0, 0
0, 0
0, 0
0, 0
0, 0
0, 0
0, 0
0, 0
0, 0
0, 0
0, 0
0, 0
0, 0
0, 0
0, 0
0, 0
0, 0
0, 0
0, 0
0, 0
0, 0
0, 0
0, 0
0, 0
0, 0
0, 0
0, 0
0, 0
0, 0
0, 0
0, 0
0, 0
0, 0
0, 0
0, 0
0, 0
0, 0
0, 0
0, 0
0, 0
0, 0
0, 0
0, 0
0, 0
0, 0
0, 0
0, 0
0, 0
0, 0
0, 0
0, 0
0, 0
0, 0
0, 0
0, 0
0, 0
0, 0
0, 0
0, 0
0, 0
0, 0
0, 0
0, 0
0, 0
0, 0
0, 0
0, 0
0, 0
0, 0
0, 0
0, 0
0, 0
0, 0
0, 0
0, 0
0, 0
0, 0
0, 0
0, 0
0, 0
0, 0
0, 0
0, 0
0, 0
0, 0
#ENDOFDATA     end of spectrum data

File: ps__0852shot_2359.msa
#FORMAT      : EMSA/MAS spectral data file
#VERSION     : TC202v2.0 PIXL
#TITLE       : N/A
#DATE        :       Date in the format DD-MMM-YYYY, for example 07-JUL-2010
#TIME        :             The time of day at which the spectrum was recorded, in 24-hour format
#OWNER       : PIXL Flight Model       (PIXL will use this to indicate which instrument took the data.)
#NPOINTS     : 4096     Number of data points in the spectrum (This can be zero for configuration only files)
#NCOLUMNS    : 2     Number of data columns in the spectrum (This can be zero for configuration only files)
#XUNITS      : eV
#YUNITS      : COUNTS
#DATATYPE    : YY
#XPERCHAN    : 7.862, 7.881   eV per channel (separate by commas if more than one detector)
#OFFSET      : 18.5, -22.4         eV of first channel  (separate by commas if more than one detector
#SIGNALTYPE  : XRF
#YP_TEMP     : 2.3
#LIVETIME    : 8.55549, 8.53388   seconds (separate by commas if more than one detector)
#REALTIME    : 10, 10.0   seconds (separate by commas if more than one detector)
#SPECTRUM    : start of spectrum data
0, 0
0, 0
0, 0
0, 0
0, 0
0, 0
0, 0
0, 0
1, 0
1, 1
1, 1
43, 41
63, 64
6, 8
4, 2
106, 108
396, 418
92, 87
6, 4
3, 0
3, 2
8, 9
7, 6
6, 6
31, 42
44, 55
16, 32
10, 13
5, 6
2, 5
5, 6
4, 3
2, 4
13, 7
21, 13
10, 11
8, 17
6, 8
29, 12
29, 19
8, 8
10, 10
12, 18
34, 26
112, 48
50, 26
12, 7
6, 4
7, 8
33, 19
18, 19
9, 12
12, 18
38, 47
68, 74
16, 33
34, 36
474, 642
2140, 2409
1499, 1498
210, 134
24, 19
16, 25
101, 132
369, 381
198, 224
42, 24
4, 11
20, 13
8, 8
4, 3
2, 9
13, 14
26, 10
22, 13
12, 11
5, 8
4, 7
4, 4
2, 4
4, 8
3, 7
7, 2
7, 1
5, 3
2, 3
2, 10
4, 6
7, 7
4, 5
1, 3
1, 2
4, 7
4, 5
8, 2
4, 5
4, 4
5, 0
3, 6
1, 3
2, 3
2, 1
2, 0
3, 1
3, 4
3, 4
0, 4
1, 3
3, 4
3, 2
5, 3
3, 2
0, 2
4, 0
2, 2
1, 5
5, 1
7, 3
1, 1
4, 3
1, 2
1, 1
3, 2
0, 2
0, 2
1, 1
1, 1
1, 1
0, 0
1, 2
0, 0
0, 1
0, 0
1, 4
1, 0
5, 1
0, 1
2, 0
1, 0
0, 0
1, 0
0, 1
0, 0
1, 2
1, 2
0, 0
1, 1
0, 0
0, 3
0, 2
0, 1
0, 0
1, 1
0, 1
0, 0
0, 0
0, 1
0, 1
1, 0
0, 0
1, 0
1, 0
0, 0
2, 0
0, 0
0, 0
0, 1
0, 2
0, 1
1, 0
1, 0
1, 0
0, 0
0, 0
0, 1
0, 0
0, 1
0, 0
0, 0
0, 0
0, 0
0, 0
0, 0
0, 0
0, 0
0, 0
0, 0
0, 1
0, 0
0, 0
0, 0
0, 0
1, 0
0, 0
0, 0
0, 0
0, 0
0, 0
1, 0
0, 0
0, 0
1, 0
0, 1
0, 1
0, 0
0, 0
0, 0
0, 0
0, 0
0, 0
0, 0
0, 0
0, 0
0, 0
0, 0
0, 0
0, 0
0, 0
0, 0
0, 0
0, 0
0, 0
0, 0
0, 0
0, 0
0, 0
0, 0
0, 0
0, 0
0, 0
0, 0
0, 0
0, 0
0, 0
0, 0
0, 0
0, 0
0, 0
0, 0
0, 0
0, 0
0, 0
0, 0
0, 0
0, 0
0, 0
0, 0
0, 0
0, 0
0, 0
0, 0
0, 0
0, 0
0, 0
0, 0
0, 0
0, 0
0, 0
0, 0
0, 0
0, 0
0, 0
0, 0
0, 0
0, 0
0, 0
0, 0
0, 0
0, 0
0, 0
0, 0
0, 0
0, 0
0, 0
0, 0
0, 0
0, 0
0, 0
0, 0
0, 0
0, 0
0, 0
0, 0
0, 0
0, 0
0, 0
0, 0
0, 0
0, 0
0, 0
0, 0
0, 0
0, 0
0, 0
#ENDOFDATA     end of spectrum data

File: ps__0852shot_2360.msa
#FORMAT      : EMSA/MAS spectral data file
#VERSION     : TC202v2.0 PIXL
#TITLE       : N/A
#DATE        :       Date in the format DD-MMM-YYYY, for example 07-JUL-2010
#TIME        :             The time of day at which the spectrum was recorded, in 24-hour format
#OWNER       : PIXL Flight Model       (PIXL will use this to indicate which instrument took the data.)
#NPOINTS     : 4096     Number of data points in the spectrum (This can be zero for configuration only files)
#NCOLUMNS    : 2     Number of data columns in the spectrum (This can be zero for configuration only files)
#XUNITS      : eV
#YUNITS      : COUNTS
#DATATYPE    : YY
#XPERCHAN    : 7.862, 7.881   eV per channel (separate by commas if more than one detector)
#OFFSET      : 18.5, -22.4         eV of first channel  (separate by commas if more than one detector
#SIGNALTYPE  : XRF
#YP_TEMP     : 2.332
#LIVETIME    : 8.55716, 8.54958   seconds (separate by commas if more than one detector)
#REALTIME    : 10, 10.0   seconds (separate by commas if more than one detector)
#SPECTRUM    : start of spectrum data
0, 0
0, 0
0, 0
0, 0
0, 0
0, 0
0, 0
0, 2
0, 6
0, 16
1, 3
41, 45
59, 68
12, 6
5, 1
92, 107
457, 409
100, 100
3, 7
2, 2
2, 2
3, 7
6, 5
4, 35
41, 642
44, 862
25, 94
18, 13
8, 6
7, 1
12, 4
1, 1
2, 2
25, 16
25, 24
7, 12
3, 20
2, 15
10, 11
13, 3
13, 9
9, 17
17, 15
63, 13
148, 5
81, 6
8, 7
8, 5
8, 5
19, 10
13, 15
6, 7
9, 14
40, 38
57, 69
27, 24
38, 50
445, 558
2165, 2336
1560, 1390
216, 165
17, 16
33, 38
108, 146
346, 359
220, 205
25, 20
8, 6
14, 8
5, 4
3, 4
6, 9
17, 15
39, 4
33, 7
11, 13
5, 10
6, 2
2, 4
5, 5
3, 1
6, 9
3, 6
2, 5
2, 14
10, 6
6, 3
5, 2
7, 0
8, 3
4, 1
2, 2
5, 3
3, 6
7, 8
19, 9
7, 7
3, 1
4, 3
1, 5
3, 3
1, 4
2, 2
4, 2
2, 3
2, 4
1, 2
2, 5
1, 0
3, 0
2, 4
2, 1
1, 2
0, 2
0, 1
1, 1
2, 6
1, 1
3, 1
2, 2
2, 2
1, 4
0, 2
2, 1
1, 1
0, 0
2, 1
0, 0
1, 2
3, 1
2, 0
0, 2
1, 0
1, 1
1, 1
1, 2
0, 0
0, 0
1, 2
1, 1
1, 1
1, 1
1, 2
1, 1
3, 1
0, 0
2, 0
0, 2
0, 0
0, 0
0, 0
0, 0
1, 1
1, 1
2, 0
0, 0
1, 0
0, 0
2, 0
0, 0
0, 0
0, 0
0, 0
0, 0
0, 0
0, 0
1, 1
0, 0
0, 0
1, 0
0, 1
0, 2
1, 0
0, 0
0, 1
0, 0
0, 0
0, 2
0, 0
0, 0
0, 0
0, 1
0, 1
0, 0
0, 0
0, 0
0, 0
0, 0
1, 0
0, 0
0, 0
0, 0
0, 0
1, 0
0, 1
0, 0
0, 0
0, 0
0, 0
0, 0
0, 0
0, 0
0, 0
0, 0
0, 0
0, 0
0, 1
0, 0
0, 0
0, 0
0, 0
0, 0
0, 0
0, 0
0, 0
0, 0
0, 0
0, 0
0, 0
0, 0
0, 0
0, 0
0, 0
0, 0
0, 0
0, 0
0, 0
0, 0
0, 0
0, 0
0, 0
0, 0
0, 0
0, 0
0, 0
0, 0
0, 0
0, 0
0, 0
0, 0
0, 0
0, 0
0, 0
0, 0
0, 0
0, 0
0, 0
0, 0
0, 0
0, 0
0, 0
0, 0
0, 0
0, 0
0, 0
0, 0
0, 0
0, 0
0, 0
0, 0
0, 0
0, 0
0, 0
0, 0
0, 0
0, 0
0, 0
0, 0
0, 0
0, 0
0, 0
0, 0
0, 0
0, 0
0, 0
0, 0
0, 0
0, 0
0, 0
0, 0
0, 0
0, 0
0, 0
0, 0
0, 0
0, 0
0, 0
0, 0
0, 0
0, 0
0, 0
0, 0
0, 0
0, 0
#ENDOFDATA     end of spectrum data

File: ps__0852shot_2361.msa
#FORMAT      : EMSA/MAS spectral data file
#VERSION     : TC202v2.0 PIXL
#TITLE       : N/A
#DATE        :       Date in the format DD-MMM-YYYY, for example 07-JUL-2010
#TIME        :             The time of day at which the spectrum was recorded, in 24-hour format
#OWNER       : PIXL Flight Model       (PIXL will use this to indicate which instrument took the data.)
#NPOINTS     : 4096     Number of data points in the spectrum (This can be zero for configuration only files)
#NCOLUMNS    : 2     Number of data columns in the spectrum (This can be zero for configuration only files)
#XUNITS      : eV
#YUNITS      : COUNTS
#DATATYPE    : YY
#XPERCHAN    : 7.862, 7.881   eV per channel (separate by commas if more than one detector)
#OFFSET      : 18.5, -22.4         eV of first channel  (separate by commas if more than one detector
#SIGNALTYPE  : XRF
#YP_TEMP     : 2.364
#LIVETIME    : 8.54406, 8.57341   seconds (separate by commas if more than one detector)
#REALTIME    : 10, 10.0   seconds (separate by commas if more than one detector)
#SPECTRUM    : start of spectrum data
0, 0
0, 0
0, 0
0, 0
0, 0
0, 0
0, 0
0, 1
1, 10
0, 56
1, 14
42, 45
63, 45
13, 8
5, 2
108, 112
414, 426
113, 101
5, 7
6, 5
0, 3
6, 4
0, 12
7, 137
43, 2608
37, 3616
28, 383
17, 11
5, 2
2, 3
3, 1
3, 3
1, 5
7, 14
24, 33
7, 6
10, 7
10, 16
5, 17
3, 10
4, 7
4, 15
16, 9
19, 8
18, 2
9, 4
10, 6
8, 9
34, 16
42, 57
34, 30
12, 9
8, 9
30, 52
66, 65
25, 22
32, 32
462, 624
2073, 2385
1478, 1461
180, 151
28, 47
25, 77
96, 171
324, 353
235, 203
16, 20
9, 4
9, 14
8, 11
3, 6
3, 5
5, 7
17, 9
10, 13
7, 20
6, 26
4, 9
2, 2
9, 6
2, 4
5, 4
2, 14
10, 5
9, 3
12, 3
8, 5
4, 3
1, 2
1, 4
1, 0
1, 2
2, 3
3, 1
0, 2
3, 0
3, 1
9, 5
2, 13
2, 6
3, 3
2, 2
3, 2
2, 1
0, 4
3, 3
2, 1
2, 2
1, 2
3, 4
4, 1
4, 2
2, 2
4, 5
3, 2
0, 2
2, 4
2, 3
1, 1
1, 1
3, 1
2, 2
2, 6
2, 1
1, 1
0, 2
1, 2
0, 0
2, 0
2, 1
1, 0
1, 0
1, 1
1, 0
1, 2
1, 1
0, 0
0, 1
0, 1
2, 0
0, 2
1, 0
0, 0
1, 0
1, 0
1, 1
1, 1
1, 0
3, 0
1, 0
0, 0
0, 0
0, 0
0, 0
1, 0
1, 0
0, 1
0, 0
0, 0
0, 1
0, 0
1, 0
0, 0
0, 0
0, 0
0, 0
0, 1
1, 0
0, 0
0, 0
1, 0
0, 1
0, 1
1, 1
0, 0
1, 0
0, 0
0, 0
0, 0
0, 0
0, 0
0, 0
0, 0
0, 0
0, 1
0, 0
0, 0
0, 1
0, 0
0, 0
0, 0
0, 0
1, 0
0, 0
0, 0
0, 0
0, 0
0, 0
0, 0
0, 0
1, 0
0, 0
0, 0
0, 0
0, 0
0, 0
0, 0
0, 0
0, 0
0, 0
0, 0
0, 0
0, 0
0, 0
0, 0
0, 0
0, 0
0, 0
0, 0
0, 0
0, 0
0, 0
0, 0
0, 0
0, 0
0, 0
0, 0
0, 0
0, 0
0, 0
0, 0
0, 0
0, 0
0, 0
0, 0
0, 0
0, 0
0, 0
0, 0
0, 0
0, 0
0, 0
0, 0
0, 0
0, 0
0, 0
0, 0
0, 0
0, 0
0, 0
0, 0
0, 0
0, 0
0, 0
0, 0
0, 0
0, 0
0, 0
0, 0
0, 0
0, 0
0, 0
0, 0
0, 0
0, 0
0, 0
0, 0
0, 0
0, 0
0, 0
0, 0
0, 0
0, 0
0, 0
0, 0
0, 0
0, 0
0, 0
0, 0
0, 0
0, 0
0, 0
0, 0
0, 0
0, 0
0, 0
0, 0
0, 0
0, 0
0, 0
0, 0
0, 0
0, 0
0, 0
#ENDOFDATA     end of spectrum data

File: ps__0852shot_2362.msa
#FORMAT      : EMSA/MAS spectral data file
#VERSION     : TC202v2.0 PIXL
#TITLE       : N/A
#DATE        :       Date in the format DD-MMM-YYYY, for example 07-JUL-2010
#TIME        :             The time of day at which the spectrum was recorded, in 24-hour format
#OWNER       : PIXL Flight Model       (PIXL will use this to indicate which instrument took the data.)
#NPOINTS     : 4096     Number of data points in the spectrum (This can be zero for configuration only files)
#NCOLUMNS    : 2     Number of data columns in the spectrum (This can be zero for configuration only files)
#XUNITS      : eV
#YUNITS      : COUNTS
#DATATYPE    : YY
#XPERCHAN    : 7.862, 7.881   eV per channel (separate by commas if more than one detector)
#OFFSET      : 18.5, -22.4         eV of first channel  (separate by commas if more than one detector
#SIGNALTYPE  : XRF
#YP_TEMP     : 2.332
#LIVETIME    : 8.56637, 8.53903   seconds (separate by commas if more than one detector)
#REALTIME    : 10, 10.0   seconds (separate by commas if more than one detector)
#SPECTRUM    : start of spectrum data
0, 0
0, 0
0, 0
0, 0
0, 0
0, 0
0, 0
1, 1
1, 8
0, 21
3, 8
35, 60
69, 83
4, 7
1, 6
95, 113
435, 477
100, 107
7, 5
1, 1
0, 4
6, 2
3, 5
6, 49
30, 1204
44, 1741
26, 183
11, 11
4, 4
1, 6
2, 4
2, 4
1, 3
6, 7
20, 9
6, 11
10, 45
9, 30
5, 9
6, 6
3, 3
9, 8
14, 16
13, 5
6, 2
5, 6
2, 2
7, 6
8, 6
15, 22
21, 15
8, 6
6, 5
38, 46
62, 47
21, 17
25, 36
434, 586
2170, 2405
1581, 1465
168, 154
30, 41
31, 33
103, 137
303, 370
230, 178
23, 27
8, 11
11, 13
9, 8
6, 5
4, 1
10, 6
14, 3
27, 7
15, 5
3, 8
2, 4
3, 6
2, 1
1, 1
4, 5
4, 1
6, 7
5, 5
8, 5
6, 9
2, 2
5, 2
0, 7
4, 0
5, 3
3, 4
1, 4
3, 2
0, 3
3, 5
3, 2
5, 10
2, 10
2, 4
0, 3
2, 3
2, 1
1, 3
3, 0
4, 0
5, 0
5, 3
1, 2
5, 2
2, 0
1, 1
0, 0
0, 5
3, 2
3, 3
2, 3
1, 1
4, 0
1, 0
2, 2
3, 3
0, 2
3, 2
1, 0
1, 1
1, 0
1, 1
2, 0
0, 2
0, 0
1, 1
2, 0
0, 2
1, 5
2, 1
0, 1
0, 2
1, 0
1, 0
1, 0
1, 0
2, 1
0, 1
3, 0
0, 1
1, 0
0, 0
0, 0
0, 0
1, 0
0, 0
1, 1
0, 1
0, 0
1, 0
0, 0
0, 0
2, 0
0, 0
0, 0
0, 1
0, 0
0, 0
1, 0
0, 0
0, 0
2, 0
0, 1
0, 2
0, 0
0, 0
0, 1
0, 0
0, 1
0, 0
0, 1
0, 0
0, 0
0, 0
1, 0
0, 0
0, 0
0, 0
0, 0
0, 0
0, 0
0, 0
0, 1
0, 0
0, 0
0, 0
1, 1
0, 0
0, 0
0, 0
0, 0
0, 0
0, 1
0, 0
0, 0
0, 0
0, 0
0, 0
0, 0
0, 0
0, 0
0, 0
0, 0
0, 0
0, 0
0, 0
0, 0
0, 0
0, 0
0, 0
0, 0
0, 0
0, 0
0, 1
0, 0
1, 0
0, 0
0, 0
0, 0
0, 0
0, 0
0, 0
0, 0
0, 0
0, 0
0, 0
0, 0
0, 0
0, 0
0, 0
0, 0
0, 0
0, 0
0, 0
0, 0
0, 0
0, 0
0, 0
0, 0
0, 0
0, 0
0, 0
0, 0
0, 0
0, 0
0, 0
0, 0
0, 0
0, 0
0, 0
0, 0
0, 0
0, 0
0, 0
0, 0
0, 0
0, 0
0, 0
0, 0
0, 0
0, 0
0, 0
0, 0
0, 0
0, 0
0, 0
0, 0
0, 0
0, 0
0, 0
0, 0
0, 0
0, 0
0, 0
0, 0
0, 0
0, 0
0, 0
0, 0
0, 0
0, 0
0, 0
0, 0
0, 0
0, 0
0, 0
0, 0
#ENDOFDATA     end of spectrum data

File: ps__0852shot_2363.msa
#FORMAT      : EMSA/MAS spectral data file
#VERSION     : TC202v2.0 PIXL
#TITLE       : N/A
#DATE        :       Date in the format DD-MMM-YYYY, for example 07-JUL-2010
#TIME        :             The time of day at which the spectrum was recorded, in 24-hour format
#OWNER       : PIXL Flight Model       (PIXL will use this to indicate which instrument took the data.)
#NPOINTS     : 4096     Number of data points in the spectrum (This can be zero for configuration only files)
#NCOLUMNS    : 2     Number of data columns in the spectrum (This can be zero for configuration only files)
#XUNITS      : eV
#YUNITS      : COUNTS
#DATATYPE    : YY
#XPERCHAN    : 7.862, 7.881   eV per channel (separate by commas if more than one detector)
#OFFSET      : 18.5, -22.4         eV of first channel  (separate by commas if more than one detector
#SIGNALTYPE  : XRF
#YP_TEMP     : 2.011
#LIVETIME    : 8.56577, 8.55665   seconds (separate by commas if more than one detector)
#REALTIME    : 10, 10.0   seconds (separate by commas if more than one detector)
#SPECTRUM    : start of spectrum data
0, 0
0, 0
0, 0
0, 0
0, 0
0, 0
0, 0
0, 0
0, 5
2, 13
1, 3
56, 47
68, 75
5, 11
6, 2
90, 109
432, 430
113, 111
6, 8
1, 1
2, 6
2, 4
2, 5
8, 58
39, 740
52, 1016
27, 118
12, 20
3, 6
1, 2
0, 1
1, 1
1, 2
6, 14
13, 11
7, 12
3, 52
8, 51
6, 11
5, 3
1, 5
8, 9
10, 11
9, 16
4, 13
8, 13
4, 3
7, 8
6, 13
7, 13
14, 8
12, 4
18, 12
28, 37
58, 57
18, 20
30, 41
454, 626
2063, 2460
1510, 1451
180, 150
27, 45
30, 42
113, 132
322, 393
202, 196
35, 19
5, 9
11, 12
8, 14
4, 2
3, 6
8, 6
19, 6
24, 6
21, 9
4, 4
4, 2
9, 2
5, 1
1, 3
2, 0
0, 4
6, 5
7, 5
8, 4
9, 5
2, 4
3, 3
1, 4
3, 3
4, 2
5, 1
2, 1
3, 2
5, 4
3, 6
6, 3
4, 7
3, 3
2, 5
0, 3
1, 3
5, 2
3, 0
1, 1
2, 2
1, 3
2, 3
2, 2
2, 5
1, 1
5, 6
1, 0
0, 4
2, 3
3, 1
2, 4
0, 0
0, 1
2, 2
2, 2
2, 4
0, 4
2, 1
0, 1
0, 0
0, 3
1, 2
1, 3
0, 1
0, 0
0, 1
1, 0
0, 0
3, 4
0, 0
1, 0
0, 1
0, 0
1, 0
0, 0
0, 1
1, 0
2, 1
1, 2
1, 0
0, 0
0, 0
0, 0
0, 0
1, 0
2, 1
0, 0
0, 0
1, 0
1, 0
0, 0
0, 0
0, 0
0, 0
0, 1
0, 0
0, 0
1, 0
0, 0
0, 1
0, 0
0, 0
0, 0
1, 0
0, 0
0, 0
0, 0
0, 0
0, 0
0, 0
0, 0
0, 0
0, 0
0, 0
0, 0
0, 0
2, 0
0, 1
0, 0
0, 0
0, 0
0, 0
0, 0
1, 0
0, 0
0, 0
0, 0
0, 0
0, 0
0, 0
0, 0
0, 0
0, 0
0, 0
0, 0
0, 0
0, 0
0, 0
0, 0
0, 0
0, 0
0, 0
0, 0
0, 0
0, 0
0, 0
0, 0
0, 0
0, 0
0, 0
0, 0
0, 0
0, 0
0, 0
0, 0
0, 0
0, 0
0, 0
0, 0
0, 0
0, 0
0, 0
0, 0
0, 0
0, 0
0, 0
0, 0
0, 0
0, 0
0, 0
0, 0
0, 0
0, 0
0, 0
0, 0
0, 0
0, 0
0, 0
0, 0
0, 0
0, 0
0, 0
0, 0
0, 0
0, 0
0, 0
0, 0
0, 0
0, 0
0, 0
0, 0
0, 0
0, 0
0, 0
0, 0
0, 0
0, 0
0, 0
0, 0
0, 0
0, 0
0, 0
0, 0
0, 0
0, 0
0, 0
0, 0
0, 0
0, 0
0, 0
0, 0
0, 0
0, 0
0, 0
0, 0
0, 0
0, 0
0, 0
0, 0
0, 0
0, 0
0, 0
0, 0
0, 0
0, 0
0, 0
0, 0
#ENDOFDATA     end of spectrum data

File: ps__0852shot_2364.msa
#FORMAT      : EMSA/MAS spectral data file
#VERSION     : TC202v2.0 PIXL
#TITLE       : N/A
#DATE        :       Date in the format DD-MMM-YYYY, for example 07-JUL-2010
#TIME        :             The time of day at which the spectrum was recorded, in 24-hour format
#OWNER       : PIXL Flight Model       (PIXL will use this to indicate which instrument took the data.)
#NPOINTS     : 4096     Number of data points in the spectrum (This can be zero for configuration only files)
#NCOLUMNS    : 2     Number of data columns in the spectrum (This can be zero for configuration only files)
#XUNITS      : eV
#YUNITS      : COUNTS
#DATATYPE    : YY
#XPERCHAN    : 7.862, 7.881   eV per channel (separate by commas if more than one detector)
#OFFSET      : 18.5, -22.4         eV of first channel  (separate by commas if more than one detector
#SIGNALTYPE  : XRF
#YP_TEMP     : 2.396
#LIVETIME    : 8.53365, 8.55596   seconds (separate by commas if more than one detector)
#REALTIME    : 10, 10.0   seconds (separate by commas if more than one detector)
#SPECTRUM    : start of spectrum data
0, 0
0, 0
0, 0
0, 0
0, 0
0, 0
0, 0
0, 0
0, 3
1, 9
2, 4
44, 41
51, 70
9, 3
4, 7
90, 111
423, 422
83, 116
4, 8
1, 1
2, 1
2, 2
4, 1
7, 23
54, 357
75, 506
27, 69
14, 11
4, 4
5, 3
1, 1
2, 1
2, 2
15, 6
12, 17
2, 7
8, 20
15, 12
17, 8
3, 7
3, 5
6, 6
15, 14
14, 52
3, 42
4, 16
6, 9
5, 4
7, 14
10, 7
28, 11
28, 8
14, 11
29, 53
56, 53
23, 25
31, 61
457, 633
2250, 2478
1539, 1518
176, 186
36, 28
29, 21
122, 139
325, 373
210, 221
32, 16
1, 8
11, 9
8, 8
6, 3
5, 4
4, 6
11, 8
14, 7
35, 9
28, 8
10, 1
10, 3
2, 5
4, 2
6, 4
6, 4
2, 10
2, 3
2, 3
2, 4
1, 4
1, 7
2, 7
6, 6
2, 4
1, 2
2, 6
6, 8
2, 4
0, 1
5, 3
1, 5
5, 5
4, 5
3, 4
4, 1
1, 1
1, 2
3, 2
0, 2
1, 2
2, 2
0, 3
1, 1
2, 1
1, 3
0, 2
4, 1
4, 1
5, 4
1, 4
0, 4
2, 3
4, 3
2, 2
1, 2
2, 1
1, 0
1, 1
0, 0
1, 0
0, 0
2, 3
0, 2
1, 1
0, 2
3, 1
0, 2
1, 0
2, 3
0, 1
0, 1
0, 0
0, 0
1, 1
0, 0
0, 0
1, 1
0, 0
0, 1
2, 0
0, 0
0, 0
0, 0
0, 1
1, 1
0, 0
0, 0
1, 1
0, 0
0, 0
0, 0
0, 0
1, 0
0, 0
0, 0
0, 1
0, 1
0, 0
0, 0
0, 1
0, 0
0, 0
0, 1
0, 0
0, 1
0, 0
0, 0
0, 0
0, 0
0, 0
1, 1
0, 0
0, 0
0, 0
0, 0
1, 0
0, 1
0, 0
0, 0
0, 0
0, 0
0, 0
0, 0
0, 0
0, 0
0, 0
0, 0
0, 0
0, 0
0, 0
0, 0
0, 0
0, 0
0, 0
0, 1
0, 0
0, 0
0, 0
0, 0
0, 0
0, 0
0, 0
0, 0
0, 0
0, 0
0, 0
0, 0
0, 0
0, 0
0, 0
0, 0
0, 0
0, 0
0, 0
0, 0
0, 0
0, 0
0, 0
0, 0
0, 0
0, 0
0, 0
0, 0
0, 0
0, 0
0, 0
0, 0
0, 0
0, 0
0, 0
0, 0
0, 0
0, 0
0, 0
0, 0
0, 0
0, 0
0, 0
0, 0
0, 0
0, 0
0, 0
0, 0
0, 0
0, 0
0, 0
0, 0
0, 0
0, 0
0, 0
0, 0
0, 0
0, 0
0, 0
0, 0
0, 0
0, 0
0, 0
0, 0
0, 0
0, 0
0, 0
0, 0
0, 0
0, 0
0, 0
0, 0
0, 0
0, 0
0, 0
0, 0
0, 0
0, 0
0, 0
0, 0
0, 0
0, 0
0, 0
0, 0
0, 0
0, 0
0, 0
0, 0
0, 0
0, 0
0, 0
#ENDOFDATA     end of spectrum data