Folder: data-repository/host_upload/06-09-2024/ps_0852/dump3 (part 60)

File: ps__0852shot_2537.msa
#FORMAT      : EMSA/MAS spectral data file
#VERSION     : TC202v2.0 PIXL
#TITLE       : N/A
#DATE        :       Date in the format DD-MMM-YYYY, for example 07-JUL-2010
#TIME        :             The time of day at which the spectrum was recorded, in 24-hour format
#OWNER       : PIXL Flight Model       (PIXL will use this to indicate which instrument took the data.)
#NPOINTS     : 4096     Number of data points in the spectrum (This can be zero for configuration only files)
#NCOLUMNS    : 2     Number of data columns in the spectrum (This can be zero for configuration only files)
#XUNITS      : eV
#YUNITS      : COUNTS
#DATATYPE    : YY
#XPERCHAN    : 7.862, 7.881   eV per channel (separate by commas if more than one detector)
#OFFSET      : 18.5, -22.4         eV of first channel  (separate by commas if more than one detector
#SIGNALTYPE  : XRF
#YP_TEMP     : 2.203
#LIVETIME    : 8.55433, 8.56534   seconds (separate by commas if more than one detector)
#REALTIME    : 10, 10.0   seconds (separate by commas if more than one detector)
#SPECTRUM    : start of spectrum data
0, 0
0, 0
0, 0
0, 0
0, 0
0, 0
0, 0
0, 0
0, 1
0, 3
5, 0
39, 38
65, 68
6, 3
9, 6
107, 91
401, 427
118, 102
4, 3
1, 3
4, 2
6, 11
4, 5
2, 11
39, 113
51, 148
29, 31
19, 13
6, 8
3, 5
5, 3
6, 3
4, 2
13, 15
14, 18
7, 12
4, 12
11, 6
24, 8
35, 7
9, 9
18, 12
25, 15
31, 21
77, 9
44, 6
8, 7
7, 12
10, 9
26, 28
19, 20
16, 16
15, 13
39, 49
70, 51
18, 40
40, 39
519, 609
2166, 2402
1603, 1424
194, 143
29, 11
17, 34
125, 137
323, 342
198, 209
28, 24
6, 9
19, 21
15, 5
3, 4
5, 2
7, 5
18, 5
16, 6
8, 6
6, 8
7, 7
7, 9
7, 3
5, 2
3, 4
3, 3
6, 10
2, 6
3, 7
4, 4
3, 8
5, 6
1, 3
2, 3
6, 5
4, 3
4, 3
6, 3
10, 3
4, 5
2, 2
2, 2
4, 4
2, 2
2, 1
4, 1
2, 5
1, 3
3, 0
3, 2
6, 2
1, 3
3, 0
4, 1
1, 1
1, 1
2, 0
1, 4
3, 9
7, 1
2, 9
2, 3
1, 1
0, 0
1, 2
4, 0
1, 0
0, 1
0, 2
2, 2
0, 2
1, 0
2, 0
1, 1
0, 1
0, 0
1, 0
0, 0
0, 0
0, 1
1, 0
0, 0
1, 1
2, 2
0, 0
1, 1
0, 2
1, 0
0, 2
0, 0
0, 1
0, 1
1, 0
0, 1
0, 0
0, 0
0, 0
0, 0
0, 0
1, 0
0, 0
0, 0
0, 0
0, 0
0, 0
0, 0
0, 1
0, 1
1, 1
0, 0
0, 0
0, 0
0, 0
0, 0
0, 0
1, 0
0, 1
0, 0
0, 0
0, 0
0, 0
0, 0
0, 0
0, 0
0, 0
0, 1
0, 0
0, 0
0, 0
0, 0
0, 0
0, 0
0, 0
1, 0
0, 0
0, 0
0, 0
0, 0
0, 0
0, 0
0, 0
1, 0
0, 0
0, 0
0, 0
0, 0
0, 0
0, 0
0, 0
0, 0
0, 0
0, 0
0, 0
0, 0
0, 0
0, 0
0, 0
0, 0
0, 0
0, 0
0, 0
0, 0
0, 0
0, 0
0, 0
0, 0
0, 0
0, 0
0, 0
0, 0
0, 0
0, 0
0, 0
0, 0
0, 0
0, 0
0, 0
0, 0
0, 0
0, 0
0, 0
0, 0
0, 0
0, 0
0, 0
0, 0
0, 0
0, 0
0, 0
0, 0
0, 0
0, 0
0, 0
0, 0
0, 0
0, 0
0, 0
0, 0
0, 0
0, 0
0, 0
0, 0
0, 0
0, 0
0, 0
0, 0
0, 0
0, 0
0, 0
0, 0
0, 0
0, 0
0, 0
0, 0
0, 0
0, 0
0, 0
0, 0
0, 0
0, 0
0, 0
0, 0
0, 0
0, 0
0, 0
0, 0
0, 0
0, 0
0, 0
0, 0
0, 0
0, 0
0, 0
0, 0
0, 0
0, 0
0, 0
#ENDOFDATA     end of spectrum data

File: ps__0852shot_2538.msa
#FORMAT      : EMSA/MAS spectral data file
#VERSION     : TC202v2.0 PIXL
#TITLE       : N/A
#DATE        :       Date in the format DD-MMM-YYYY, for example 07-JUL-2010
#TIME        :             The time of day at which the spectrum was recorded, in 24-hour format
#OWNER       : PIXL Flight Model       (PIXL will use this to indicate which instrument took the data.)
#NPOINTS     : 4096     Number of data points in the spectrum (This can be zero for configuration only files)
#NCOLUMNS    : 2     Number of data columns in the spectrum (This can be zero for configuration only files)
#XUNITS      : eV
#YUNITS      : COUNTS
#DATATYPE    : YY
#XPERCHAN    : 7.862, 7.881   eV per channel (separate by commas if more than one detector)
#OFFSET      : 18.5, -22.4         eV of first channel  (separate by commas if more than one detector
#SIGNALTYPE  : XRF
#YP_TEMP     : 2.492
#LIVETIME    : 8.54879, 8.56823   seconds (separate by commas if more than one detector)
#REALTIME    : 10, 10.0   seconds (separate by commas if more than one detector)
#SPECTRUM    : start of spectrum data
0, 0
0, 0
0, 0
0, 0
0, 0
0, 0
0, 0
0, 1
0, 5
1, 24
2, 6
37, 53
49, 65
5, 9
3, 9
82, 110
424, 442
89, 109
4, 3
0, 2
1, 1
2, 8
3, 8
8, 48
62, 1052
60, 1608
37, 182
12, 17
9, 3
2, 1
2, 1
3, 2
3, 5
13, 23
13, 21
4, 6
6, 11
5, 10
9, 9
8, 6
7, 10
5, 16
25, 18
27, 11
23, 8
13, 11
8, 9
9, 7
22, 17
38, 24
33, 25
15, 10
12, 8
39, 52
47, 72
27, 22
40, 35
486, 597
2146, 2394
1547, 1397
197, 122
25, 30
26, 47
104, 137
322, 328
234, 208
26, 16
8, 11
14, 16
10, 7
6, 4
4, 3
7, 4
9, 10
8, 8
6, 16
6, 8
3, 4
7, 0
3, 4
2, 2
4, 1
8, 3
9, 7
12, 5
7, 5
4, 5
7, 6
1, 8
4, 0
1, 9
5, 7
4, 2
3, 4
5, 2
4, 7
2, 3
8, 3
3, 4
4, 5
3, 0
2, 5
2, 2
3, 5
1, 0
1, 1
2, 0
3, 5
3, 1
2, 4
1, 3
2, 1
0, 3
1, 4
0, 3
7, 3
5, 7
2, 5
1, 0
1, 1
1, 1
3, 2
4, 1
3, 3
0, 2
1, 2
0, 2
0, 1
2, 3
0, 0
0, 1
0, 1
0, 2
0, 0
0, 0
0, 1
0, 1
2, 0
2, 1
0, 1
0, 0
0, 2
0, 0
0, 1
2, 1
0, 0
0, 0
0, 0
1, 3
1, 2
0, 1
0, 0
2, 1
0, 0
0, 0
0, 0
0, 0
0, 0
0, 0
0, 0
1, 1
1, 0
0, 0
0, 1
0, 0
0, 0
0, 1
1, 1
1, 1
0, 0
0, 0
0, 1
1, 0
1, 0
0, 0
0, 0
0, 0
0, 0
0, 0
0, 0
0, 0
0, 0
0, 0
0, 0
0, 0
0, 0
1, 0
1, 0
0, 0
0, 0
0, 0
0, 0
0, 0
0, 0
0, 0
1, 0
0, 0
0, 0
0, 0
0, 0
0, 0
0, 0
0, 0
0, 0
1, 0
0, 0
0, 0
0, 0
0, 0
0, 1
0, 0
0, 0
0, 0
0, 0
0, 0
0, 0
0, 0
0, 0
0, 0
0, 0
0, 0
0, 0
0, 0
0, 0
0, 0
0, 0
0, 0
0, 0
0, 0
0, 0
0, 0
0, 0
0, 0
0, 0
0, 0
0, 0
0, 0
0, 0
0, 0
0, 0
0, 0
0, 0
0, 0
0, 0
0, 0
0, 0
0, 0
0, 0
0, 0
0, 0
0, 0
0, 0
0, 0
0, 0
0, 0
0, 0
0, 0
0, 0
0, 0
0, 0
0, 0
0, 0
0, 0
0, 0
0, 0
0, 0
0, 0
0, 0
0, 0
0, 0
0, 0
0, 0
0, 0
0, 0
0, 0
0, 0
0, 0
0, 0
0, 0
0, 0
0, 0
0, 0
0, 0
0, 0
0, 0
0, 0
0, 0
0, 0
0, 0
0, 0
0, 0
0, 0
0, 0
0, 0
#ENDOFDATA     end of spectrum data

File: ps__0852shot_2539.msa
#FORMAT      : EMSA/MAS spectral data file
#VERSION     : TC202v2.0 PIXL
#TITLE       : N/A
#DATE        :       Date in the format DD-MMM-YYYY, for example 07-JUL-2010
#TIME        :             The time of day at which the spectrum was recorded, in 24-hour format
#OWNER       : PIXL Flight Model       (PIXL will use this to indicate which instrument took the data.)
#NPOINTS     : 4096     Number of data points in the spectrum (This can be zero for configuration only files)
#NCOLUMNS    : 2     Number of data columns in the spectrum (This can be zero for configuration only files)
#XUNITS      : eV
#YUNITS      : COUNTS
#DATATYPE    : YY
#XPERCHAN    : 7.862, 7.881   eV per channel (separate by commas if more than one detector)
#OFFSET      : 18.5, -22.4         eV of first channel  (separate by commas if more than one detector
#SIGNALTYPE  : XRF
#YP_TEMP     : 1.947
#LIVETIME    : 8.5673, 8.55777   seconds (separate by commas if more than one detector)
#REALTIME    : 10, 10.0   seconds (separate by commas if more than one detector)
#SPECTRUM    : start of spectrum data
0, 0
0, 0
0, 0
0, 0
0, 0
0, 0
0, 0
0, 1
0, 6
0, 40
0, 8
50, 52
64, 64
5, 10
3, 7
88, 111
407, 470
101, 92
5, 4
3, 5
3, 1
6, 6
2, 7
6, 58
36, 1394
58, 2163
27, 206
9, 8
7, 4
1, 4
3, 1
2, 2
4, 5
9, 17
19, 16
5, 6
7, 34
11, 21
9, 8
2, 1
4, 2
15, 12
7, 20
8, 7
3, 8
10, 12
9, 4
6, 5
15, 12
21, 23
12, 16
10, 8
10, 16
31, 45
59, 54
20, 21
22, 39
456, 596
2095, 2403
1534, 1412
176, 158
35, 44
23, 25
78, 117
338, 337
234, 206
33, 20
3, 7
13, 18
10, 7
4, 4
6, 3
5, 2
17, 4
20, 6
11, 9
6, 6
4, 3
1, 1
1, 1
1, 2
3, 3
2, 10
4, 9
5, 6
10, 6
6, 7
2, 8
0, 4
3, 3
2, 3
2, 4
1, 2
3, 5
4, 3
8, 4
3, 5
10, 4
3, 10
2, 4
2, 2
1, 4
1, 4
1, 1
0, 2
1, 2
1, 0
2, 1
1, 3
0, 6
2, 2
3, 4
3, 1
1, 1
0, 4
5, 2
0, 1
2, 5
2, 4
2, 1
0, 0
4, 1
1, 2
1, 2
1, 0
0, 2
2, 2
1, 1
1, 1
0, 0
2, 1
1, 0
1, 0
0, 1
1, 1
0, 1
0, 1
0, 0
1, 0
0, 0
1, 0
0, 1
1, 0
1, 0
0, 2
0, 0
0, 1
1, 0
0, 1
1, 0
1, 1
0, 0
0, 0
1, 1
1, 1
2, 0
0, 0
0, 0
1, 0
0, 0
0, 0
1, 0
0, 2
0, 0
0, 1
0, 1
0, 1
0, 1
0, 0
0, 0
0, 1
0, 0
0, 0
0, 0
0, 0
0, 0
0, 0
0, 0
0, 0
0, 1
1, 0
0, 0
1, 0
0, 0
1, 0
0, 1
0, 0
0, 0
0, 0
0, 0
0, 0
0, 0
0, 0
0, 0
0, 0
0, 0
0, 1
0, 0
0, 0
0, 0
0, 0
0, 0
0, 0
0, 0
0, 0
0, 0
0, 0
0, 0
0, 0
0, 0
0, 0
0, 0
0, 0
0, 0
0, 0
0, 1
0, 0
0, 0
0, 0
0, 0
0, 0
0, 0
0, 0
0, 0
0, 0
0, 0
0, 0
0, 0
0, 0
0, 0
0, 0
0, 0
0, 0
0, 0
0, 0
0, 0
0, 0
0, 0
0, 0
0, 0
0, 0
0, 0
0, 0
0, 0
0, 0
0, 0
0, 0
0, 0
0, 0
0, 0
0, 0
0, 0
0, 0
0, 0
0, 0
0, 0
0, 0
0, 0
0, 0
0, 0
0, 0
0, 0
0, 0
0, 0
0, 0
0, 0
0, 0
0, 0
0, 0
0, 0
0, 0
0, 0
0, 0
0, 0
0, 0
0, 0
0, 0
0, 0
0, 0
0, 0
0, 0
0, 0
0, 0
0, 0
0, 0
0, 0
0, 0
0, 0
0, 0
0, 0
0, 0
0, 0
0, 0
0, 0
#ENDOFDATA     end of spectrum data

File: ps__0852shot_2540.msa
#FORMAT      : EMSA/MAS spectral data file
#VERSION     : TC202v2.0 PIXL
#TITLE       : N/A
#DATE        :       Date in the format DD-MMM-YYYY, for example 07-JUL-2010
#TIME        :             The time of day at which the spectrum was recorded, in 24-hour format
#OWNER       : PIXL Flight Model       (PIXL will use this to indicate which instrument took the data.)
#NPOINTS     : 4096     Number of data points in the spectrum (This can be zero for configuration only files)
#NCOLUMNS    : 2     Number of data columns in the spectrum (This can be zero for configuration only files)
#XUNITS      : eV
#YUNITS      : COUNTS
#DATATYPE    : YY
#XPERCHAN    : 7.862, 7.881   eV per channel (separate by commas if more than one detector)
#OFFSET      : 18.5, -22.4         eV of first channel  (separate by commas if more than one detector
#SIGNALTYPE  : XRF
#YP_TEMP     : 2.428
#LIVETIME    : 8.555, 8.56543   seconds (separate by commas if more than one detector)
#REALTIME    : 10, 10.0   seconds (separate by commas if more than one detector)
#SPECTRUM    : start of spectrum data
0, 0
0, 0
0, 0
0, 0
0, 0
0, 0
0, 0
0, 0
0, 5
1, 23
2, 7
44, 36
60, 52
8, 7
3, 5
103, 86
424, 507
116, 127
4, 5
0, 3
2, 2
1, 1
4, 3
3, 59
28, 1003
28, 1316
24, 166
13, 12
2, 3
5, 2
3, 0
1, 2
1, 3
7, 14
14, 15
2, 9
8, 36
5, 32
5, 8
0, 3
3, 6
6, 9
8, 15
8, 11
3, 4
3, 7
2, 4
11, 2
8, 8
11, 20
15, 9
13, 9
10, 12
44, 46
49, 61
13, 23
22, 39
450, 566
2148, 2361
1583, 1361
178, 155
22, 39
26, 30
108, 128
337, 356
230, 200
17, 18
9, 6
9, 11
5, 8
3, 3
2, 8
8, 7
18, 7
21, 7
15, 6
3, 7
3, 7
3, 4
0, 0
2, 1
2, 3
6, 8
3, 6
7, 4
4, 2
4, 5
2, 2
2, 8
4, 7
4, 2
0, 0
3, 2
2, 3
3, 4
4, 1
1, 0
4, 5
5, 8
3, 8
3, 5
0, 1
0, 0
1, 3
2, 3
4, 1
2, 0
2, 2
2, 3
3, 1
2, 5
4, 4
2, 4
3, 4
3, 1
1, 3
4, 5
4, 0
3, 1
0, 2
0, 2
2, 3
3, 3
1, 2
2, 1
0, 0
1, 0
0, 0
2, 0
0, 2
0, 0
0, 0
0, 0
0, 2
2, 1
1, 0
1, 1
1, 1
0, 1
0, 3
1, 1
0, 1
2, 0
0, 0
0, 0
0, 1
0, 1
0, 0
0, 0
1, 0
1, 0
0, 0
0, 1
0, 1
0, 0
0, 0
0, 1
0, 0
0, 0
0, 0
0, 1
1, 0
0, 0
0, 0
0, 1
0, 0
2, 0
0, 0
2, 0
0, 0
1, 1
1, 0
0, 3
0, 0
0, 2
0, 1
0, 0
0, 0
0, 0
0, 0
0, 0
0, 0
0, 1
1, 1
0, 0
0, 0
0, 0
0, 0
0, 0
0, 0
0, 0
0, 0
0, 0
1, 0
0, 0
0, 0
0, 0
0, 0
0, 0
0, 0
0, 0
0, 0
0, 0
0, 0
0, 0
0, 1
0, 0
0, 1
0, 0
0, 0
0, 0
0, 0
0, 0
0, 0
1, 0
0, 0
0, 0
0, 0
0, 0
0, 0
0, 0
0, 0
0, 0
0, 0
0, 0
0, 0
0, 1
0, 0
0, 0
0, 0
0, 0
0, 0
0, 0
0, 0
0, 0
0, 0
0, 0
0, 0
0, 0
0, 0
0, 0
0, 0
0, 0
0, 0
0, 0
0, 0
0, 0
0, 0
0, 0
0, 0
0, 0
0, 0
0, 0
0, 0
0, 0
0, 0
0, 0
0, 0
0, 0
0, 0
0, 0
0, 0
0, 0
0, 0
0, 0
0, 0
0, 0
0, 0
0, 0
0, 0
0, 0
0, 0
0, 0
0, 0
0, 0
0, 0
0, 0
0, 0
0, 0
0, 0
0, 0
0, 0
0, 0
0, 0
0, 0
0, 0
0, 0
0, 0
0, 0
0, 0
0, 0
0, 0
0, 0
0, 0
#ENDOFDATA     end of spectrum data

File: ps__0852shot_2541.msa
#FORMAT      : EMSA/MAS spectral data file
#VERSION     : TC202v2.0 PIXL
#TITLE       : N/A
#DATE        :       Date in the format DD-MMM-YYYY, for example 07-JUL-2010
#TIME        :             The time of day at which the spectrum was recorded, in 24-hour format
#OWNER       : PIXL Flight Model       (PIXL will use this to indicate which instrument took the data.)
#NPOINTS     : 4096     Number of data points in the spectrum (This can be zero for configuration only files)
#NCOLUMNS    : 2     Number of data columns in the spectrum (This can be zero for configuration only files)
#XUNITS      : eV
#YUNITS      : COUNTS
#DATATYPE    : YY
#XPERCHAN    : 7.862, 7.881   eV per channel (separate by commas if more than one detector)
#OFFSET      : 18.5, -22.4         eV of first channel  (separate by commas if more than one detector
#SIGNALTYPE  : XRF
#YP_TEMP     : 2.3
#LIVETIME    : 8.55992, 8.55531   seconds (separate by commas if more than one detector)
#REALTIME    : 10, 10.0   seconds (separate by commas if more than one detector)
#SPECTRUM    : start of spectrum data
0, 0
0, 0
0, 0
0, 0
0, 0
0, 0
0, 0
0, 0
0, 6
1, 30
1, 6
36, 56
70, 60
11, 9
8, 7
95, 117
463, 445
106, 106
6, 8
0, 3
2, 2
5, 11
3, 2
10, 47
49, 819
47, 1183
20, 110
11, 17
5, 4
1, 3
0, 2
3, 4
3, 2
10, 11
17, 14
6, 6
4, 21
11, 14
7, 1
2, 2
3, 4
5, 12
12, 12
13, 13
5, 13
5, 7
1, 9
5, 8
5, 5
10, 14
9, 11
21, 12
10, 8
38, 49
58, 77
21, 31
39, 30
494, 628
2161, 2438
1601, 1465
198, 161
19, 20
16, 29
87, 115
350, 376
226, 180
31, 22
7, 16
19, 15
9, 10
8, 4
1, 4
2, 7
6, 6
13, 3
9, 5
7, 2
2, 10
4, 3
1, 2
7, 5
8, 4
5, 6
4, 7
8, 8
4, 2
5, 4
0, 1
0, 7
1, 3
2, 4
2, 5
3, 3
4, 3
4, 5
1, 3
3, 4
6, 6
4, 5
5, 8
2, 6
3, 2
5, 4
1, 4
2, 4
1, 3
1, 0
1, 3
1, 2
3, 0
4, 8
3, 4
3, 2
1, 3
4, 1
1, 6
4, 3
2, 2
2, 1
0, 0
2, 3
1, 8
6, 4
3, 1
0, 2
1, 2
4, 2
2, 1
2, 1
0, 0
2, 1
0, 1
0, 3
2, 0
2, 0
0, 0
2, 0
1, 1
0, 1
2, 1
1, 0
1, 1
0, 0
1, 1
1, 1
1, 1
0, 1
1, 2
1, 1
0, 1
0, 1
0, 1
0, 0
3, 0
0, 0
0, 0
0, 0
0, 1
0, 1
0, 0
0, 0
0, 0
0, 0
0, 0
0, 0
0, 0
1, 1
2, 0
0, 0
0, 0
0, 0
0, 1
0, 1
0, 0
0, 0
1, 0
0, 0
1, 1
0, 0
0, 0
0, 0
0, 1
0, 1
0, 0
0, 1
0, 1
0, 0
0, 0
0, 0
0, 0
0, 0
0, 0
0, 0
1, 0
0, 0
0, 0
0, 1
0, 0
0, 0
0, 0
0, 0
0, 0
0, 0
0, 0
0, 0
0, 0
0, 0
0, 0
0, 0
0, 0
0, 0
0, 0
0, 0
0, 0
0, 0
0, 0
1, 0
0, 0
0, 0
0, 0
0, 0
0, 0
0, 0
0, 0
0, 0
0, 0
0, 0
0, 0
0, 0
0, 0
0, 0
0, 0
0, 0
0, 0
0, 0
0, 0
0, 0
0, 0
0, 0
0, 0
0, 0
0, 0
0, 0
0, 0
0, 0
0, 0
0, 0
0, 0
0, 0
0, 0
0, 0
0, 0
0, 0
0, 0
0, 0
0, 0
0, 0
0, 0
0, 0
0, 0
0, 0
0, 0
0, 0
0, 0
0, 0
0, 0
0, 0
0, 0
0, 0
0, 0
0, 0
0, 0
0, 0
0, 0
0, 0
0, 0
0, 0
0, 0
0, 0
0, 0
0, 0
0, 0
0, 0
0, 0
0, 0
0, 0
0, 0
0, 0
0, 0
0, 0
0, 0
0, 0
0, 0
0, 0
#ENDOFDATA     end of spectrum data

File: ps__0852shot_2542.msa
#FORMAT      : EMSA/MAS spectral data file
#VERSION     : TC202v2.0 PIXL
#TITLE       : N/A
#DATE        :       Date in the format DD-MMM-YYYY, for example 07-JUL-2010
#TIME        :             The time of day at which the spectrum was recorded, in 24-hour format
#OWNER       : PIXL Flight Model       (PIXL will use this to indicate which instrument took the data.)
#NPOINTS     : 4096     Number of data points in the spectrum (This can be zero for configuration only files)
#NCOLUMNS    : 2     Number of data columns in the spectrum (This can be zero for configuration only files)
#XUNITS      : eV
#YUNITS      : COUNTS
#DATATYPE    : YY
#XPERCHAN    : 7.862, 7.881   eV per channel (separate by commas if more than one detector)
#OFFSET      : 18.5, -22.4         eV of first channel  (separate by commas if more than one detector
#SIGNALTYPE  : XRF
#YP_TEMP     : 2.171
#LIVETIME    : 8.56067, 8.55705   seconds (separate by commas if more than one detector)
#REALTIME    : 10, 10.0   seconds (separate by commas if more than one detector)
#SPECTRUM    : start of spectrum data
0, 0
0, 0
0, 0
0, 0
0, 0
0, 0
0, 0
0, 0
0, 2
3, 2
0, 1
44, 51
54, 54
6, 6
1, 9
91, 99
420, 479
89, 98
4, 4
0, 1
2, 1
2, 3
4, 0
12, 9
77, 99
90, 154
29, 31
14, 16
2, 6
1, 2
2, 5
3, 2
2, 2
13, 15
20, 16
7, 4
4, 4
9, 12
17, 9
7, 3
6, 3
14, 6
13, 17
10, 25
17, 17
24, 9
14, 17
14, 12
8, 7
16, 13
15, 14
14, 6
18, 18
42, 43
60, 53
23, 34
32, 45
487, 631
2244, 2348
1628, 1407
186, 116
17, 39
23, 44
99, 147
308, 384
224, 211
32, 20
19, 7
20, 15
18, 7
6, 2
3, 11
5, 20
8, 11
5, 4
11, 9
9, 10
6, 14
5, 5
10, 4
7, 5
9, 4
5, 5
2, 6
0, 4
3, 5
5, 5
7, 7
7, 2
6, 2
6, 8
4, 3
4, 7
4, 11
5, 4
2, 2
2, 3
3, 3
1, 3
4, 5
1, 1
2, 2
0, 4
3, 1
3, 4
3, 3
3, 2
3, 0
4, 5
1, 1
1, 4
2, 1
3, 4
4, 1
5, 1
3, 1
1, 4
1, 4
1, 1
1, 3
3, 1
0, 1
5, 0
1, 4
1, 0
0, 0
2, 1
2, 0
0, 1
0, 3
3, 0
2, 1
1, 1
1, 0
0, 0
1, 0
0, 1
3, 0
1, 0
1, 2
0, 0
0, 2
1, 0
2, 1
1, 0
0, 1
1, 0
0, 0
2, 0
0, 0
0, 0
0, 0
2, 0
1, 0
0, 0
1, 0
0, 0
0, 0
1, 0
0, 2
0, 0
0, 0
1, 1
0, 1
0, 0
0, 1
2, 0
0, 0
0, 0
1, 0
0, 0
0, 0
0, 0
0, 0
1, 0
0, 1
0, 0
0, 0
0, 0
0, 0
0, 0
0, 0
0, 0
0, 0
1, 1
0, 0
0, 1
0, 0
0, 0
0, 0
0, 1
0, 0
0, 0
0, 0
0, 0
0, 0
0, 0
1, 0
1, 0
0, 0
0, 0
0, 0
0, 0
0, 0
0, 0
0, 0
0, 0
0, 1
0, 0
0, 0
0, 0
0, 0
0, 0
0, 0
0, 0
0, 0
0, 0
0, 0
0, 0
0, 0
0, 0
0, 0
0, 0
0, 0
0, 0
0, 0
0, 0
0, 0
0, 0
0, 0
0, 0
0, 0
0, 0
0, 0
0, 0
0, 0
0, 0
0, 0
0, 0
0, 0
0, 0
0, 0
0, 0
0, 0
0, 0
0, 0
0, 0
0, 0
0, 0
0, 0
0, 0
0, 0
0, 0
0, 0
0, 0
0, 0
0, 0
0, 0
0, 0
0, 0
0, 0
0, 0
0, 0
0, 0
0, 0
0, 0
0, 0
0, 0
0, 0
0, 0
0, 0
0, 0
0, 0
0, 0
0, 0
0, 0
0, 0
0, 0
0, 0
0, 0
0, 0
0, 0
0, 0
0, 0
0, 0
0, 0
0, 0
0, 0
0, 0
0, 0
0, 0
0, 0
0, 0
0, 0
#ENDOFDATA     end of spectrum data

File: ps__0852shot_2543.msa
#FORMAT      : EMSA/MAS spectral data file
#VERSION     : TC202v2.0 PIXL
#TITLE       : N/A
#DATE        :       Date in the format DD-MMM-YYYY, for example 07-JUL-2010
#TIME        :             The time of day at which the spectrum was recorded, in 24-hour format
#OWNER       : PIXL Flight Model       (PIXL will use this to indicate which instrument took the data.)
#NPOINTS     : 4096     Number of data points in the spectrum (This can be zero for configuration only files)
#NCOLUMNS    : 2     Number of data columns in the spectrum (This can be zero for configuration only files)
#XUNITS      : eV
#YUNITS      : COUNTS
#DATATYPE    : YY
#XPERCHAN    : 7.862, 7.881   eV per channel (separate by commas if more than one detector)
#OFFSET      : 18.5, -22.4         eV of first channel  (separate by commas if more than one detector
#SIGNALTYPE  : XRF
#YP_TEMP     : 2.267
#LIVETIME    : 8.56451, 8.55363   seconds (separate by commas if more than one detector)
#REALTIME    : 10, 10.0   seconds (separate by commas if more than one detector)
#SPECTRUM    : start of spectrum data
0, 0
0, 0
0, 0
0, 0
0, 0
0, 0
0, 0
1, 0
0, 0
0, 0
1, 3
57, 49
59, 49
5, 5
5, 6
106, 97
418, 410
113, 122
1, 3
2, 2
0, 6
2, 2
2, 1
7, 5
65, 28
113, 40
39, 23
21, 9
5, 2
3, 3
2, 7
2, 2
1, 3
31, 30
70, 47
16, 9
9, 10
18, 6
18, 6
13, 2
7, 9
10, 25
14, 40
10, 39
8, 20
25, 14
18, 17
7, 11
15, 6
23, 11
18, 8
20, 13
16, 8
41, 45
68, 54
19, 31
22, 40
472, 558
2094, 2328
1502, 1359
176, 151
34, 35
25, 52
104, 129
334, 361
238, 188
33, 21
13, 7
12, 13
15, 7
5, 7
3, 9
4, 12
3, 9
6, 4
21, 6
19, 4
7, 1
6, 4
1, 3
9, 2
4, 4
4, 5
1, 7
3, 4
3, 5
1, 9
1, 15
2, 7
5, 6
3, 4
6, 3
3, 8
3, 7
0, 9
2, 5
6, 5
5, 3
0, 1
2, 3
3, 1
3, 3
0, 2
1, 1
2, 2
1, 2
1, 2
4, 0
0, 3
1, 2
2, 1
1, 2
0, 1
2, 1
1, 1
1, 1
2, 3
2, 5
4, 1
1, 0
1, 0
2, 2
3, 3
3, 1
2, 1
3, 2
5, 0
0, 2
0, 0
0, 0
1, 1
0, 1
0, 0
0, 1
0, 0
1, 1
0, 0
2, 2
1, 0
0, 0
0, 1
0, 0
0, 0
1, 0
0, 0
0, 0
0, 1
0, 0
1, 0
0, 1
0, 1
1, 0
1, 0
0, 1
0, 0
0, 0
0, 0
0, 0
0, 0
0, 1
0, 0
1, 0
1, 0
0, 0
0, 1
0, 0
0, 1
1, 0
1, 0
0, 1
1, 1
0, 0
1, 0
0, 0
0, 0
0, 1
0, 0
1, 0
0, 0
0, 0
1, 0
0, 0
0, 0
0, 0
0, 0
0, 0
0, 0
0, 0
0, 0
0, 0
0, 0
0, 1
0, 0
0, 0
0, 1
0, 0
0, 0
0, 0
0, 0
0, 0
0, 0
0, 0
0, 0
0, 0
0, 0
0, 0
0, 0
0, 0
0, 0
0, 0
0, 0
0, 0
0, 0
0, 0
0, 0
0, 0
0, 0
0, 0
0, 0
0, 0
0, 0
0, 0
0, 0
0, 0
0, 0
0, 0
0, 0
0, 0
0, 0
0, 0
0, 0
0, 0
0, 0
0, 0
0, 0
0, 0
0, 0
0, 0
0, 0
0, 0
0, 0
0, 0
0, 0
0, 0
0, 0
0, 0
0, 0
0, 0
0, 0
0, 0
0, 0
0, 0
0, 0
0, 0
0, 0
0, 0
0, 0
0, 0
0, 0
0, 0
0, 0
0, 0
0, 0
0, 0
0, 0
0, 0
0, 0
0, 0
0, 0
0, 0
0, 0
0, 0
0, 0
0, 0
0, 0
0, 0
0, 0
0, 0
0, 0
0, 0
0, 0
0, 0
0, 0
0, 0
0, 0
0, 0
0, 0
0, 0
0, 0
0, 0
0, 0
0, 0
0, 0
0, 0
#ENDOFDATA     end of spectrum data

File: ps__0852shot_2544.msa
#FORMAT      : EMSA/MAS spectral data file
#VERSION     : TC202v2.0 PIXL
#TITLE       : N/A
#DATE        :       Date in the format DD-MMM-YYYY, for example 07-JUL-2010
#TIME        :             The time of day at which the spectrum was recorded, in 24-hour format
#OWNER       : PIXL Flight Model       (PIXL will use this to indicate which instrument took the data.)
#NPOINTS     : 4096     Number of data points in the spectrum (This can be zero for configuration only files)
#NCOLUMNS    : 2     Number of data columns in the spectrum (This can be zero for configuration only files)
#XUNITS      : eV
#YUNITS      : COUNTS
#DATATYPE    : YY
#XPERCHAN    : 7.862, 7.881   eV per channel (separate by commas if more than one detector)
#OFFSET      : 18.5, -22.4         eV of first channel  (separate by commas if more than one detector
#SIGNALTYPE  : XRF
#YP_TEMP     : 2.203
#LIVETIME    : 8.55364, 8.55519   seconds (separate by commas if more than one detector)
#REALTIME    : 10, 10.0   seconds (separate by commas if more than one detector)
#SPECTRUM    : start of spectrum data
0, 0
0, 0
0, 0
0, 0
0, 0
0, 0
0, 0
0, 0
1, 2
1, 3
3, 4
41, 35
55, 51
7, 5
5, 2
105, 86
478, 385
121, 75
8, 8
2, 4
2, 3
2, 7
6, 0
10, 5
49, 30
81, 65
38, 24
11, 11
6, 4
1, 2
1, 2
5, 1
8, 4
74, 58
124, 70
21, 8
24, 10
43, 9
56, 6
12, 4
13, 3
14, 16
15, 27
9, 56
13, 40
10, 16
6, 5
6, 7
5, 16
25, 19
35, 15
29, 13
21, 11
43, 44
59, 45
22, 25
22, 50
472, 504
2029, 2006
1383, 1151
182, 129
24, 9
53, 19
122, 109
320, 282
228, 139
27, 20
9, 8
14, 16
6, 4
3, 5
7, 7
9, 8
6, 10
10, 8
50, 7
35, 12
18, 8
3, 7
5, 4
5, 4
1, 6
2, 0
2, 3
3, 5
3, 2
4, 7
3, 6
3, 6
8, 6
6, 3
2, 2
4, 4
5, 5
5, 5
4, 4
5, 3
1, 6
2, 2
2, 2
9, 1
3, 3
0, 3
2, 5
3, 0
5, 0
1, 3
1, 4
4, 0
0, 3
4, 1
1, 2
2, 2
3, 1
2, 3
4, 3
7, 1
5, 0
3, 0
0, 1
1, 1
0, 1
1, 1
2, 0
0, 3
3, 0
0, 1
1, 0
3, 2
1, 0
0, 2
0, 0
0, 1
1, 0
0, 0
1, 1
1, 0
0, 2
0, 0
0, 0
0, 0
2, 1
0, 1
0, 1
1, 0
0, 0
2, 0
1, 0
0, 1
1, 0
0, 0
0, 0
0, 0
2, 0
0, 0
1, 0
0, 1
0, 0
2, 0
0, 3
1, 0
1, 0
1, 0
0, 0
1, 0
1, 0
1, 0
0, 0
0, 0
0, 0
0, 1
1, 0
0, 1
1, 0
0, 1
1, 0
0, 0
0, 0
0, 0
0, 0
0, 0
0, 0
0, 0
0, 0
0, 0
1, 0
0, 0
0, 0
0, 0
0, 0
0, 0
0, 0
0, 0
0, 0
0, 0
0, 0
0, 0
0, 0
0, 0
0, 0
0, 0
0, 0
0, 0
0, 0
0, 0
0, 0
0, 0
0, 0
0, 0
0, 0
0, 0
0, 0
0, 0
0, 0
0, 0
0, 0
0, 0
0, 0
0, 0
0, 0
0, 0
0, 0
0, 0
0, 0
0, 0
0, 0
0, 0
0, 0
0, 0
0, 0
0, 0
0, 0
0, 0
0, 0
0, 0
0, 0
0, 0
0, 0
0, 0
0, 0
0, 0
0, 0
0, 0
0, 0
0, 0
0, 0
0, 0
0, 0
0, 0
0, 0
0, 0
0, 0
0, 0
0, 0
0, 0
0, 0
0, 0
0, 0
0, 0
0, 0
0, 0
0, 0
0, 0
0, 0
0, 0
0, 0
0, 0
0, 0
0, 0
0, 0
0, 0
0, 0
0, 0
0, 0
0, 0
0, 0
0, 0
0, 0
0, 0
0, 0
0, 0
0, 0
0, 0
0, 0
0, 0
0, 0
0, 0
0, 0
0, 0
0, 0
0, 0
0, 0
0, 0
0, 0
#ENDOFDATA     end of spectrum data

File: ps__0852shot_2545.msa
#FORMAT      : EMSA/MAS spectral data file
#VERSION     : TC202v2.0 PIXL
#TITLE       : N/A
#DATE        :       Date in the format DD-MMM-YYYY, for example 07-JUL-2010
#TIME        :             The time of day at which the spectrum was recorded, in 24-hour format
#OWNER       : PIXL Flight Model       (PIXL will use this to indicate which instrument took the data.)
#NPOINTS     : 4096     Number of data points in the spectrum (This can be zero for configuration only files)
#NCOLUMNS    : 2     Number of data columns in the spectrum (This can be zero for configuration only files)
#XUNITS      : eV
#YUNITS      : COUNTS
#DATATYPE    : YY
#XPERCHAN    : 7.862, 7.881   eV per channel (separate by commas if more than one detector)
#OFFSET      : 18.5, -22.4         eV of first channel  (separate by commas if more than one detector
#SIGNALTYPE  : XRF
#YP_TEMP     : 2.139
#LIVETIME    : 8.5526, 8.55228   seconds (separate by commas if more than one detector)
#REALTIME    : 10, 10.0   seconds (separate by commas if more than one detector)
#SPECTRUM    : start of spectrum data
0, 0
0, 0
0, 0
0, 0
0, 0
0, 0
0, 0
0, 0
1, 0
2, 2
1, 1
58, 42
80, 66
12, 7
2, 4
107, 106
460, 387
101, 91
0, 3
1, 0
0, 1
6, 6
6, 1
8, 6
41, 51
45, 77
33, 39
14, 11
4, 3
1, 1
3, 2
3, 2
2, 0
21, 18
29, 21
5, 5
11, 6
20, 4
45, 7
17, 3
7, 3
14, 16
16, 12
12, 60
9, 65
7, 15
5, 7
9, 4
6, 10
22, 16
39, 12
41, 8
19, 15
46, 33
60, 58
36, 30
40, 51
452, 557
2245, 2291
1565, 1315
163, 143
28, 24
52, 37
141, 122
364, 370
241, 197
44, 29
9, 10
17, 11
6, 5
3, 3
8, 6
4, 5
9, 7
14, 8
50, 7
44, 13
8, 12
4, 11
8, 3
5, 3
1, 1
2, 4
3, 2
4, 4
4, 5
2, 4
3, 7
6, 5
2, 2
0, 3
5, 6
3, 3
6, 7
1, 4
6, 4
6, 1
2, 2
1, 2
3, 3
3, 3
2, 2
4, 4
3, 9
2, 1
1, 5
0, 1
2, 2
2, 3
1, 1
3, 1
1, 1
1, 1
1, 1
2, 2
5, 2
1, 3
3, 5
1, 3
3, 2
1, 1
2, 0
1, 0
0, 2
3, 2
1, 2
0, 3
1, 2
0, 1
1, 0
0, 3
1, 0
2, 1
0, 0
1, 0
1, 0
1, 1
0, 1
0, 1
0, 3
0, 0
1, 1
1, 0
0, 0
0, 0
0, 1
0, 0
1, 0
1, 0
0, 3
0, 0
1, 1
0, 0
0, 0
1, 0
0, 0
0, 0
0, 0
1, 0
0, 1
0, 0
0, 0
0, 1
0, 1
0, 0
0, 0
1, 0
0, 0
0, 0
0, 2
0, 0
0, 1
0, 0
1, 0
0, 0
1, 0
0, 1
0, 1
0, 0
0, 0
1, 0
0, 0
0, 1
0, 0
1, 0
0, 0
0, 0
0, 0
0, 0
0, 0
0, 0
0, 0
1, 1
0, 0
0, 0
1, 0
0, 0
0, 0
0, 0
0, 0
0, 0
0, 0
0, 0
0, 0
0, 0
1, 0
0, 0
0, 0
0, 0
0, 0
0, 0
0, 0
0, 0
0, 0
0, 0
0, 0
0, 0
0, 0
0, 0
0, 0
0, 0
0, 0
0, 0
0, 0
0, 0
0, 0
0, 0
0, 0
0, 0
0, 0
0, 0
0, 0
0, 0
0, 0
0, 0
0, 0
0, 0
0, 0
0, 0
0, 0
0, 0
0, 0
0, 0
0, 0
0, 0
0, 0
0, 0
0, 0
0, 0
0, 0
0, 0
0, 0
0, 0
0, 0
0, 0
0, 0
0, 0
0, 0
0, 0
0, 0
0, 0
0, 0
0, 0
0, 0
0, 0
0, 0
0, 0
0, 0
0, 0
0, 0
0, 0
0, 0
0, 0
0, 0
0, 0
0, 0
0, 0
0, 0
0, 0
0, 0
0, 0
0, 0
0, 0
0, 0
0, 0
0, 0
0, 0
0, 0
0, 0
0, 0
0, 0
0, 0
0, 0
0, 0
#ENDOFDATA     end of spectrum data