Folder: data-repository/host_upload/06-09-2024/ps_0852/dump3 (part 46)

File: ps__0852shot_2410.msa
#FORMAT      : EMSA/MAS spectral data file
#VERSION     : TC202v2.0 PIXL
#TITLE       : N/A
#DATE        :       Date in the format DD-MMM-YYYY, for example 07-JUL-2010
#TIME        :             The time of day at which the spectrum was recorded, in 24-hour format
#OWNER       : PIXL Flight Model       (PIXL will use this to indicate which instrument took the data.)
#NPOINTS     : 4096     Number of data points in the spectrum (This can be zero for configuration only files)
#NCOLUMNS    : 2     Number of data columns in the spectrum (This can be zero for configuration only files)
#XUNITS      : eV
#YUNITS      : COUNTS
#DATATYPE    : YY
#XPERCHAN    : 7.862, 7.881   eV per channel (separate by commas if more than one detector)
#OFFSET      : 18.5, -22.4         eV of first channel  (separate by commas if more than one detector
#SIGNALTYPE  : XRF
#YP_TEMP     : 2.107
#LIVETIME    : 8.56004, 8.55331   seconds (separate by commas if more than one detector)
#REALTIME    : 10, 10.0   seconds (separate by commas if more than one detector)
#SPECTRUM    : start of spectrum data
0, 0
0, 0
0, 0
0, 0
0, 0
0, 0
0, 0
0, 1
1, 2
1, 3
1, 1
44, 46
49, 54
3, 7
6, 3
121, 117
452, 411
110, 93
5, 4
1, 1
2, 2
8, 5
6, 0
8, 5
48, 48
48, 38
24, 22
12, 19
4, 3
2, 3
0, 4
2, 4
3, 2
6, 11
9, 16
0, 7
6, 1
2, 2
6, 8
18, 3
9, 3
5, 8
20, 11
13, 6
8, 4
5, 4
0, 11
7, 30
6, 74
14, 25
14, 16
8, 4
13, 8
40, 38
69, 54
22, 23
25, 44
488, 547
2264, 2334
1708, 1361
195, 141
17, 31
13, 11
109, 111
332, 369
222, 198
46, 15
6, 7
10, 11
6, 7
7, 4
5, 7
3, 10
4, 11
12, 4
5, 3
2, 7
2, 9
7, 2
5, 5
3, 2
6, 5
1, 3
2, 7
2, 22
3, 16
5, 4
2, 1
6, 4
6, 1
14, 1
13, 3
12, 0
4, 5
3, 6
2, 5
2, 4
5, 10
2, 0
1, 4
4, 1
1, 3
3, 3
1, 3
0, 1
4, 0
2, 1
0, 2
1, 6
2, 4
2, 3
3, 0
4, 1
4, 2
3, 2
5, 4
5, 2
6, 5
3, 0
0, 1
1, 3
2, 1
4, 2
0, 2
1, 1
3, 0
1, 1
1, 1
0, 1
1, 0
2, 0
1, 2
0, 6
2, 0
0, 2
0, 0
0, 2
1, 2
0, 0
1, 2
0, 0
0, 0
1, 0
0, 1
0, 1
0, 0
1, 1
1, 1
0, 1
0, 1
0, 1
1, 1
0, 1
0, 1
0, 0
1, 0
1, 0
0, 0
0, 0
0, 1
0, 0
1, 0
1, 0
0, 0
0, 0
0, 0
0, 0
0, 1
0, 0
0, 0
0, 0
0, 0
1, 0
0, 0
0, 0
0, 0
1, 0
0, 0
0, 0
0, 0
0, 0
0, 0
0, 0
1, 0
0, 0
0, 0
0, 0
0, 0
0, 0
0, 0
0, 0
0, 0
0, 0
0, 0
0, 0
0, 0
0, 0
0, 0
0, 0
0, 0
0, 0
0, 0
0, 0
0, 0
0, 0
0, 0
0, 0
0, 0
0, 0
0, 0
0, 0
0, 0
0, 0
0, 0
0, 0
0, 0
0, 0
0, 0
0, 0
0, 0
0, 0
0, 0
0, 0
0, 0
0, 0
0, 0
0, 0
0, 0
0, 0
0, 0
0, 0
0, 0
0, 0
0, 0
0, 0
0, 0
0, 0
0, 0
0, 0
0, 0
0, 0
0, 0
0, 0
0, 0
0, 0
0, 0
0, 0
0, 0
0, 0
0, 0
0, 0
0, 0
0, 0
0, 0
0, 0
0, 0
0, 0
0, 0
0, 0
0, 0
0, 0
0, 0
0, 0
0, 0
0, 0
0, 0
0, 0
0, 0
0, 0
0, 0
0, 0
0, 0
0, 0
0, 0
0, 0
0, 0
0, 0
0, 0
0, 0
0, 0
0, 0
0, 0
0, 0
0, 0
0, 0
0, 0
0, 0
0, 0
0, 0
0, 0
0, 0
0, 0
0, 0
0, 0
#ENDOFDATA     end of spectrum data

File: ps__0852shot_2411.msa
#FORMAT      : EMSA/MAS spectral data file
#VERSION     : TC202v2.0 PIXL
#TITLE       : N/A
#DATE        :       Date in the format DD-MMM-YYYY, for example 07-JUL-2010
#TIME        :             The time of day at which the spectrum was recorded, in 24-hour format
#OWNER       : PIXL Flight Model       (PIXL will use this to indicate which instrument took the data.)
#NPOINTS     : 4096     Number of data points in the spectrum (This can be zero for configuration only files)
#NCOLUMNS    : 2     Number of data columns in the spectrum (This can be zero for configuration only files)
#XUNITS      : eV
#YUNITS      : COUNTS
#DATATYPE    : YY
#XPERCHAN    : 7.862, 7.881   eV per channel (separate by commas if more than one detector)
#OFFSET      : 18.5, -22.4         eV of first channel  (separate by commas if more than one detector
#SIGNALTYPE  : XRF
#YP_TEMP     : 2.332
#LIVETIME    : 8.56789, 8.55556   seconds (separate by commas if more than one detector)
#REALTIME    : 10, 10.0   seconds (separate by commas if more than one detector)
#SPECTRUM    : start of spectrum data
0, 0
0, 0
0, 0
0, 0
0, 0
0, 0
0, 0
0, 0
0, 1
2, 2
2, 4
45, 41
69, 52
4, 2
5, 4
101, 91
414, 439
110, 121
8, 4
3, 0
1, 4
10, 2
2, 2
9, 12
33, 33
33, 47
31, 22
3, 16
6, 3
1, 0
2, 3
1, 1
3, 1
7, 14
14, 33
3, 18
2, 4
5, 7
8, 15
3, 11
7, 6
13, 9
18, 17
12, 9
4, 5
6, 5
10, 7
16, 6
14, 17
9, 34
5, 38
12, 11
28, 7
53, 38
50, 56
26, 15
36, 39
432, 626
2177, 2398
1582, 1446
208, 147
17, 20
23, 24
107, 117
367, 362
228, 222
34, 29
22, 2
25, 18
16, 7
2, 4
3, 4
4, 4
9, 3
9, 5
8, 0
7, 5
2, 3
4, 3
4, 4
3, 0
1, 8
2, 7
3, 6
8, 4
6, 5
1, 3
2, 5
2, 4
3, 4
3, 7
4, 3
3, 8
1, 11
4, 18
3, 4
0, 2
2, 4
1, 2
2, 5
2, 2
1, 4
5, 2
4, 2
2, 1
5, 0
1, 7
1, 4
2, 3
2, 2
3, 2
1, 3
1, 2
3, 4
4, 1
4, 2
6, 3
4, 2
3, 2
3, 2
3, 1
0, 0
1, 1
4, 1
0, 2
0, 2
2, 2
0, 1
1, 0
0, 3
1, 0
0, 0
0, 0
1, 0
1, 1
0, 0
1, 0
1, 2
2, 0
1, 1
3, 0
0, 0
2, 1
0, 1
0, 2
0, 0
1, 0
1, 1
0, 0
1, 0
0, 0
0, 2
0, 0
0, 0
0, 0
1, 0
0, 2
0, 1
0, 0
0, 0
0, 0
0, 0
1, 0
0, 0
0, 0
0, 0
0, 0
0, 0
0, 1
0, 0
0, 1
2, 0
1, 0
0, 1
0, 0
0, 0
0, 2
0, 0
0, 1
0, 0
0, 0
0, 1
0, 0
0, 0
0, 0
0, 0
0, 0
0, 0
0, 0
1, 0
0, 1
0, 0
0, 0
1, 0
0, 0
0, 0
0, 0
0, 0
0, 0
0, 0
0, 0
0, 0
0, 0
0, 0
0, 0
0, 0
0, 1
0, 0
0, 0
0, 0
0, 0
0, 0
0, 0
0, 0
0, 0
0, 0
0, 0
0, 0
0, 0
0, 0
0, 0
0, 0
0, 0
0, 0
0, 0
0, 0
0, 0
0, 0
0, 0
0, 0
0, 0
0, 0
0, 0
0, 0
0, 0
0, 0
0, 0
0, 0
0, 0
0, 0
0, 0
0, 0
0, 0
0, 0
0, 0
0, 0
0, 0
0, 0
0, 0
0, 0
0, 0
0, 0
0, 0
0, 0
0, 0
0, 0
0, 0
0, 0
0, 0
0, 0
0, 0
0, 0
0, 0
0, 0
0, 0
0, 0
0, 0
0, 0
0, 0
0, 0
0, 0
0, 0
0, 0
0, 0
0, 0
0, 0
0, 0
0, 0
0, 0
0, 0
0, 0
0, 0
0, 0
0, 0
0, 0
0, 0
0, 0
0, 0
0, 0
0, 0
0, 0
0, 0
0, 0
0, 0
#ENDOFDATA     end of spectrum data

File: ps__0852shot_2412.msa
#FORMAT      : EMSA/MAS spectral data file
#VERSION     : TC202v2.0 PIXL
#TITLE       : N/A
#DATE        :       Date in the format DD-MMM-YYYY, for example 07-JUL-2010
#TIME        :             The time of day at which the spectrum was recorded, in 24-hour format
#OWNER       : PIXL Flight Model       (PIXL will use this to indicate which instrument took the data.)
#NPOINTS     : 4096     Number of data points in the spectrum (This can be zero for configuration only files)
#NCOLUMNS    : 2     Number of data columns in the spectrum (This can be zero for configuration only files)
#XUNITS      : eV
#YUNITS      : COUNTS
#DATATYPE    : YY
#XPERCHAN    : 7.862, 7.881   eV per channel (separate by commas if more than one detector)
#OFFSET      : 18.5, -22.4         eV of first channel  (separate by commas if more than one detector
#SIGNALTYPE  : XRF
#YP_TEMP     : 2.46
#LIVETIME    : 8.55755, 8.54122   seconds (separate by commas if more than one detector)
#REALTIME    : 10, 10.0   seconds (separate by commas if more than one detector)
#SPECTRUM    : start of spectrum data
0, 0
0, 0
0, 0
0, 0
0, 0
0, 0
0, 0
0, 0
3, 1
0, 2
2, 2
46, 38
66, 42
7, 4
2, 2
110, 76
469, 373
110, 86
1, 6
1, 1
1, 5
17, 9
9, 3
14, 10
61, 57
63, 55
34, 30
19, 10
8, 2
6, 5
3, 5
2, 3
1, 5
9, 16
18, 34
7, 12
5, 1
7, 7
8, 2
3, 7
5, 3
15, 11
17, 10
15, 14
10, 7
6, 18
11, 16
8, 32
17, 16
37, 32
39, 18
19, 11
20, 8
42, 43
64, 65
35, 16
34, 44
519, 521
2486, 2058
1764, 1231
199, 141
25, 13
22, 22
107, 101
339, 338
234, 183
39, 35
18, 11
24, 15
12, 11
8, 7
7, 2
11, 2
10, 4
4, 5
3, 5
3, 0
8, 2
5, 3
3, 1
2, 3
3, 7
6, 5
4, 4
12, 5
4, 1
4, 3
1, 3
4, 4
3, 4
6, 3
3, 4
3, 3
3, 6
5, 2
2, 2
1, 4
3, 1
6, 5
9, 1
4, 3
2, 4
6, 2
2, 3
3, 1
2, 1
5, 2
2, 4
0, 6
3, 1
4, 2
2, 0
1, 1
1, 3
2, 4
4, 3
4, 2
3, 1
0, 3
1, 1
0, 1
1, 0
6, 1
1, 0
2, 3
1, 2
0, 2
2, 1
0, 0
2, 2
1, 0
1, 1
1, 1
0, 0
0, 1
1, 2
2, 0
3, 2
0, 1
2, 1
1, 0
0, 0
0, 0
1, 0
1, 1
0, 1
1, 0
1, 1
0, 1
0, 0
0, 0
0, 0
0, 1
0, 0
0, 1
0, 1
0, 0
1, 0
0, 0
0, 0
0, 0
0, 0
0, 0
0, 1
1, 0
1, 0
0, 0
0, 1
0, 0
0, 0
1, 1
0, 0
0, 0
0, 2
1, 0
0, 0
0, 0
0, 0
0, 0
0, 0
0, 0
0, 0
0, 0
1, 0
2, 0
0, 0
0, 0
0, 0
1, 0
0, 0
0, 1
0, 0
0, 0
0, 0
1, 0
0, 0
0, 0
0, 0
0, 0
0, 0
0, 1
0, 0
0, 0
0, 0
0, 0
0, 0
0, 0
0, 0
0, 0
0, 0
0, 0
0, 0
0, 0
0, 0
0, 0
0, 0
0, 0
0, 0
0, 0
0, 0
0, 0
0, 0
0, 0
0, 0
0, 0
0, 0
0, 0
0, 0
0, 0
0, 0
0, 0
0, 0
0, 0
0, 0
0, 0
0, 0
0, 0
0, 0
0, 0
0, 0
0, 0
0, 0
0, 0
0, 0
0, 0
0, 0
0, 0
0, 0
0, 0
0, 0
0, 0
0, 0
0, 0
0, 0
0, 0
0, 0
0, 0
0, 0
0, 0
0, 0
0, 0
0, 0
0, 0
0, 0
0, 0
0, 0
0, 0
0, 0
0, 0
0, 0
0, 0
0, 0
0, 0
0, 0
0, 0
0, 0
0, 0
0, 0
0, 0
0, 0
0, 0
0, 0
0, 0
0, 0
0, 0
0, 0
0, 0
0, 0
0, 0
0, 0
0, 0
0, 0
0, 0
0, 0
#ENDOFDATA     end of spectrum data

File: ps__0852shot_2413.msa
#FORMAT      : EMSA/MAS spectral data file
#VERSION     : TC202v2.0 PIXL
#TITLE       : N/A
#DATE        :       Date in the format DD-MMM-YYYY, for example 07-JUL-2010
#TIME        :             The time of day at which the spectrum was recorded, in 24-hour format
#OWNER       : PIXL Flight Model       (PIXL will use this to indicate which instrument took the data.)
#NPOINTS     : 4096     Number of data points in the spectrum (This can be zero for configuration only files)
#NCOLUMNS    : 2     Number of data columns in the spectrum (This can be zero for configuration only files)
#XUNITS      : eV
#YUNITS      : COUNTS
#DATATYPE    : YY
#XPERCHAN    : 7.862, 7.881   eV per channel (separate by commas if more than one detector)
#OFFSET      : 18.5, -22.4         eV of first channel  (separate by commas if more than one detector
#SIGNALTYPE  : XRF
#YP_TEMP     : 2.267
#LIVETIME    : 8.53558, 8.52578   seconds (separate by commas if more than one detector)
#REALTIME    : 10, 10.0   seconds (separate by commas if more than one detector)
#SPECTRUM    : start of spectrum data
0, 0
0, 0
0, 0
0, 0
0, 0
0, 0
0, 0
1, 0
1, 2
0, 0
9, 3
29, 41
70, 54
6, 6
5, 6
109, 78
504, 348
117, 85
13, 7
6, 1
5, 5
10, 7
7, 4
10, 11
54, 53
47, 48
20, 20
15, 26
4, 2
4, 0
2, 3
3, 0
5, 1
18, 10
34, 20
6, 5
0, 4
3, 11
4, 3
1, 3
3, 3
7, 11
17, 15
13, 14
3, 8
7, 9
3, 26
6, 34
18, 13
26, 8
43, 11
12, 15
12, 7
35, 43
69, 47
40, 11
38, 31
520, 558
2335, 2179
1712, 1294
213, 134
13, 17
20, 35
73, 89
388, 318
235, 192
39, 33
13, 10
16, 13
11, 12
11, 3
7, 5
9, 3
5, 7
7, 5
5, 4
7, 9
5, 7
5, 11
16, 1
13, 3
8, 1
6, 2
5, 7
4, 1
4, 2
4, 13
5, 23
4, 13
12, 6
7, 0
7, 1
5, 1
3, 4
5, 3
0, 4
1, 0
3, 3
5, 2
2, 1
6, 1
1, 3
2, 3
4, 2
0, 0
0, 3
2, 0
2, 1
4, 3
6, 3
0, 4
0, 1
3, 0
2, 0
2, 1
4, 5
4, 2
5, 2
2, 2
2, 0
1, 3
2, 2
0, 0
1, 2
2, 1
0, 0
1, 2
1, 1
3, 0
1, 0
1, 2
0, 2
2, 0
1, 1
1, 0
3, 2
2, 1
0, 0
0, 1
0, 1
0, 1
1, 0
0, 0
0, 0
1, 0
0, 0
0, 0
0, 0
1, 0
0, 1
0, 2
0, 0
0, 0
1, 1
0, 0
0, 0
0, 0
2, 1
0, 1
0, 1
0, 0
1, 0
0, 0
0, 0
0, 1
1, 1
0, 1
0, 0
0, 0
0, 0
0, 0
0, 1
0, 0
0, 0
1, 0
0, 0
0, 0
1, 0
0, 0
1, 0
0, 0
0, 1
0, 0
0, 0
1, 0
0, 0
0, 1
0, 0
0, 0
0, 0
0, 0
0, 0
0, 0
0, 1
0, 0
0, 0
0, 0
0, 0
0, 0
0, 0
0, 0
0, 0
0, 0
0, 0
0, 0
0, 0
0, 0
0, 0
0, 0
0, 0
0, 0
0, 0
0, 0
0, 0
0, 0
0, 0
0, 0
0, 0
0, 0
0, 0
0, 0
0, 0
0, 0
0, 0
0, 0
0, 0
0, 0
0, 0
0, 0
0, 0
0, 0
0, 0
0, 0
0, 0
0, 0
1, 0
0, 0
0, 0
0, 0
0, 1
0, 0
0, 0
0, 0
0, 0
0, 0
0, 0
0, 0
0, 0
0, 0
0, 0
0, 0
0, 0
0, 0
0, 0
0, 0
0, 0
0, 0
0, 0
0, 0
0, 0
0, 0
0, 0
0, 0
0, 0
0, 0
0, 0
0, 0
0, 0
0, 0
0, 0
0, 0
0, 0
0, 0
0, 0
0, 0
0, 0
0, 0
0, 0
0, 0
0, 0
0, 0
0, 0
0, 0
0, 0
0, 0
0, 0
0, 0
0, 0
0, 0
0, 0
0, 0
0, 0
0, 0
0, 0
#ENDOFDATA     end of spectrum data

File: ps__0852shot_2414.msa
#FORMAT      : EMSA/MAS spectral data file
#VERSION     : TC202v2.0 PIXL
#TITLE       : N/A
#DATE        :       Date in the format DD-MMM-YYYY, for example 07-JUL-2010
#TIME        :             The time of day at which the spectrum was recorded, in 24-hour format
#OWNER       : PIXL Flight Model       (PIXL will use this to indicate which instrument took the data.)
#NPOINTS     : 4096     Number of data points in the spectrum (This can be zero for configuration only files)
#NCOLUMNS    : 2     Number of data columns in the spectrum (This can be zero for configuration only files)
#XUNITS      : eV
#YUNITS      : COUNTS
#DATATYPE    : YY
#XPERCHAN    : 7.862, 7.881   eV per channel (separate by commas if more than one detector)
#OFFSET      : 18.5, -22.4         eV of first channel  (separate by commas if more than one detector
#SIGNALTYPE  : XRF
#YP_TEMP     : 2.492
#LIVETIME    : 8.56529, 8.54039   seconds (separate by commas if more than one detector)
#REALTIME    : 10, 10.0   seconds (separate by commas if more than one detector)
#SPECTRUM    : start of spectrum data
0, 0
0, 0
0, 0
0, 0
0, 0
0, 0
0, 0
1, 0
1, 3
3, 1
1, 2
50, 33
63, 55
7, 3
7, 4
110, 98
510, 386
118, 80
10, 3
3, 2
1, 4
8, 10
3, 2
4, 6
30, 22
44, 26
24, 20
13, 10
8, 3
0, 3
5, 3
2, 2
3, 2
13, 6
13, 11
7, 2
8, 6
6, 7
9, 5
26, 3
39, 2
11, 4
15, 14
7, 9
5, 14
2, 9
8, 7
6, 9
9, 8
11, 8
20, 7
29, 5
43, 11
95, 41
83, 51
13, 15
31, 34
462, 510
2312, 2115
1649, 1257
206, 130
18, 73
18, 81
108, 127
364, 323
243, 186
43, 16
10, 6
12, 14
14, 11
7, 1
5, 3
8, 5
3, 4
0, 8
9, 4
8, 3
4, 18
6, 11
8, 5
6, 14
3, 7
5, 8
4, 0
1, 1
6, 6
1, 12
2, 7
6, 5
6, 4
5, 9
6, 1
5, 4
2, 11
2, 4
2, 3
3, 5
2, 2
3, 2
1, 3
3, 3
4, 0
2, 1
2, 1
1, 2
2, 2
1, 4
3, 5
3, 4
3, 4
0, 2
3, 3
1, 2
0, 0
2, 0
5, 4
5, 3
1, 6
1, 2
2, 4
1, 0
0, 1
0, 3
2, 3
1, 1
0, 0
0, 0
3, 1
0, 0
3, 2
1, 4
4, 0
0, 2
2, 1
0, 0
0, 0
0, 1
1, 1
3, 0
4, 1
1, 2
0, 2
0, 0
0, 0
0, 0
1, 0
1, 0
1, 0
0, 1
0, 1
0, 0
0, 0
1, 0
1, 0
0, 0
0, 0
0, 0
0, 0
1, 0
0, 1
1, 0
1, 1
1, 0
1, 0
1, 1
0, 0
1, 0
0, 0
0, 0
1, 1
1, 0
0, 1
0, 0
0, 0
1, 0
0, 0
0, 0
1, 0
0, 0
0, 0
0, 0
1, 0
0, 0
1, 0
0, 0
0, 0
0, 0
0, 0
0, 0
0, 0
1, 0
0, 0
0, 1
0, 0
0, 0
0, 0
0, 0
0, 0
0, 0
0, 0
0, 0
0, 0
0, 1
0, 0
0, 0
0, 0
0, 0
0, 0
0, 0
0, 0
0, 0
0, 0
0, 0
0, 0
0, 0
0, 0
0, 0
0, 0
0, 0
0, 0
0, 0
0, 1
0, 0
0, 0
0, 0
0, 0
0, 0
0, 0
0, 0
0, 0
0, 0
0, 0
0, 0
0, 0
0, 0
0, 0
0, 0
0, 0
0, 0
0, 0
0, 0
0, 0
0, 0
0, 0
0, 0
0, 0
0, 0
0, 0
0, 0
0, 0
0, 0
0, 0
0, 0
0, 0
0, 0
0, 0
0, 0
0, 0
0, 0
0, 0
0, 0
0, 0
0, 0
0, 0
0, 0
0, 0
0, 0
0, 0
0, 0
0, 0
0, 0
0, 0
0, 0
0, 0
0, 0
0, 0
0, 0
0, 0
0, 0
0, 0
0, 0
0, 0
0, 0
0, 0
0, 0
0, 0
0, 0
0, 0
0, 0
0, 0
0, 0
0, 0
0, 0
0, 0
#ENDOFDATA     end of spectrum data

File: ps__0852shot_2415.msa
#FORMAT      : EMSA/MAS spectral data file
#VERSION     : TC202v2.0 PIXL
#TITLE       : N/A
#DATE        :       Date in the format DD-MMM-YYYY, for example 07-JUL-2010
#TIME        :             The time of day at which the spectrum was recorded, in 24-hour format
#OWNER       : PIXL Flight Model       (PIXL will use this to indicate which instrument took the data.)
#NPOINTS     : 4096     Number of data points in the spectrum (This can be zero for configuration only files)
#NCOLUMNS    : 2     Number of data columns in the spectrum (This can be zero for configuration only files)
#XUNITS      : eV
#YUNITS      : COUNTS
#DATATYPE    : YY
#XPERCHAN    : 7.862, 7.881   eV per channel (separate by commas if more than one detector)
#OFFSET      : 18.5, -22.4         eV of first channel  (separate by commas if more than one detector
#SIGNALTYPE  : XRF
#YP_TEMP     : 2.556
#LIVETIME    : 8.56563, 8.53347   seconds (separate by commas if more than one detector)
#REALTIME    : 10, 10.0   seconds (separate by commas if more than one detector)
#SPECTRUM    : start of spectrum data
0, 0
0, 0
0, 0
0, 0
0, 0
0, 0
0, 0
0, 0
0, 1
0, 2
6, 0
36, 52
73, 44
4, 7
3, 6
98, 92
461, 432
114, 102
2, 4
1, 1
1, 3
3, 2
3, 1
5, 6
24, 24
36, 27
27, 18
25, 5
5, 3
2, 0
2, 4
1, 2
0, 2
11, 11
12, 16
5, 2
4, 4
7, 2
6, 4
29, 5
63, 2
15, 11
11, 20
15, 9
2, 7
10, 8
4, 14
10, 12
3, 12
11, 9
15, 8
40, 10
65, 6
128, 36
97, 55
18, 18
30, 45
486, 573
2217, 2224
1597, 1274
202, 134
11, 44
17, 45
113, 144
340, 361
210, 163
34, 33
7, 11
15, 15
7, 7
7, 4
5, 5
2, 1
3, 2
9, 2
11, 4
8, 5
11, 17
13, 17
6, 9
6, 13
3, 11
0, 12
2, 1
2, 4
1, 5
3, 1
5, 5
3, 3
1, 4
4, 9
3, 6
5, 13
9, 14
3, 14
4, 2
3, 2
3, 2
3, 2
2, 5
2, 2
2, 2
7, 1
5, 3
2, 1
2, 0
3, 2
1, 5
0, 4
3, 4
2, 2
1, 1
1, 3
3, 0
2, 2
3, 4
3, 1
3, 3
4, 1
2, 1
5, 1
1, 2
0, 3
2, 2
2, 2
3, 2
0, 2
1, 0
1, 0
1, 0
0, 0
0, 0
0, 1
2, 0
0, 2
0, 1
0, 1
1, 2
1, 0
0, 1
1, 1
2, 0
1, 1
0, 2
0, 2
0, 0
0, 0
0, 0
1, 1
0, 2
0, 1
1, 0
1, 0
1, 1
1, 0
0, 0
1, 0
0, 0
2, 0
0, 1
1, 0
1, 1
0, 0
1, 0
1, 1
1, 1
0, 0
0, 0
0, 0
0, 1
1, 0
0, 0
1, 1
0, 0
0, 0
0, 0
0, 0
0, 0
0, 0
1, 0
0, 0
0, 0
1, 0
0, 0
1, 0
0, 0
0, 0
0, 0
1, 0
0, 0
0, 0
0, 0
0, 0
0, 0
1, 0
0, 0
0, 0
1, 0
0, 0
0, 0
0, 0
0, 0
0, 1
0, 0
0, 0
0, 0
0, 0
0, 0
0, 0
0, 0
0, 0
0, 0
1, 0
0, 0
0, 0
0, 0
0, 0
0, 0
0, 0
0, 0
0, 0
0, 0
0, 0
0, 0
0, 0
0, 0
0, 0
0, 0
0, 0
0, 0
0, 0
0, 0
0, 0
0, 0
0, 0
0, 0
0, 0
0, 0
0, 0
0, 0
0, 0
0, 0
0, 0
0, 0
0, 0
0, 0
0, 0
0, 0
0, 0
0, 0
0, 0
0, 0
0, 0
0, 0
0, 0
0, 0
0, 0
0, 0
0, 0
0, 0
0, 0
0, 0
0, 0
0, 0
0, 0
0, 0
0, 0
0, 0
0, 0
0, 0
0, 0
0, 0
0, 0
0, 0
0, 0
0, 0
0, 0
0, 0
0, 0
0, 0
0, 0
0, 0
0, 0
0, 0
0, 0
0, 0
0, 0
0, 0
0, 0
0, 0
0, 0
0, 0
0, 0
0, 0
#ENDOFDATA     end of spectrum data

File: ps__0852shot_2416.msa
#FORMAT      : EMSA/MAS spectral data file
#VERSION     : TC202v2.0 PIXL
#TITLE       : N/A
#DATE        :       Date in the format DD-MMM-YYYY, for example 07-JUL-2010
#TIME        :             The time of day at which the spectrum was recorded, in 24-hour format
#OWNER       : PIXL Flight Model       (PIXL will use this to indicate which instrument took the data.)
#NPOINTS     : 4096     Number of data points in the spectrum (This can be zero for configuration only files)
#NCOLUMNS    : 2     Number of data columns in the spectrum (This can be zero for configuration only files)
#XUNITS      : eV
#YUNITS      : COUNTS
#DATATYPE    : YY
#XPERCHAN    : 7.862, 7.881   eV per channel (separate by commas if more than one detector)
#OFFSET      : 18.5, -22.4         eV of first channel  (separate by commas if more than one detector
#SIGNALTYPE  : XRF
#YP_TEMP     : 2.332
#LIVETIME    : 8.57166, 8.54258   seconds (separate by commas if more than one detector)
#REALTIME    : 10, 10.0   seconds (separate by commas if more than one detector)
#SPECTRUM    : start of spectrum data
0, 0
0, 0
0, 0
0, 0
0, 0
0, 0
0, 0
0, 0
1, 1
1, 0
0, 1
52, 50
68, 54
8, 7
6, 5
98, 87
476, 431
103, 102
6, 7
3, 2
1, 1
1, 3
3, 1
3, 3
28, 15
26, 17
21, 20
12, 16
5, 3
2, 3
3, 4
2, 2
0, 1
12, 11
14, 15
4, 3
4, 3
10, 1
8, 2
24, 1
28, 3
15, 9
10, 15
6, 14
3, 6
2, 7
4, 25
3, 30
5, 14
9, 37
17, 34
30, 12
48, 14
93, 41
76, 54
30, 18
20, 28
489, 591
2217, 2392
1534, 1365
173, 140
16, 16
17, 38
104, 124
325, 329
223, 178
27, 24
7, 9
19, 15
7, 12
8, 3
2, 3
4, 1
6, 2
2, 6
6, 5
1, 8
6, 16
5, 15
8, 9
9, 12
2, 5
2, 8
5, 2
1, 1
1, 1
4, 1
2, 3
3, 4
7, 7
19, 5
23, 3
7, 14
8, 13
3, 6
3, 2
4, 5
1, 3
2, 2
4, 1
4, 2
1, 1
4, 1
3, 2
0, 3
5, 2
1, 2
3, 2
1, 1
3, 2
4, 2
2, 2
4, 1
1, 1
0, 1
3, 0
4, 1
6, 1
4, 2
0, 1
1, 1
4, 0
2, 2
0, 2
1, 1
1, 0
1, 1
0, 0
0, 3
4, 0
2, 0
1, 0
0, 1
0, 3
1, 0
1, 0
1, 1
1, 2
1, 0
1, 1
1, 0
0, 0
1, 0
1, 0
1, 1
1, 2
1, 1
0, 0
0, 0
0, 2
1, 1
0, 0
1, 1
1, 0
0, 0
0, 0
0, 0
0, 0
0, 0
1, 1
0, 0
0, 0
0, 1
0, 0
0, 0
1, 1
1, 0
0, 1
0, 0
0, 0
0, 1
0, 0
0, 0
1, 0
0, 1
1, 2
0, 0
0, 0
0, 0
0, 0
0, 0
0, 0
0, 0
0, 0
1, 0
0, 0
0, 0
0, 0
0, 0
0, 0
0, 0
0, 0
0, 0
0, 0
0, 1
0, 0
0, 0
0, 0
0, 0
0, 0
0, 0
0, 1
0, 0
0, 0
0, 0
0, 0
0, 0
0, 0
0, 0
0, 0
0, 0
0, 0
0, 0
0, 0
0, 0
0, 0
0, 0
0, 0
0, 0
0, 0
0, 0
0, 0
0, 0
0, 0
0, 0
0, 0
0, 0
0, 0
0, 0
0, 0
0, 0
0, 0
0, 0
0, 0
0, 0
0, 0
0, 0
0, 0
1, 0
0, 0
0, 0
0, 0
0, 0
0, 0
0, 0
0, 0
0, 0
0, 0
0, 0
0, 0
0, 0
0, 0
0, 0
0, 0
0, 0
0, 0
0, 0
0, 0
0, 0
0, 0
0, 0
0, 0
0, 0
0, 0
0, 0
0, 0
0, 0
0, 0
0, 0
0, 0
0, 0
0, 0
0, 0
0, 0
0, 0
0, 0
0, 0
0, 0
0, 0
0, 0
0, 0
0, 0
0, 0
0, 0
0, 0
0, 0
0, 0
0, 0
0, 0
0, 0
0, 0
0, 0
0, 0
0, 0
#ENDOFDATA     end of spectrum data

File: ps__0852shot_2417.msa
#FORMAT      : EMSA/MAS spectral data file
#VERSION     : TC202v2.0 PIXL
#TITLE       : N/A
#DATE        :       Date in the format DD-MMM-YYYY, for example 07-JUL-2010
#TIME        :             The time of day at which the spectrum was recorded, in 24-hour format
#OWNER       : PIXL Flight Model       (PIXL will use this to indicate which instrument took the data.)
#NPOINTS     : 4096     Number of data points in the spectrum (This can be zero for configuration only files)
#NCOLUMNS    : 2     Number of data columns in the spectrum (This can be zero for configuration only files)
#XUNITS      : eV
#YUNITS      : COUNTS
#DATATYPE    : YY
#XPERCHAN    : 7.862, 7.881   eV per channel (separate by commas if more than one detector)
#OFFSET      : 18.5, -22.4         eV of first channel  (separate by commas if more than one detector
#SIGNALTYPE  : XRF
#YP_TEMP     : 2.524
#LIVETIME    : 8.56191, 8.54151   seconds (separate by commas if more than one detector)
#REALTIME    : 10, 10.0   seconds (separate by commas if more than one detector)
#SPECTRUM    : start of spectrum data
0, 0
0, 0
0, 0
0, 0
0, 0
0, 0
0, 0
0, 0
1, 0
2, 1
3, 1
54, 41
60, 60
3, 5
4, 5
105, 103
472, 414
117, 92
4, 3
2, 1
3, 1
2, 3
3, 3
5, 2
30, 18
51, 21
21, 20
13, 11
5, 5
4, 3
2, 3
0, 1
0, 6
12, 18
19, 16
4, 2
4, 3
11, 3
3, 3
28, 3
44, 3
17, 6
13, 16
10, 11
8, 3
4, 11
4, 21
1, 27
6, 16
10, 37
12, 48
21, 21
40, 11
71, 38
63, 46
27, 15
35, 29
491, 555
2186, 2164
1665, 1363
216, 151
14, 22
19, 47
100, 123
343, 366
252, 170
37, 28
11, 7
11, 13
6, 4
6, 3
3, 4
5, 3
3, 7
5, 5
8, 7
5, 4
6, 7
9, 8
5, 7
4, 11
3, 6
2, 9
3, 2
0, 4
2, 3
4, 2
2, 3
1, 5
15, 6
19, 3
22, 4
13, 7
5, 12
2, 7
2, 2
1, 3
3, 1
2, 1
3, 3
4, 3
2, 1
3, 3
2, 2
2, 0
3, 1
5, 1
3, 1
3, 3
1, 2
2, 0
2, 0
2, 2
4, 1
1, 1
4, 1
4, 4
4, 3
6, 2
3, 1
0, 3
1, 1
3, 2
0, 0
1, 2
1, 2
1, 1
0, 0
0, 2
0, 1
0, 1
0, 0
2, 2
0, 2
0, 1
0, 0
0, 1
0, 0
0, 0
2, 0
1, 1
0, 1
0, 0
1, 2
2, 1
2, 1
0, 1
0, 0
0, 0
0, 1
0, 0
1, 0
1, 0
0, 0
1, 1
2, 0
1, 0
0, 0
0, 0
0, 2
0, 0
0, 0
1, 0
1, 0
1, 0
1, 0
0, 0
0, 0
1, 0
0, 0
0, 1
2, 1
1, 0
0, 0
0, 0
0, 1
0, 0
0, 0
0, 0
0, 0
0, 0
0, 0
1, 1
0, 0
0, 0
0, 0
1, 0
1, 0
0, 0
0, 0
2, 0
0, 0
0, 1
0, 0
0, 0
0, 0
0, 0
0, 0
0, 0
0, 0
0, 0
0, 0
0, 0
0, 0
0, 0
0, 0
0, 0
0, 0
0, 0
0, 0
0, 0
0, 0
0, 0
0, 0
0, 0
0, 0
0, 0
0, 0
0, 0
0, 0
0, 0
0, 0
0, 0
0, 0
0, 0
0, 0
0, 0
0, 0
0, 0
0, 0
0, 0
0, 0
0, 0
0, 0
0, 0
0, 0
0, 0
0, 0
0, 0
0, 0
0, 0
0, 0
0, 0
0, 0
0, 0
0, 0
0, 0
0, 0
0, 0
0, 0
0, 0
0, 0
0, 0
0, 0
0, 0
0, 0
0, 0
0, 0
0, 0
0, 0
0, 0
0, 0
0, 0
0, 0
0, 0
0, 0
0, 0
0, 0
0, 0
0, 0
0, 0
0, 0
0, 0
0, 0
0, 0
0, 0
0, 0
0, 0
0, 0
0, 0
0, 0
0, 0
0, 0
0, 0
0, 0
0, 0
0, 0
0, 0
0, 0
0, 0
0, 0
0, 0
0, 0
0, 0
#ENDOFDATA     end of spectrum data

File: ps__0852shot_2418.msa
#FORMAT      : EMSA/MAS spectral data file
#VERSION     : TC202v2.0 PIXL
#TITLE       : N/A
#DATE        :       Date in the format DD-MMM-YYYY, for example 07-JUL-2010
#TIME        :             The time of day at which the spectrum was recorded, in 24-hour format
#OWNER       : PIXL Flight Model       (PIXL will use this to indicate which instrument took the data.)
#NPOINTS     : 4096     Number of data points in the spectrum (This can be zero for configuration only files)
#NCOLUMNS    : 2     Number of data columns in the spectrum (This can be zero for configuration only files)
#XUNITS      : eV
#YUNITS      : COUNTS
#DATATYPE    : YY
#XPERCHAN    : 7.862, 7.881   eV per channel (separate by commas if more than one detector)
#OFFSET      : 18.5, -22.4         eV of first channel  (separate by commas if more than one detector
#SIGNALTYPE  : XRF
#YP_TEMP     : 2.428
#LIVETIME    : 8.58189, 8.57189   seconds (separate by commas if more than one detector)
#REALTIME    : 10, 10.0   seconds (separate by commas if more than one detector)
#SPECTRUM    : start of spectrum data
0, 0
0, 0
0, 0
0, 0
0, 0
0, 0
0, 1
0, 2
0, 0
3, 0
1, 3
52, 48
60, 84
7, 3
5, 2
110, 88
452, 421
112, 100
4, 2
1, 2
0, 1
0, 2
3, 0
5, 3
25, 20
33, 18
26, 12
23, 9
9, 3
0, 2
2, 0
1, 1
0, 3
9, 15
17, 12
3, 3
8, 4
7, 3
9, 4
55, 1
105, 8
20, 7
10, 19
7, 9
3, 4
3, 8
4, 6
5, 15
6, 10
24, 26
21, 21
41, 9
77, 9
157, 37
111, 65
25, 17
28, 45
446, 593
2183, 2327
1502, 1426
188, 158
16, 32
17, 32
101, 124
341, 384
246, 200
26, 16
11, 8
6, 16
8, 7
2, 3
2, 5
1, 2
3, 3
3, 4
6, 9
10, 11
6, 17
12, 22
9, 8
15, 11
3, 26
3, 7
1, 4
3, 2
7, 2
1, 3
3, 3
2, 0
0, 5
3, 3
7, 5
1, 10
7, 18
3, 10
2, 5
3, 5
1, 1
2, 6
1, 2
5, 3
2, 0
3, 3
2, 1
3, 4
4, 1
3, 2
5, 1
6, 2
1, 2
1, 3
5, 2
1, 5
0, 5
2, 1
7, 1
5, 6
5, 3
2, 2
3, 1
2, 3
2, 4
3, 3
0, 1
0, 1
1, 1
0, 1
0, 1
2, 0
1, 0
0, 3
0, 0
1, 0
1, 0
0, 1
0, 0
1, 0
0, 1
0, 1
0, 1
1, 1
2, 0
0, 0
1, 1
0, 3
1, 1
0, 0
0, 0
0, 0
0, 0
0, 1
0, 2
1, 0
0, 0
2, 2
0, 0
2, 2
0, 0
0, 0
0, 1
0, 0
0, 0
0, 0
1, 0
0, 0
0, 0
0, 1
0, 0
0, 0
0, 0
1, 2
0, 0
0, 2
0, 0
0, 0
0, 0
0, 0
1, 1
0, 0
0, 0
0, 0
0, 0
0, 0
1, 0
0, 0
0, 0
0, 0
0, 1
0, 0
0, 0
0, 0
0, 0
0, 0
0, 0
0, 0
0, 0
0, 0
0, 0
0, 0
0, 0
0, 0
1, 0
0, 0
0, 0
0, 0
0, 0
0, 0
0, 0
0, 0
0, 0
0, 0
0, 0
0, 0
0, 0
0, 0
0, 0
0, 0
0, 0
0, 0
0, 0
0, 0
0, 0
0, 0
0, 0
0, 0
0, 0
0, 0
0, 0
0, 0
0, 0
0, 0
0, 0
0, 0
0, 0
0, 0
0, 0
0, 0
0, 0
0, 0
0, 0
0, 0
0, 0
0, 0
0, 0
0, 0
0, 0
0, 0
0, 0
0, 0
0, 0
0, 0
0, 0
0, 0
0, 0
0, 0
0, 0
0, 0
0, 0
0, 0
0, 0
0, 0
0, 0
0, 0
0, 0
0, 0
0, 0
0, 0
0, 0
0, 0
0, 0
0, 0
0, 0
0, 0
0, 0
0, 0
0, 0
0, 0
0, 0
0, 0
0, 0
0, 0
0, 0
0, 0
0, 0
0, 0
0, 0
0, 0
0, 0
0, 0
0, 0
0, 0
0, 0
0, 0
0, 0
#ENDOFDATA     end of spectrum data