Folder: data-repository/host_upload/06-09-2024/ps_0852/dump3 (part 6)

File: ps__0852shot_2045.msa
#FORMAT      : EMSA/MAS spectral data file
#VERSION     : TC202v2.0 PIXL
#TITLE       : N/A
#DATE        :       Date in the format DD-MMM-YYYY, for example 07-JUL-2010
#TIME        :             The time of day at which the spectrum was recorded, in 24-hour format
#OWNER       : PIXL Flight Model       (PIXL will use this to indicate which instrument took the data.)
#NPOINTS     : 4096     Number of data points in the spectrum (This can be zero for configuration only files)
#NCOLUMNS    : 2     Number of data columns in the spectrum (This can be zero for configuration only files)
#XUNITS      : eV
#YUNITS      : COUNTS
#DATATYPE    : YY
#XPERCHAN    : 7.862, 7.881   eV per channel (separate by commas if more than one detector)
#OFFSET      : 18.5, -22.4         eV of first channel  (separate by commas if more than one detector
#SIGNALTYPE  : XRF
#YP_TEMP     : 2.46
#LIVETIME    : 8.56281, 8.56666   seconds (separate by commas if more than one detector)
#REALTIME    : 10, 10.0   seconds (separate by commas if more than one detector)
#SPECTRUM    : start of spectrum data
0, 0
0, 0
0, 0
0, 0
0, 0
0, 0
0, 0
0, 0
1, 0
1, 0
1, 3
69, 49
74, 69
4, 9
2, 5
91, 85
427, 369
112, 84
7, 8
0, 1
2, 1
5, 7
2, 17
9, 14
17, 16
25, 34
28, 13
23, 7
5, 3
3, 6
2, 4
5, 1
3, 4
17, 16
20, 14
4, 8
2, 22
4, 25
11, 6
14, 2
18, 4
8, 11
15, 18
14, 8
8, 27
5, 27
8, 9
8, 7
33, 7
89, 19
45, 8
12, 4
12, 19
39, 55
56, 57
23, 9
29, 33
437, 556
2237, 2294
1686, 1306
228, 150
19, 19
17, 26
82, 131
348, 336
233, 211
40, 111
12, 75
11, 27
13, 7
10, 5
8, 7
5, 4
4, 7
10, 12
6, 18
6, 5
13, 6
11, 7
5, 4
4, 3
3, 8
1, 2
6, 2
4, 3
6, 6
6, 6
10, 7
2, 8
3, 2
1, 3
4, 3
1, 3
1, 6
4, 5
5, 7
5, 2
7, 2
6, 2
2, 4
3, 5
3, 5
1, 5
1, 3
5, 8
4, 2
7, 2
2, 2
2, 2
1, 1
1, 1
2, 0
3, 1
3, 4
1, 1
4, 4
5, 1
3, 2
3, 0
4, 1
0, 1
0, 3
5, 2
2, 1
0, 3
0, 0
3, 1
1, 0
0, 3
0, 0
1, 2
3, 1
0, 0
1, 1
1, 1
0, 2
2, 0
1, 0
0, 1
0, 3
0, 1
0, 1
0, 1
1, 0
1, 0
1, 0
2, 0
1, 1
0, 0
1, 1
0, 1
1, 0
0, 0
0, 0
1, 0
1, 0
0, 0
0, 0
0, 0
0, 0
2, 0
0, 1
0, 0
0, 1
0, 0
0, 0
0, 1
1, 0
0, 0
0, 1
0, 1
0, 0
0, 0
1, 0
0, 0
0, 0
0, 0
0, 0
0, 0
0, 0
0, 0
0, 0
2, 0
0, 0
0, 1
0, 0
1, 1
0, 0
0, 0
0, 0
0, 0
0, 0
0, 0
0, 0
0, 0
0, 0
0, 0
0, 0
0, 0
0, 0
0, 1
0, 0
0, 0
0, 0
0, 0
0, 0
0, 0
0, 0
0, 0
0, 0
0, 0
0, 0
0, 0
0, 0
0, 0
0, 0
0, 0
0, 0
0, 0
0, 0
0, 0
0, 0
0, 0
0, 0
0, 0
0, 0
0, 0
0, 0
0, 0
0, 0
0, 0
0, 0
0, 0
0, 0
0, 0
0, 0
0, 0
0, 0
0, 0
0, 0
0, 0
0, 0
0, 0
0, 0
0, 0
0, 0
0, 0
0, 0
0, 0
0, 0
0, 0
0, 0
0, 0
0, 0
0, 0
0, 0
0, 0
0, 0
0, 0
0, 0
0, 0
0, 0
0, 0
0, 0
0, 0
0, 0
0, 0
0, 0
0, 0
0, 0
0, 0
0, 0
0, 0
0, 0
0, 0
0, 0
0, 0
0, 0
0, 0
0, 0
0, 0
0, 0
0, 0
0, 0
0, 0
0, 0
0, 0
0, 0
0, 0
0, 0
0, 0
0, 0
0, 0
0, 0
#ENDOFDATA     end of spectrum data

File: ps__0852shot_2046.msa
#FORMAT      : EMSA/MAS spectral data file
#VERSION     : TC202v2.0 PIXL
#TITLE       : N/A
#DATE        :       Date in the format DD-MMM-YYYY, for example 07-JUL-2010
#TIME        :             The time of day at which the spectrum was recorded, in 24-hour format
#OWNER       : PIXL Flight Model       (PIXL will use this to indicate which instrument took the data.)
#NPOINTS     : 4096     Number of data points in the spectrum (This can be zero for configuration only files)
#NCOLUMNS    : 2     Number of data columns in the spectrum (This can be zero for configuration only files)
#XUNITS      : eV
#YUNITS      : COUNTS
#DATATYPE    : YY
#XPERCHAN    : 7.862, 7.881   eV per channel (separate by commas if more than one detector)
#OFFSET      : 18.5, -22.4         eV of first channel  (separate by commas if more than one detector
#SIGNALTYPE  : XRF
#YP_TEMP     : 2.46
#LIVETIME    : 8.5615, 8.5369   seconds (separate by commas if more than one detector)
#REALTIME    : 10, 10.0   seconds (separate by commas if more than one detector)
#SPECTRUM    : start of spectrum data
0, 0
0, 0
0, 0
0, 0
0, 0
0, 0
0, 0
0, 0
0, 0
0, 4
1, 1
52, 51
78, 47
8, 7
5, 6
94, 100
428, 452
99, 101
4, 5
0, 1
1, 2
3, 5
1, 20
9, 16
45, 25
50, 31
24, 42
14, 27
2, 3
4, 2
0, 1
4, 3
2, 3
10, 17
12, 14
4, 3
11, 14
1, 24
6, 7
1, 1
4, 3
13, 11
23, 16
15, 20
6, 30
5, 29
4, 8
9, 6
30, 12
79, 13
49, 15
9, 11
11, 19
40, 44
62, 65
20, 23
31, 42
496, 668
2198, 2389
1627, 1504
215, 156
13, 20
23, 26
95, 117
306, 366
203, 248
44, 110
11, 81
17, 31
5, 7
5, 4
4, 3
6, 5
8, 4
5, 5
3, 9
6, 7
8, 4
5, 4
4, 10
1, 9
4, 7
2, 3
6, 6
2, 3
3, 1
4, 4
6, 7
7, 7
3, 9
2, 5
0, 3
1, 1
5, 2
3, 5
2, 2
4, 3
4, 2
3, 4
2, 2
3, 4
2, 6
6, 2
2, 4
1, 4
4, 4
5, 0
5, 3
1, 1
6, 1
1, 0
1, 4
3, 2
3, 2
1, 3
7, 3
6, 5
3, 3
5, 1
0, 2
0, 0
2, 2
3, 2
2, 1
0, 3
2, 0
1, 2
1, 4
1, 0
1, 1
1, 1
1, 0
0, 0
0, 1
1, 1
1, 0
2, 0
0, 0
0, 1
1, 0
0, 3
1, 0
0, 1
0, 1
1, 0
1, 0
0, 1
0, 3
0, 0
0, 0
0, 0
0, 1
0, 0
0, 2
1, 0
1, 1
0, 2
0, 0
0, 0
0, 0
1, 1
0, 1
1, 0
1, 0
0, 0
1, 0
0, 0
0, 0
0, 0
0, 0
0, 0
1, 0
0, 0
0, 0
0, 0
1, 0
0, 0
0, 0
0, 0
0, 0
0, 0
0, 0
0, 0
0, 0
2, 1
0, 0
0, 0
0, 0
0, 0
0, 0
0, 0
0, 0
0, 0
0, 0
0, 0
0, 0
0, 1
0, 0
0, 0
0, 0
0, 0
0, 0
0, 0
0, 0
0, 0
0, 0
0, 0
0, 0
0, 0
0, 0
0, 0
0, 0
0, 0
0, 0
0, 0
0, 0
0, 0
0, 0
0, 0
0, 0
0, 0
0, 0
0, 0
0, 0
0, 0
0, 0
0, 0
0, 0
0, 0
0, 0
0, 0
0, 0
0, 0
0, 0
0, 0
0, 0
0, 0
0, 0
0, 0
0, 0
0, 0
0, 0
0, 0
0, 0
0, 0
0, 0
0, 0
0, 0
0, 0
0, 0
0, 0
0, 0
0, 0
0, 0
0, 0
0, 0
0, 0
0, 0
0, 0
0, 0
0, 0
0, 0
0, 0
0, 0
0, 0
0, 0
0, 0
0, 0
0, 0
0, 0
0, 0
0, 0
0, 0
0, 0
0, 0
0, 0
0, 0
0, 0
0, 0
0, 0
0, 0
0, 0
0, 0
0, 0
0, 0
0, 0
0, 0
0, 0
0, 0
0, 0
0, 0
0, 0
0, 0
0, 0
#ENDOFDATA     end of spectrum data

File: ps__0852shot_2047.msa
#FORMAT      : EMSA/MAS spectral data file
#VERSION     : TC202v2.0 PIXL
#TITLE       : N/A
#DATE        :       Date in the format DD-MMM-YYYY, for example 07-JUL-2010
#TIME        :             The time of day at which the spectrum was recorded, in 24-hour format
#OWNER       : PIXL Flight Model       (PIXL will use this to indicate which instrument took the data.)
#NPOINTS     : 4096     Number of data points in the spectrum (This can be zero for configuration only files)
#NCOLUMNS    : 2     Number of data columns in the spectrum (This can be zero for configuration only files)
#XUNITS      : eV
#YUNITS      : COUNTS
#DATATYPE    : YY
#XPERCHAN    : 7.862, 7.881   eV per channel (separate by commas if more than one detector)
#OFFSET      : 18.5, -22.4         eV of first channel  (separate by commas if more than one detector
#SIGNALTYPE  : XRF
#YP_TEMP     : 2.171
#LIVETIME    : 8.56734, 8.56649   seconds (separate by commas if more than one detector)
#REALTIME    : 10, 10.0   seconds (separate by commas if more than one detector)
#SPECTRUM    : start of spectrum data
0, 0
0, 0
0, 0
0, 0
0, 0
0, 0
0, 0
0, 0
1, 0
1, 1
4, 0
63, 43
78, 51
6, 4
5, 4
93, 86
465, 438
143, 97
5, 2
2, 0
4, 1
3, 8
2, 30
2, 15
29, 20
30, 24
16, 21
8, 15
3, 3
2, 2
2, 1
3, 3
2, 3
10, 10
20, 10
4, 2
1, 5
3, 10
5, 4
11, 1
4, 3
11, 3
6, 9
14, 29
6, 51
3, 46
8, 6
5, 0
26, 4
82, 10
33, 10
10, 8
4, 19
34, 56
54, 53
25, 25
34, 44
501, 606
2223, 2338
1723, 1388
213, 129
20, 19
23, 17
92, 117
336, 327
254, 216
37, 172
10, 145
12, 46
13, 10
8, 5
4, 0
4, 8
6, 4
5, 15
5, 15
9, 5
12, 1
12, 2
7, 5
3, 5
3, 7
4, 5
2, 3
4, 2
5, 3
11, 3
14, 3
10, 6
6, 8
2, 2
5, 3
2, 1
2, 2
4, 2
1, 2
9, 8
7, 3
6, 5
1, 1
3, 1
3, 3
2, 5
1, 2
3, 3
4, 1
2, 2
5, 2
3, 3
1, 2
1, 3
2, 1
3, 1
2, 1
1, 3
3, 4
6, 2
1, 2
1, 1
0, 1
1, 1
1, 1
2, 1
2, 3
1, 1
0, 2
3, 2
0, 1
1, 0
2, 1
0, 1
0, 0
0, 0
0, 0
0, 2
2, 1
2, 2
0, 1
0, 0
2, 0
0, 1
2, 2
1, 0
0, 0
0, 1
0, 0
0, 0
0, 0
1, 0
0, 2
0, 0
0, 1
2, 3
0, 2
0, 0
0, 0
2, 2
0, 1
0, 0
0, 1
1, 1
0, 0
0, 0
1, 1
1, 0
0, 0
1, 0
1, 0
0, 0
0, 0
1, 1
1, 0
0, 0
0, 0
0, 0
0, 1
0, 0
0, 0
0, 0
0, 0
0, 0
0, 0
0, 0
0, 0
1, 0
0, 0
0, 0
0, 0
0, 0
0, 0
0, 0
0, 0
0, 1
0, 0
0, 0
1, 0
0, 0
0, 0
0, 0
0, 0
0, 0
0, 0
0, 0
0, 0
0, 0
1, 0
0, 0
0, 0
0, 0
0, 0
0, 0
0, 0
0, 0
0, 0
0, 0
0, 0
0, 0
0, 0
0, 0
0, 0
0, 0
0, 0
0, 0
0, 0
0, 0
0, 0
0, 0
0, 0
0, 0
0, 0
0, 0
0, 0
0, 0
0, 0
0, 0
0, 0
0, 0
0, 0
0, 0
0, 0
0, 0
0, 0
0, 0
0, 0
0, 0
0, 0
0, 0
0, 0
0, 0
0, 0
0, 0
0, 0
0, 0
0, 0
0, 0
0, 0
0, 0
0, 0
0, 0
0, 0
0, 0
0, 0
0, 0
0, 0
0, 0
0, 0
0, 0
0, 0
0, 0
0, 0
0, 0
0, 0
0, 0
0, 0
0, 0
0, 0
0, 0
0, 0
0, 0
0, 0
0, 0
0, 0
0, 0
0, 0
0, 0
0, 0
0, 0
0, 0
0, 0
0, 0
0, 0
0, 0
0, 0
0, 0
#ENDOFDATA     end of spectrum data

File: ps__0852shot_2048.msa
#FORMAT      : EMSA/MAS spectral data file
#VERSION     : TC202v2.0 PIXL
#TITLE       : N/A
#DATE        :       Date in the format DD-MMM-YYYY, for example 07-JUL-2010
#TIME        :             The time of day at which the spectrum was recorded, in 24-hour format
#OWNER       : PIXL Flight Model       (PIXL will use this to indicate which instrument took the data.)
#NPOINTS     : 4096     Number of data points in the spectrum (This can be zero for configuration only files)
#NCOLUMNS    : 2     Number of data columns in the spectrum (This can be zero for configuration only files)
#XUNITS      : eV
#YUNITS      : COUNTS
#DATATYPE    : YY
#XPERCHAN    : 7.862, 7.881   eV per channel (separate by commas if more than one detector)
#OFFSET      : 18.5, -22.4         eV of first channel  (separate by commas if more than one detector
#SIGNALTYPE  : XRF
#YP_TEMP     : 2.332
#LIVETIME    : 8.54567, 8.56901   seconds (separate by commas if more than one detector)
#REALTIME    : 10, 10.0   seconds (separate by commas if more than one detector)
#SPECTRUM    : start of spectrum data
0, 0
0, 0
0, 0
0, 0
0, 0
0, 0
0, 0
0, 0
0, 1
0, 1
3, 2
65, 51
84, 56
7, 5
1, 5
102, 93
448, 427
102, 102
7, 2
1, 1
1, 0
3, 4
2, 14
5, 10
15, 23
20, 21
22, 23
9, 11
5, 3
1, 3
0, 2
3, 0
2, 2
7, 14
19, 12
9, 5
4, 7
11, 11
16, 2
14, 3
9, 2
9, 5
11, 7
15, 13
6, 26
6, 20
2, 5
4, 7
21, 9
48, 14
31, 11
5, 9
19, 21
37, 56
48, 51
22, 25
38, 34
491, 600
2251, 2316
1678, 1373
192, 150
11, 20
19, 18
107, 117
307, 333
228, 226
44, 115
6, 88
16, 33
6, 5
9, 6
2, 2
5, 1
3, 12
8, 21
9, 34
5, 6
11, 4
6, 4
5, 2
5, 8
4, 6
4, 7
1, 5
3, 4
5, 2
16, 2
6, 3
3, 6
2, 5
3, 7
0, 1
0, 1
3, 3
4, 2
7, 5
8, 3
8, 2
4, 2
2, 3
0, 2
1, 4
1, 5
2, 4
3, 2
1, 2
3, 4
3, 1
1, 3
1, 1
2, 2
1, 0
0, 1
3, 4
4, 3
5, 3
5, 3
5, 2
3, 2
2, 4
1, 0
0, 1
0, 5
1, 1
1, 4
0, 1
1, 0
1, 3
0, 1
1, 4
1, 1
0, 1
0, 1
0, 0
2, 0
0, 1
0, 0
0, 2
1, 4
0, 2
1, 2
1, 1
1, 1
1, 0
0, 0
1, 0
0, 0
0, 0
1, 1
0, 1
1, 0
1, 0
0, 1
0, 0
2, 0
1, 0
0, 2
0, 1
0, 0
0, 0
0, 0
1, 0
0, 0
0, 1
0, 1
0, 1
0, 0
1, 0
0, 1
0, 0
0, 0
0, 1
0, 0
0, 0
0, 0
0, 0
0, 0
1, 0
0, 0
0, 0
0, 0
0, 0
0, 0
0, 0
0, 0
0, 0
0, 0
0, 0
0, 0
0, 0
0, 0
0, 0
0, 0
0, 0
0, 0
0, 0
0, 0
0, 0
0, 0
0, 0
0, 0
0, 0
0, 0
0, 0
0, 0
0, 0
0, 0
0, 0
0, 0
0, 0
0, 0
0, 0
0, 0
0, 0
0, 1
0, 0
1, 0
0, 0
0, 0
0, 0
0, 0
0, 0
0, 0
0, 0
0, 0
0, 0
0, 0
0, 0
0, 0
0, 0
0, 0
0, 0
0, 0
0, 0
0, 0
0, 0
0, 0
0, 0
0, 0
0, 0
0, 0
0, 0
0, 0
0, 0
0, 0
0, 0
0, 0
0, 0
0, 0
0, 0
0, 0
0, 0
0, 0
0, 0
0, 0
0, 0
0, 0
0, 0
0, 0
0, 0
0, 0
0, 0
0, 0
0, 0
0, 0
0, 0
0, 0
0, 0
0, 0
0, 0
0, 0
0, 0
0, 0
0, 0
0, 0
0, 0
0, 0
0, 0
0, 0
0, 0
0, 0
0, 0
0, 0
0, 0
0, 0
0, 0
0, 0
0, 0
0, 0
0, 0
0, 0
0, 0
0, 0
0, 0
#ENDOFDATA     end of spectrum data

File: ps__0852shot_2049.msa
#FORMAT      : EMSA/MAS spectral data file
#VERSION     : TC202v2.0 PIXL
#TITLE       : N/A
#DATE        :       Date in the format DD-MMM-YYYY, for example 07-JUL-2010
#TIME        :             The time of day at which the spectrum was recorded, in 24-hour format
#OWNER       : PIXL Flight Model       (PIXL will use this to indicate which instrument took the data.)
#NPOINTS     : 4096     Number of data points in the spectrum (This can be zero for configuration only files)
#NCOLUMNS    : 2     Number of data columns in the spectrum (This can be zero for configuration only files)
#XUNITS      : eV
#YUNITS      : COUNTS
#DATATYPE    : YY
#XPERCHAN    : 7.862, 7.881   eV per channel (separate by commas if more than one detector)
#OFFSET      : 18.5, -22.4         eV of first channel  (separate by commas if more than one detector
#SIGNALTYPE  : XRF
#YP_TEMP     : 2.332
#LIVETIME    : 8.56346, 8.60147   seconds (separate by commas if more than one detector)
#REALTIME    : 10, 10.0   seconds (separate by commas if more than one detector)
#SPECTRUM    : start of spectrum data
0, 0
0, 0
0, 0
0, 0
0, 0
0, 0
0, 0
0, 0
0, 2
1, 17
5, 4
46, 48
63, 53
4, 6
1, 6
107, 107
411, 418
118, 106
7, 8
0, 0
1, 1
1, 6
0, 8
4, 47
20, 620
18, 799
18, 98
8, 5
1, 4
1, 1
1, 5
3, 2
0, 2
12, 11
8, 13
3, 4
1, 2
3, 9
7, 9
6, 9
4, 5
7, 7
18, 17
33, 15
29, 11
12, 12
2, 5
3, 5
13, 13
15, 16
10, 18
13, 9
14, 41
32, 77
56, 71
25, 11
24, 46
476, 602
2165, 2300
1600, 1339
192, 125
13, 15
32, 28
113, 128
342, 367
241, 193
33, 40
7, 34
15, 27
6, 8
3, 9
4, 2
5, 6
1, 7
4, 25
8, 29
10, 15
12, 7
3, 3
7, 4
4, 2
3, 4
5, 7
3, 9
2, 6
7, 3
8, 2
6, 6
7, 6
3, 0
3, 1
1, 5
1, 2
1, 2
3, 2
4, 4
6, 1
3, 3
3, 5
1, 4
1, 2
2, 0
1, 1
4, 0
0, 2
1, 11
5, 1
1, 4
1, 3
1, 2
2, 2
4, 2
1, 2
2, 3
1, 0
2, 3
5, 4
3, 2
1, 1
2, 2
3, 2
2, 1
4, 4
1, 2
1, 0
2, 1
1, 4
3, 1
1, 1
0, 1
2, 1
0, 1
0, 3
0, 1
2, 1
1, 0
2, 0
0, 3
0, 0
1, 0
2, 1
0, 0
2, 2
1, 0
0, 1
0, 1
0, 1
0, 1
1, 1
0, 0
0, 0
0, 0
0, 0
0, 0
0, 1
0, 0
1, 2
0, 1
0, 1
0, 0
0, 0
1, 1
0, 0
0, 0
0, 0
0, 0
1, 0
1, 0
1, 0
0, 0
1, 0
1, 0
0, 0
0, 0
0, 0
1, 1
0, 0
0, 1
0, 0
0, 0
0, 0
0, 0
0, 1
1, 0
0, 0
0, 0
0, 0
0, 0
0, 0
0, 0
0, 0
0, 0
0, 0
0, 0
0, 0
0, 0
0, 0
0, 0
0, 0
0, 0
0, 0
0, 0
0, 0
0, 0
0, 0
0, 0
0, 0
0, 0
0, 0
0, 0
0, 0
0, 0
0, 0
0, 0
0, 0
0, 1
0, 0
0, 0
0, 0
0, 0
0, 0
0, 0
0, 0
0, 0
0, 0
0, 0
1, 0
0, 0
0, 0
0, 0
0, 0
0, 0
0, 0
0, 0
0, 0
0, 0
0, 0
0, 0
0, 0
0, 0
0, 0
0, 0
0, 0
0, 0
0, 0
0, 0
0, 0
0, 0
0, 0
0, 0
0, 0
0, 0
0, 0
0, 0
0, 0
0, 0
0, 0
0, 0
0, 0
0, 0
0, 0
0, 0
0, 0
0, 0
0, 0
0, 0
0, 0
0, 0
0, 0
0, 0
0, 0
0, 0
0, 0
0, 0
0, 0
0, 0
0, 0
0, 0
0, 0
0, 0
0, 0
0, 0
0, 0
0, 0
0, 0
0, 0
0, 0
0, 0
0, 0
0, 0
0, 0
0, 0
0, 0
0, 0
#ENDOFDATA     end of spectrum data

File: ps__0852shot_2050.msa
#FORMAT      : EMSA/MAS spectral data file
#VERSION     : TC202v2.0 PIXL
#TITLE       : N/A
#DATE        :       Date in the format DD-MMM-YYYY, for example 07-JUL-2010
#TIME        :             The time of day at which the spectrum was recorded, in 24-hour format
#OWNER       : PIXL Flight Model       (PIXL will use this to indicate which instrument took the data.)
#NPOINTS     : 4096     Number of data points in the spectrum (This can be zero for configuration only files)
#NCOLUMNS    : 2     Number of data columns in the spectrum (This can be zero for configuration only files)
#XUNITS      : eV
#YUNITS      : COUNTS
#DATATYPE    : YY
#XPERCHAN    : 7.862, 7.881   eV per channel (separate by commas if more than one detector)
#OFFSET      : 18.5, -22.4         eV of first channel  (separate by commas if more than one detector
#SIGNALTYPE  : XRF
#YP_TEMP     : 2.3
#LIVETIME    : 8.54887, 8.58235   seconds (separate by commas if more than one detector)
#REALTIME    : 10, 10.0   seconds (separate by commas if more than one detector)
#SPECTRUM    : start of spectrum data
0, 0
0, 0
0, 0
0, 0
0, 0
0, 0
0, 1
0, 0
0, 20
3, 49
4, 8
52, 56
59, 65
4, 7
5, 5
82, 90
392, 413
104, 102
8, 9
1, 3
2, 5
5, 3
2, 18
5, 163
24, 2016
28, 2734
20, 263
11, 15
4, 3
1, 6
6, 1
2, 3
2, 5
7, 11
12, 13
9, 4
11, 6
2, 5
4, 11
4, 14
4, 4
8, 5
14, 14
49, 14
68, 15
30, 8
6, 10
9, 6
4, 28
11, 63
13, 27
19, 19
46, 14
45, 45
54, 60
21, 25
32, 42
509, 572
2139, 2185
1617, 1310
201, 136
13, 23
18, 48
120, 128
318, 334
211, 168
34, 32
6, 16
11, 29
4, 13
6, 4
2, 2
4, 24
8, 38
13, 43
7, 7
6, 1
7, 3
5, 4
6, 5
0, 3
6, 3
0, 9
2, 8
3, 5
4, 7
4, 8
3, 9
2, 8
1, 6
2, 1
2, 2
4, 4
4, 4
16, 2
21, 2
7, 3
3, 7
0, 4
2, 5
1, 0
3, 1
1, 2
2, 1
2, 2
4, 5
4, 1
1, 2
3, 3
2, 3
3, 1
0, 4
5, 3
1, 3
1, 4
5, 2
2, 3
4, 4
2, 3
1, 0
0, 0
4, 0
1, 2
3, 1
1, 0
2, 1
2, 1
2, 2
2, 1
1, 0
2, 1
1, 1
2, 0
0, 1
0, 1
0, 3
1, 1
1, 0
2, 0
0, 0
0, 1
1, 0
0, 0
1, 1
1, 1
0, 0
0, 0
0, 0
0, 1
0, 0
1, 0
1, 0
0, 0
0, 1
2, 0
0, 1
0, 1
1, 0
0, 0
0, 1
1, 0
0, 1
0, 0
0, 0
0, 0
0, 0
0, 0
0, 0
0, 0
1, 0
0, 0
1, 1
0, 1
1, 0
2, 0
0, 0
0, 0
0, 0
0, 0
0, 0
0, 0
0, 0
0, 0
0, 0
0, 0
0, 0
0, 0
0, 0
0, 0
0, 0
0, 0
0, 0
0, 0
0, 0
0, 0
0, 0
0, 0
0, 0
0, 0
0, 0
0, 0
0, 0
0, 0
0, 0
0, 0
0, 0
0, 0
0, 0
0, 0
0, 0
0, 0
0, 0
0, 0
0, 0
0, 0
0, 0
0, 0
0, 0
0, 0
0, 0
0, 0
0, 0
0, 0
0, 0
0, 0
0, 0
0, 0
0, 0
0, 0
0, 0
0, 0
0, 0
0, 0
0, 0
0, 0
0, 0
0, 0
0, 0
0, 0
0, 0
0, 0
0, 0
0, 0
0, 0
0, 0
0, 0
0, 0
0, 0
0, 0
0, 0
0, 0
0, 0
0, 0
0, 0
0, 0
0, 0
0, 0
0, 0
0, 0
0, 0
0, 0
0, 0
0, 0
0, 0
0, 0
0, 0
0, 0
0, 0
0, 0
0, 0
0, 0
0, 0
0, 0
0, 0
0, 0
0, 0
0, 0
0, 0
0, 0
0, 0
0, 0
0, 0
0, 0
0, 0
0, 0
0, 0
0, 0
0, 0
0, 0
0, 0
0, 0
0, 0
0, 0
0, 0
#ENDOFDATA     end of spectrum data

File: ps__0852shot_2051.msa
#FORMAT      : EMSA/MAS spectral data file
#VERSION     : TC202v2.0 PIXL
#TITLE       : N/A
#DATE        :       Date in the format DD-MMM-YYYY, for example 07-JUL-2010
#TIME        :             The time of day at which the spectrum was recorded, in 24-hour format
#OWNER       : PIXL Flight Model       (PIXL will use this to indicate which instrument took the data.)
#NPOINTS     : 4096     Number of data points in the spectrum (This can be zero for configuration only files)
#NCOLUMNS    : 2     Number of data columns in the spectrum (This can be zero for configuration only files)
#XUNITS      : eV
#YUNITS      : COUNTS
#DATATYPE    : YY
#XPERCHAN    : 7.862, 7.881   eV per channel (separate by commas if more than one detector)
#OFFSET      : 18.5, -22.4         eV of first channel  (separate by commas if more than one detector
#SIGNALTYPE  : XRF
#YP_TEMP     : 2.332
#LIVETIME    : 8.53309, 8.55494   seconds (separate by commas if more than one detector)
#REALTIME    : 10, 10.0   seconds (separate by commas if more than one detector)
#SPECTRUM    : start of spectrum data
0, 0
0, 0
0, 0
0, 0
0, 0
0, 0
0, 0
0, 1
1, 4
3, 19
2, 2
51, 45
65, 48
8, 8
4, 2
110, 103
424, 398
105, 84
10, 7
2, 3
2, 2
2, 3
3, 1
2, 56
13, 862
26, 1208
14, 132
12, 11
5, 8
7, 2
5, 2
0, 2
2, 5
11, 12
11, 12
10, 8
7, 4
5, 2
5, 8
3, 9
5, 5
11, 5
22, 13
48, 13
64, 3
32, 6
4, 7
8, 5
5, 23
12, 43
10, 16
10, 5
14, 9
41, 41
62, 52
21, 17
42, 31
495, 556
2229, 2113
1680, 1333
213, 153
23, 9
22, 36
97, 133
339, 364
256, 204
34, 23
2, 11
14, 9
12, 4
3, 2
6, 4
8, 15
13, 28
9, 16
4, 10
4, 4
11, 7
3, 3
5, 7
2, 2
2, 3
4, 4
5, 5
2, 3
5, 1
3, 4
4, 6
8, 4
5, 6
2, 4
4, 1
2, 7
0, 7
10, 3
17, 3
9, 1
5, 9
7, 5
3, 3
2, 0
2, 3
3, 3
2, 6
5, 3
0, 1
2, 2
0, 6
2, 3
0, 1
2, 3
2, 0
2, 3
1, 2
1, 1
3, 4
3, 2
4, 5
1, 1
1, 1
1, 1
0, 1
3, 2
2, 3
0, 1
0, 1
2, 0
1, 0
0, 0
1, 1
1, 0
0, 2
0, 0
1, 1
2, 0
0, 0
1, 0
0, 0
1, 1
0, 0
1, 0
1, 1
0, 0
1, 0
0, 0
0, 0
0, 1
0, 0
1, 2
1, 0
0, 0
1, 0
1, 0
0, 1
0, 0
0, 1
0, 0
0, 1
0, 0
1, 0
0, 0
1, 0
0, 0
2, 0
1, 0
0, 1
0, 0
0, 1
0, 0
0, 0
1, 0
1, 0
1, 0
1, 1
0, 0
0, 0
1, 0
0, 0
0, 1
0, 0
1, 1
0, 1
0, 0
0, 0
0, 0
0, 0
0, 0
0, 0
0, 0
0, 0
0, 0
0, 0
0, 0
0, 0
0, 0
0, 0
0, 0
0, 0
0, 0
0, 0
0, 0
0, 0
0, 0
0, 0
0, 0
0, 0
0, 0
0, 0
0, 0
0, 0
0, 0
0, 0
0, 0
0, 0
0, 1
0, 0
0, 0
0, 0
0, 0
0, 0
0, 0
0, 0
0, 0
0, 0
0, 0
0, 0
0, 0
0, 0
0, 0
0, 0
0, 0
0, 0
0, 0
0, 0
0, 0
0, 0
0, 0
0, 0
0, 0
0, 0
0, 0
0, 0
0, 0
0, 0
0, 0
0, 0
0, 0
0, 0
0, 0
0, 0
0, 0
0, 0
0, 0
0, 0
0, 0
0, 0
0, 0
0, 0
0, 0
0, 0
0, 0
0, 0
0, 0
0, 0
0, 0
0, 0
0, 0
0, 0
0, 0
0, 0
0, 0
0, 0
0, 0
0, 0
0, 0
0, 0
0, 0
0, 0
0, 0
0, 0
0, 0
0, 0
0, 0
0, 0
0, 0
0, 0
0, 0
0, 0
0, 0
0, 0
0, 0
0, 0
0, 0
0, 0
#ENDOFDATA     end of spectrum data

File: ps__0852shot_2052.msa
#FORMAT      : EMSA/MAS spectral data file
#VERSION     : TC202v2.0 PIXL
#TITLE       : N/A
#DATE        :       Date in the format DD-MMM-YYYY, for example 07-JUL-2010
#TIME        :             The time of day at which the spectrum was recorded, in 24-hour format
#OWNER       : PIXL Flight Model       (PIXL will use this to indicate which instrument took the data.)
#NPOINTS     : 4096     Number of data points in the spectrum (This can be zero for configuration only files)
#NCOLUMNS    : 2     Number of data columns in the spectrum (This can be zero for configuration only files)
#XUNITS      : eV
#YUNITS      : COUNTS
#DATATYPE    : YY
#XPERCHAN    : 7.862, 7.881   eV per channel (separate by commas if more than one detector)
#OFFSET      : 18.5, -22.4         eV of first channel  (separate by commas if more than one detector
#SIGNALTYPE  : XRF
#YP_TEMP     : 2.203
#LIVETIME    : 8.53929, 8.52727   seconds (separate by commas if more than one detector)
#REALTIME    : 10, 10.0   seconds (separate by commas if more than one detector)
#SPECTRUM    : start of spectrum data
0, 0
0, 0
0, 0
0, 0
0, 0
0, 0
0, 0
0, 1
0, 0
1, 9
3, 7
59, 46
60, 53
6, 12
3, 3
109, 85
422, 445
110, 86
4, 5
1, 0
0, 3
1, 4
4, 2
5, 10
23, 176
23, 205
22, 41
11, 13
1, 5
6, 0
5, 1
2, 2
3, 4
15, 9
8, 6
5, 3
7, 4
4, 6
4, 11
6, 6
4, 2
6, 17
19, 21
28, 7
37, 3
25, 6
13, 7
7, 6
6, 17
16, 44
12, 14
7, 7
12, 8
35, 40
68, 44
23, 21
32, 33
508, 550
2300, 2160
1705, 1341
207, 153
19, 14
17, 23
106, 120
313, 326
255, 203
39, 16
8, 6
9, 12
8, 9
4, 4
3, 4
10, 9
9, 15
6, 10
2, 5
2, 6
3, 5
3, 3
4, 10
7, 5
15, 3
9, 1
5, 3
6, 8
4, 5
3, 2
5, 5
3, 4
2, 2
1, 5
4, 8
5, 3
5, 1
5, 4
7, 3
2, 2
2, 2
3, 3
2, 1
2, 3
3, 1
1, 3
6, 3
1, 1
3, 3
0, 3
1, 3
0, 2
2, 0
0, 1
1, 0
1, 3
1, 2
2, 1
3, 1
2, 2
1, 2
2, 2
2, 0
6, 2
2, 1
1, 0
1, 1
0, 1
0, 2
3, 2
1, 0
0, 1
2, 0
2, 2
0, 1
1, 1
1, 0
1, 0
1, 0
0, 1
0, 0
2, 0
1, 0
1, 0
0, 1
2, 0
1, 0
0, 0
2, 0
0, 1
3, 0
0, 0
0, 0
0, 0
0, 0
0, 1
2, 1
0, 0
0, 0
0, 1
0, 0
0, 0
0, 0
0, 1
0, 2
0, 0
1, 0
0, 0
0, 0
0, 0
0, 1
1, 0
0, 0
0, 1
0, 0
0, 0
1, 0
0, 0
0, 0
0, 0
0, 0
0, 1
0, 0
0, 0
0, 0
0, 0
0, 1
0, 1
1, 1
1, 0
0, 0
0, 0
0, 0
0, 0
0, 1
0, 0
0, 0
0, 0
0, 0
1, 0
0, 0
0, 0
0, 0
0, 0
0, 0
0, 0
0, 0
0, 0
0, 0
0, 0
0, 0
0, 0
0, 0
0, 0
0, 0
0, 0
0, 0
1, 0
0, 0
0, 0
0, 0
0, 0
0, 0
0, 0
0, 0
0, 0
0, 0
0, 0
0, 0
0, 0
0, 0
0, 0
0, 0
0, 0
0, 0
0, 0
0, 0
0, 0
0, 0
0, 0
0, 0
0, 0
0, 0
0, 0
0, 0
0, 0
0, 0
0, 0
0, 0
0, 0
0, 0
0, 0
0, 0
0, 0
0, 0
0, 0
0, 0
0, 0
0, 0
0, 0
0, 0
0, 0
0, 0
0, 0
0, 0
0, 0
0, 0
0, 0
0, 0
0, 0
0, 0
0, 0
0, 0
0, 0
0, 0
0, 0
0, 0
0, 0
0, 0
0, 0
0, 0
0, 0
0, 0
0, 0
0, 0
0, 0
0, 0
0, 0
0, 0
0, 0
0, 0
0, 0
0, 0
0, 0
0, 0
0, 0
0, 0
#ENDOFDATA     end of spectrum data

File: ps__0852shot_2053.msa
#FORMAT      : EMSA/MAS spectral data file
#VERSION     : TC202v2.0 PIXL
#TITLE       : N/A
#DATE        :       Date in the format DD-MMM-YYYY, for example 07-JUL-2010
#TIME        :             The time of day at which the spectrum was recorded, in 24-hour format
#OWNER       : PIXL Flight Model       (PIXL will use this to indicate which instrument took the data.)
#NPOINTS     : 4096     Number of data points in the spectrum (This can be zero for configuration only files)
#NCOLUMNS    : 2     Number of data columns in the spectrum (This can be zero for configuration only files)
#XUNITS      : eV
#YUNITS      : COUNTS
#DATATYPE    : YY
#XPERCHAN    : 7.862, 7.881   eV per channel (separate by commas if more than one detector)
#OFFSET      : 18.5, -22.4         eV of first channel  (separate by commas if more than one detector
#SIGNALTYPE  : XRF
#YP_TEMP     : 2.267
#LIVETIME    : 8.54829, 8.53803   seconds (separate by commas if more than one detector)
#REALTIME    : 10, 10.0   seconds (separate by commas if more than one detector)
#SPECTRUM    : start of spectrum data
0, 0
0, 0
0, 0
0, 0
0, 0
0, 0
0, 0
0, 0
0, 1
0, 0
2, 1
46, 54
72, 44
5, 7
5, 4
84, 86
442, 394
116, 86
8, 5
2, 1
1, 0
2, 5
4, 3
6, 5
35, 26
25, 21
26, 11
4, 9
5, 2
2, 2
2, 1
1, 4
2, 1
7, 9
16, 10
1, 5
2, 3
9, 8
5, 8
3, 4
3, 4
5, 16
14, 15
18, 12
11, 2
6, 8
4, 2
5, 4
8, 9
13, 21
8, 8
8, 5
9, 20
34, 45
66, 59
19, 14
37, 44
502, 581
2237, 2162
1676, 1268
194, 158
15, 17
15, 23
91, 107
367, 333
263, 186
63, 18
19, 8
14, 9
10, 5
4, 2
6, 2
3, 6
4, 3
4, 4
7, 10
4, 5
4, 3
4, 4
7, 11
8, 3
9, 5
22, 3
10, 1
5, 5
8, 5
4, 6
4, 5
1, 3
2, 8
3, 8
3, 17
4, 7
1, 4
5, 4
0, 8
4, 5
5, 2
2, 0
1, 3
2, 1
4, 3
1, 3
5, 1
3, 0
1, 3
2, 4
2, 1
3, 2
1, 0
1, 0
2, 3
1, 1
0, 0
3, 2
4, 5
0, 3
2, 2
0, 4
1, 3
0, 1
2, 3
1, 1
0, 0
0, 2
3, 3
0, 0
1, 1
1, 1
1, 0
2, 0
2, 0
0, 2
2, 1
1, 1
1, 1
1, 1
1, 0
0, 0
1, 0
1, 0
0, 1
0, 0
1, 0
0, 0
1, 1
0, 2
2, 1
0, 0
0, 0
2, 1
2, 0
0, 0
1, 0
0, 0
2, 1
1, 0
0, 0
1, 1
0, 1
0, 0
0, 0
0, 0
0, 0
0, 0
0, 1
0, 0
1, 0
0, 0
0, 1
0, 0
0, 0
0, 0
1, 0
1, 0
1, 0
1, 0
1, 0
1, 0
0, 0
0, 0
0, 0
0, 0
0, 0
0, 0
0, 0
0, 1
0, 0
0, 0
0, 0
0, 0
0, 1
0, 0
0, 0
0, 0
0, 0
0, 0
0, 0
0, 0
0, 0
0, 0
0, 0
0, 0
0, 0
0, 0
0, 0
0, 1
0, 0
0, 0
0, 0
0, 0
0, 0
0, 1
0, 0
0, 0
0, 0
0, 0
0, 0
0, 0
0, 0
0, 0
0, 0
0, 0
0, 0
0, 0
0, 0
0, 0
0, 0
0, 0
0, 0
0, 0
0, 0
0, 0
0, 0
0, 0
0, 0
0, 0
0, 0
0, 0
0, 0
0, 0
0, 0
0, 0
0, 0
0, 0
0, 0
0, 0
0, 0
0, 0
0, 0
0, 0
0, 0
0, 0
0, 0
0, 0
0, 0
0, 0
0, 0
0, 0
0, 0
0, 0
0, 0
0, 0
0, 0
0, 0
0, 0
0, 0
0, 0
0, 0
0, 0
0, 0
0, 0
0, 0
0, 0
0, 0
0, 0
0, 0
0, 0
0, 0
0, 0
0, 0
0, 0
0, 0
0, 0
0, 0
0, 0
0, 0
0, 0
0, 0
0, 0
0, 0
0, 0
0, 0
0, 0
#ENDOFDATA     end of spectrum data