Folder: data-repository/host_upload/06-09-2024/ps_0852/dump3 (part 13)

File: ps__0852shot_2110.msa
#FORMAT      : EMSA/MAS spectral data file
#VERSION     : TC202v2.0 PIXL
#TITLE       : N/A
#DATE        :       Date in the format DD-MMM-YYYY, for example 07-JUL-2010
#TIME        :             The time of day at which the spectrum was recorded, in 24-hour format
#OWNER       : PIXL Flight Model       (PIXL will use this to indicate which instrument took the data.)
#NPOINTS     : 4096     Number of data points in the spectrum (This can be zero for configuration only files)
#NCOLUMNS    : 2     Number of data columns in the spectrum (This can be zero for configuration only files)
#XUNITS      : eV
#YUNITS      : COUNTS
#DATATYPE    : YY
#XPERCHAN    : 7.862, 7.881   eV per channel (separate by commas if more than one detector)
#OFFSET      : 18.5, -22.4         eV of first channel  (separate by commas if more than one detector
#SIGNALTYPE  : XRF
#YP_TEMP     : 2.524
#LIVETIME    : 8.55546, 8.55881   seconds (separate by commas if more than one detector)
#REALTIME    : 10, 10.0   seconds (separate by commas if more than one detector)
#SPECTRUM    : start of spectrum data
0, 0
0, 0
0, 0
0, 0
0, 0
0, 0
0, 0
3, 1
3, 1
3, 2
2, 3
24, 39
36, 38
8, 5
7, 11
72, 77
272, 291
53, 85
3, 3
6, 5
57, 63
333, 386
154, 127
51, 46
132, 134
96, 102
34, 38
22, 26
6, 11
2, 6
5, 9
6, 8
12, 6
83, 103
122, 125
25, 28
23, 14
16, 27
7, 19
5, 7
6, 7
4, 25
20, 11
12, 8
9, 10
3, 28
8, 14
5, 3
15, 9
47, 43
51, 36
20, 21
14, 7
46, 63
56, 82
20, 23
22, 52
407, 599
2053, 2340
1502, 1383
187, 149
16, 23
19, 16
100, 105
297, 390
231, 204
26, 25
13, 3
11, 8
39, 7
28, 4
13, 6
4, 1
6, 3
5, 9
4, 4
4, 8
2, 1
5, 8
2, 6
6, 6
8, 4
9, 1
6, 5
6, 9
5, 7
4, 6
2, 7
6, 7
6, 5
6, 13
7, 11
10, 4
7, 4
0, 3
4, 4
3, 2
0, 4
1, 3
2, 4
9, 2
10, 1
3, 1
7, 1
2, 2
2, 1
4, 2
0, 4
0, 2
0, 1
3, 2
2, 2
3, 5
1, 5
1, 5
1, 3
6, 5
4, 2
0, 1
1, 2
1, 1
2, 3
0, 1
1, 2
0, 1
0, 2
0, 2
5, 1
0, 0
0, 0
1, 0
0, 2
2, 1
2, 0
0, 1
0, 0
0, 0
0, 0
1, 1
1, 2
1, 1
1, 0
1, 0
1, 0
0, 0
1, 0
2, 0
1, 0
0, 0
1, 0
0, 0
0, 0
0, 0
2, 0
0, 0
0, 0
0, 0
1, 0
0, 0
0, 1
0, 0
0, 0
1, 0
0, 0
0, 0
0, 0
0, 0
0, 0
0, 0
0, 0
0, 0
0, 0
0, 0
0, 0
0, 0
0, 0
0, 0
0, 0
0, 0
0, 0
0, 0
1, 1
0, 0
0, 0
0, 0
0, 1
0, 0
0, 0
0, 0
0, 0
0, 0
0, 0
0, 0
0, 0
0, 0
0, 0
0, 0
0, 0
0, 0
0, 0
0, 0
0, 0
0, 0
0, 0
0, 1
0, 0
0, 0
0, 0
0, 0
0, 0
0, 0
0, 0
0, 0
0, 0
0, 0
0, 0
0, 0
0, 0
0, 0
0, 0
0, 0
0, 0
0, 0
0, 0
0, 0
0, 0
0, 0
0, 0
0, 0
0, 0
0, 0
0, 0
0, 0
0, 0
0, 0
0, 0
0, 0
0, 0
0, 0
0, 0
0, 0
0, 0
0, 0
0, 0
0, 0
0, 0
0, 0
0, 0
0, 0
0, 0
0, 0
0, 0
0, 0
0, 0
0, 0
0, 0
0, 0
0, 0
0, 0
0, 0
0, 0
0, 0
0, 0
0, 0
0, 0
0, 0
0, 0
0, 0
0, 0
0, 0
0, 0
0, 0
0, 0
0, 0
0, 0
0, 0
0, 0
0, 0
0, 0
0, 0
0, 0
0, 0
0, 0
0, 0
0, 0
0, 0
0, 0
0, 0
0, 0
0, 0
0, 0
0, 0
0, 0
0, 0
#ENDOFDATA     end of spectrum data

File: ps__0852shot_2111.msa
#FORMAT      : EMSA/MAS spectral data file
#VERSION     : TC202v2.0 PIXL
#TITLE       : N/A
#DATE        :       Date in the format DD-MMM-YYYY, for example 07-JUL-2010
#TIME        :             The time of day at which the spectrum was recorded, in 24-hour format
#OWNER       : PIXL Flight Model       (PIXL will use this to indicate which instrument took the data.)
#NPOINTS     : 4096     Number of data points in the spectrum (This can be zero for configuration only files)
#NCOLUMNS    : 2     Number of data columns in the spectrum (This can be zero for configuration only files)
#XUNITS      : eV
#YUNITS      : COUNTS
#DATATYPE    : YY
#XPERCHAN    : 7.862, 7.881   eV per channel (separate by commas if more than one detector)
#OFFSET      : 18.5, -22.4         eV of first channel  (separate by commas if more than one detector
#SIGNALTYPE  : XRF
#YP_TEMP     : 2.396
#LIVETIME    : 8.54131, 8.533   seconds (separate by commas if more than one detector)
#REALTIME    : 10, 10.0   seconds (separate by commas if more than one detector)
#SPECTRUM    : start of spectrum data
0, 0
0, 0
0, 0
0, 0
0, 0
0, 0
0, 0
0, 1
2, 0
1, 2
4, 2
37, 39
48, 43
4, 7
9, 7
56, 89
292, 360
56, 72
5, 2
5, 7
47, 58
265, 296
114, 123
61, 36
104, 91
57, 74
28, 32
13, 18
8, 7
2, 5
2, 9
1, 5
5, 5
29, 25
26, 45
15, 9
8, 7
5, 20
8, 24
4, 14
3, 4
7, 20
9, 13
13, 11
4, 5
6, 20
12, 11
5, 13
6, 10
10, 16
20, 26
14, 9
8, 22
36, 63
46, 66
21, 38
30, 28
374, 642
1808, 2469
1360, 1466
177, 157
18, 19
25, 31
81, 124
254, 366
208, 178
26, 20
7, 10
18, 13
24, 9
5, 2
6, 1
5, 6
4, 8
2, 11
3, 13
4, 20
8, 15
3, 2
2, 5
7, 2
5, 2
3, 6
5, 5
2, 3
4, 7
2, 3
2, 4
1, 3
2, 10
4, 6
6, 2
7, 6
5, 3
4, 2
2, 3
3, 4
1, 3
1, 1
4, 2
4, 2
1, 2
4, 6
1, 4
2, 4
0, 3
4, 1
1, 5
1, 3
0, 1
0, 4
3, 1
0, 5
2, 3
2, 0
4, 4
6, 4
7, 4
2, 4
1, 1
0, 2
0, 0
5, 1
1, 1
3, 0
1, 1
0, 3
2, 0
0, 3
0, 1
0, 2
2, 0
1, 1
0, 0
0, 0
1, 0
1, 1
1, 0
1, 1
2, 1
0, 0
1, 0
0, 1
0, 0
0, 1
1, 0
0, 2
1, 1
0, 2
0, 2
0, 0
0, 0
0, 0
2, 0
0, 1
0, 0
0, 2
0, 0
0, 0
0, 0
0, 0
0, 0
2, 0
0, 1
1, 0
0, 0
0, 0
0, 2
1, 0
1, 1
0, 0
0, 0
1, 0
0, 0
0, 1
0, 0
0, 0
0, 0
0, 1
0, 0
0, 0
0, 0
0, 2
1, 0
0, 0
0, 1
0, 0
1, 0
0, 1
0, 0
0, 0
0, 0
0, 0
0, 0
0, 0
0, 0
0, 0
0, 0
0, 0
0, 0
0, 0
0, 0
0, 0
0, 0
1, 0
0, 0
0, 0
0, 0
0, 0
0, 0
0, 0
0, 0
0, 0
0, 0
0, 0
0, 0
0, 0
0, 0
0, 0
0, 0
0, 0
0, 0
0, 0
0, 0
0, 0
0, 0
0, 0
0, 0
0, 0
0, 0
0, 0
0, 0
0, 0
0, 0
0, 0
0, 0
0, 0
0, 0
0, 0
0, 0
0, 0
0, 0
0, 0
0, 0
0, 0
0, 0
0, 0
0, 0
0, 0
0, 0
0, 0
0, 0
0, 0
0, 0
0, 0
0, 0
0, 0
0, 0
0, 0
0, 0
0, 0
0, 0
0, 0
0, 0
0, 0
0, 0
0, 0
0, 0
0, 0
0, 0
0, 0
0, 0
0, 0
0, 0
0, 0
0, 0
0, 0
0, 0
0, 0
0, 0
0, 0
0, 0
0, 0
0, 0
0, 0
0, 0
0, 0
0, 0
0, 0
0, 0
0, 0
0, 0
0, 0
0, 0
#ENDOFDATA     end of spectrum data

File: ps__0852shot_2112.msa
#FORMAT      : EMSA/MAS spectral data file
#VERSION     : TC202v2.0 PIXL
#TITLE       : N/A
#DATE        :       Date in the format DD-MMM-YYYY, for example 07-JUL-2010
#TIME        :             The time of day at which the spectrum was recorded, in 24-hour format
#OWNER       : PIXL Flight Model       (PIXL will use this to indicate which instrument took the data.)
#NPOINTS     : 4096     Number of data points in the spectrum (This can be zero for configuration only files)
#NCOLUMNS    : 2     Number of data columns in the spectrum (This can be zero for configuration only files)
#XUNITS      : eV
#YUNITS      : COUNTS
#DATATYPE    : YY
#XPERCHAN    : 7.862, 7.881   eV per channel (separate by commas if more than one detector)
#OFFSET      : 18.5, -22.4         eV of first channel  (separate by commas if more than one detector
#SIGNALTYPE  : XRF
#YP_TEMP     : 2.396
#LIVETIME    : 8.55214, 8.55922   seconds (separate by commas if more than one detector)
#REALTIME    : 10, 10.0   seconds (separate by commas if more than one detector)
#SPECTRUM    : start of spectrum data
0, 0
0, 0
0, 0
0, 0
0, 0
0, 0
0, 0
0, 2
1, 2
0, 4
2, 0
34, 36
46, 49
3, 7
5, 6
69, 76
307, 366
79, 99
15, 6
1, 4
30, 49
205, 302
76, 129
24, 143
55, 90
60, 60
23, 23
12, 20
4, 8
2, 8
11, 4
5, 5
12, 6
55, 77
74, 96
11, 12
7, 14
20, 17
5, 9
5, 9
7, 8
13, 13
20, 16
15, 9
5, 13
6, 29
10, 50
9, 16
10, 8
22, 39
18, 24
7, 10
15, 15
40, 50
57, 82
18, 23
33, 30
428, 567
1851, 2352
1375, 1467
182, 145
21, 19
16, 23
85, 124
307, 365
203, 191
28, 13
10, 6
11, 6
8, 9
11, 5
5, 6
5, 18
8, 7
2, 7
3, 16
5, 6
4, 8
5, 6
5, 2
4, 3
1, 4
6, 7
5, 13
1, 7
5, 4
1, 7
4, 1
7, 1
3, 8
4, 4
5, 6
2, 8
4, 4
10, 1
6, 1
4, 2
4, 3
3, 2
1, 4
1, 0
6, 2
3, 1
5, 2
3, 5
2, 2
2, 1
2, 1
3, 4
2, 2
1, 1
1, 2
3, 3
2, 3
2, 2
2, 2
2, 7
2, 2
2, 1
2, 1
0, 2
2, 3
1, 3
1, 1
0, 4
0, 3
1, 1
0, 3
1, 0
1, 1
1, 1
1, 0
1, 1
1, 1
1, 1
0, 1
1, 2
0, 0
2, 1
1, 2
1, 1
0, 0
0, 0
0, 0
0, 0
0, 0
0, 0
0, 0
0, 1
0, 0
0, 2
0, 0
0, 1
0, 0
0, 0
0, 0
1, 0
1, 1
0, 1
0, 1
0, 0
0, 1
0, 0
0, 1
0, 0
0, 1
0, 0
0, 1
0, 1
0, 0
0, 0
0, 0
1, 1
0, 0
0, 0
1, 1
1, 0
0, 0
1, 1
0, 1
0, 0
0, 0
0, 0
0, 0
0, 0
0, 0
0, 0
0, 1
0, 0
0, 0
0, 0
0, 0
1, 1
0, 0
0, 0
0, 0
0, 0
1, 0
0, 0
0, 1
0, 0
0, 0
0, 0
0, 0
0, 0
0, 0
0, 0
0, 0
0, 0
0, 0
0, 0
0, 0
0, 0
0, 0
0, 0
0, 0
0, 0
0, 0
0, 0
0, 0
0, 0
0, 0
0, 0
0, 0
0, 0
0, 0
0, 0
0, 0
0, 0
0, 0
0, 0
0, 0
0, 0
0, 0
0, 0
0, 0
0, 0
0, 0
0, 0
0, 0
0, 0
0, 0
0, 0
0, 0
0, 0
0, 0
0, 0
0, 0
0, 0
0, 0
0, 0
0, 0
0, 0
0, 0
0, 0
0, 0
0, 0
0, 0
0, 0
0, 0
0, 0
0, 0
0, 0
0, 0
0, 0
0, 0
0, 0
0, 0
0, 0
0, 0
0, 0
0, 0
0, 0
0, 0
0, 0
0, 0
0, 0
0, 0
0, 0
0, 0
0, 0
0, 0
0, 0
0, 0
0, 0
0, 0
0, 0
0, 0
0, 0
0, 0
0, 0
0, 0
0, 0
0, 0
#ENDOFDATA     end of spectrum data

File: ps__0852shot_2113.msa
#FORMAT      : EMSA/MAS spectral data file
#VERSION     : TC202v2.0 PIXL
#TITLE       : N/A
#DATE        :       Date in the format DD-MMM-YYYY, for example 07-JUL-2010
#TIME        :             The time of day at which the spectrum was recorded, in 24-hour format
#OWNER       : PIXL Flight Model       (PIXL will use this to indicate which instrument took the data.)
#NPOINTS     : 4096     Number of data points in the spectrum (This can be zero for configuration only files)
#NCOLUMNS    : 2     Number of data columns in the spectrum (This can be zero for configuration only files)
#XUNITS      : eV
#YUNITS      : COUNTS
#DATATYPE    : YY
#XPERCHAN    : 7.862, 7.881   eV per channel (separate by commas if more than one detector)
#OFFSET      : 18.5, -22.4         eV of first channel  (separate by commas if more than one detector
#SIGNALTYPE  : XRF
#YP_TEMP     : 2.364
#LIVETIME    : 8.55634, 8.55336   seconds (separate by commas if more than one detector)
#REALTIME    : 10, 10.0   seconds (separate by commas if more than one detector)
#SPECTRUM    : start of spectrum data
0, 0
0, 0
0, 0
0, 0
0, 0
0, 0
0, 0
1, 2
1, 1
1, 4
3, 3
25, 29
42, 39
10, 3
10, 11
78, 60
355, 345
82, 86
7, 9
6, 5
46, 48
264, 269
96, 150
28, 241
49, 95
41, 66
30, 24
21, 13
5, 2
0, 4
1, 9
4, 1
3, 10
81, 71
137, 147
17, 19
13, 17
20, 12
14, 5
2, 5
3, 10
8, 17
27, 17
17, 7
5, 16
2, 58
4, 70
6, 17
9, 17
15, 35
18, 29
5, 10
11, 10
33, 39
69, 56
19, 24
33, 34
440, 532
2119, 2188
1527, 1358
207, 123
15, 13
10, 16
85, 112
308, 347
223, 200
42, 22
9, 18
20, 18
9, 5
2, 5
2, 12
5, 11
7, 14
9, 7
7, 7
5, 2
3, 1
7, 3
10, 6
12, 6
2, 1
2, 4
4, 5
4, 6
1, 2
1, 0
5, 5
5, 3
3, 3
4, 2
9, 4
5, 5
8, 4
8, 4
9, 0
7, 0
4, 3
5, 5
7, 2
0, 2
0, 1
6, 2
4, 2
1, 4
1, 3
2, 1
0, 4
3, 1
1, 2
0, 3
0, 0
1, 2
0, 1
0, 2
1, 3
5, 4
3, 4
5, 2
1, 1
2, 4
0, 1
1, 1
5, 3
1, 1
0, 1
1, 2
1, 0
1, 1
0, 2
0, 1
1, 1
1, 1
0, 1
1, 1
1, 1
0, 0
1, 1
1, 0
1, 1
1, 1
0, 1
0, 1
0, 1
2, 2
0, 1
0, 0
0, 0
3, 1
0, 2
3, 1
0, 1
2, 1
0, 1
0, 0
0, 0
0, 0
0, 0
0, 0
0, 0
0, 0
2, 0
0, 0
0, 0
0, 0
0, 0
0, 0
0, 0
1, 1
0, 0
0, 2
0, 0
0, 0
0, 0
0, 0
0, 0
0, 1
0, 0
1, 0
1, 0
0, 0
0, 1
0, 0
0, 0
0, 0
0, 0
0, 0
0, 0
0, 1
0, 0
0, 0
0, 0
1, 0
0, 0
0, 0
0, 0
0, 0
0, 0
0, 0
0, 0
0, 0
0, 0
1, 0
0, 0
0, 0
0, 0
0, 0
0, 0
0, 0
0, 0
0, 0
0, 0
0, 0
0, 0
0, 0
0, 0
0, 0
0, 0
0, 0
0, 0
0, 0
0, 0
0, 0
0, 0
0, 0
0, 0
0, 0
0, 0
0, 0
0, 0
0, 0
0, 0
0, 0
0, 0
0, 0
0, 0
0, 0
0, 0
0, 0
0, 0
0, 0
0, 0
0, 0
0, 0
0, 0
0, 0
0, 0
0, 0
0, 0
0, 0
0, 0
0, 0
0, 0
0, 0
0, 0
0, 0
0, 0
0, 0
0, 0
0, 0
0, 0
0, 0
0, 0
0, 0
0, 0
0, 0
0, 0
0, 0
0, 0
0, 0
0, 0
0, 0
0, 0
0, 0
0, 0
0, 0
0, 0
0, 0
0, 0
0, 0
0, 0
0, 0
0, 0
0, 0
0, 0
0, 0
0, 0
0, 0
0, 0
0, 0
0, 0
0, 0
0, 0
0, 0
#ENDOFDATA     end of spectrum data

File: ps__0852shot_2114.msa
#FORMAT      : EMSA/MAS spectral data file
#VERSION     : TC202v2.0 PIXL
#TITLE       : N/A
#DATE        :       Date in the format DD-MMM-YYYY, for example 07-JUL-2010
#TIME        :             The time of day at which the spectrum was recorded, in 24-hour format
#OWNER       : PIXL Flight Model       (PIXL will use this to indicate which instrument took the data.)
#NPOINTS     : 4096     Number of data points in the spectrum (This can be zero for configuration only files)
#NCOLUMNS    : 2     Number of data columns in the spectrum (This can be zero for configuration only files)
#XUNITS      : eV
#YUNITS      : COUNTS
#DATATYPE    : YY
#XPERCHAN    : 7.862, 7.881   eV per channel (separate by commas if more than one detector)
#OFFSET      : 18.5, -22.4         eV of first channel  (separate by commas if more than one detector
#SIGNALTYPE  : XRF
#YP_TEMP     : 2.364
#LIVETIME    : 8.54513, 8.56   seconds (separate by commas if more than one detector)
#REALTIME    : 10, 10.0   seconds (separate by commas if more than one detector)
#SPECTRUM    : start of spectrum data
0, 0
0, 0
0, 0
0, 0
0, 0
0, 0
0, 0
0, 2
2, 2
1, 0
2, 0
26, 30
36, 35
6, 3
5, 6
91, 77
324, 323
82, 91
16, 7
7, 6
55, 75
335, 360
146, 168
31, 73
80, 82
54, 51
25, 21
15, 12
11, 6
3, 4
7, 13
2, 4
16, 27
146, 163
255, 274
54, 37
31, 34
52, 60
12, 12
5, 10
3, 18
11, 25
18, 20
9, 10
8, 8
6, 33
7, 24
5, 3
15, 14
33, 43
27, 43
5, 12
9, 10
32, 40
47, 48
23, 18
28, 32
379, 476
1734, 1764
1235, 1081
176, 131
13, 9
13, 13
81, 112
270, 283
182, 203
30, 19
7, 11
12, 15
11, 7
11, 5
3, 6
2, 4
7, 3
7, 3
13, 3
9, 6
9, 5
9, 0
7, 3
3, 5
2, 9
4, 16
3, 17
4, 13
3, 7
3, 4
4, 3
3, 3
3, 2
1, 8
1, 4
4, 7
3, 2
1, 8
5, 2
3, 5
3, 2
4, 3
2, 4
2, 3
3, 3
3, 4
3, 3
5, 4
2, 1
1, 4
2, 5
2, 1
1, 2
2, 2
3, 1
4, 0
0, 2
2, 1
5, 4
2, 6
3, 2
3, 4
2, 3
1, 2
1, 4
2, 1
2, 1
3, 1
2, 1
3, 1
1, 0
1, 1
0, 1
1, 0
0, 1
1, 4
0, 2
1, 1
1, 0
0, 0
0, 0
1, 2
0, 2
0, 1
1, 1
1, 0
0, 0
0, 0
1, 0
0, 0
2, 1
0, 0
0, 1
0, 0
0, 0
1, 0
0, 0
0, 0
0, 0
1, 1
0, 0
0, 0
1, 1
0, 0
0, 0
1, 0
0, 0
0, 0
0, 1
0, 1
0, 0
0, 0
0, 0
0, 0
0, 0
0, 0
0, 0
0, 0
0, 0
0, 0
0, 0
0, 0
0, 0
0, 0
0, 0
0, 0
0, 0
0, 1
0, 1
0, 0
0, 0
0, 0
0, 0
0, 0
2, 0
0, 0
0, 0
0, 0
0, 0
0, 0
0, 1
0, 0
0, 0
0, 0
0, 1
0, 0
0, 0
0, 0
0, 0
0, 0
0, 0
0, 0
0, 0
0, 0
1, 0
0, 0
0, 0
0, 0
0, 0
0, 0
0, 0
0, 0
0, 0
0, 0
0, 0
0, 0
0, 0
0, 0
0, 0
0, 0
0, 0
0, 0
0, 0
0, 0
0, 0
0, 0
0, 0
0, 0
0, 0
0, 0
0, 0
0, 0
0, 0
0, 0
0, 0
0, 0
0, 0
0, 0
0, 0
0, 0
0, 0
0, 0
0, 0
0, 0
0, 0
0, 0
0, 0
0, 0
0, 0
0, 0
0, 0
0, 0
0, 0
0, 0
0, 0
0, 0
0, 0
0, 0
0, 0
0, 0
0, 0
0, 0
0, 0
0, 0
0, 0
0, 0
0, 0
0, 0
0, 0
0, 0
0, 0
0, 0
0, 0
0, 0
0, 0
0, 0
0, 0
0, 0
0, 0
0, 0
0, 0
0, 0
0, 0
0, 0
0, 0
0, 0
0, 0
#ENDOFDATA     end of spectrum data

File: ps__0852shot_2115.msa
#FORMAT      : EMSA/MAS spectral data file
#VERSION     : TC202v2.0 PIXL
#TITLE       : N/A
#DATE        :       Date in the format DD-MMM-YYYY, for example 07-JUL-2010
#TIME        :             The time of day at which the spectrum was recorded, in 24-hour format
#OWNER       : PIXL Flight Model       (PIXL will use this to indicate which instrument took the data.)
#NPOINTS     : 4096     Number of data points in the spectrum (This can be zero for configuration only files)
#NCOLUMNS    : 2     Number of data columns in the spectrum (This can be zero for configuration only files)
#XUNITS      : eV
#YUNITS      : COUNTS
#DATATYPE    : YY
#XPERCHAN    : 7.862, 7.881   eV per channel (separate by commas if more than one detector)
#OFFSET      : 18.5, -22.4         eV of first channel  (separate by commas if more than one detector
#SIGNALTYPE  : XRF
#YP_TEMP     : 2.364
#LIVETIME    : 8.55707, 8.55665   seconds (separate by commas if more than one detector)
#REALTIME    : 10, 10.0   seconds (separate by commas if more than one detector)
#SPECTRUM    : start of spectrum data
0, 0
0, 0
0, 0
0, 0
0, 0
0, 0
0, 0
0, 0
1, 3
3, 3
4, 3
29, 40
34, 44
3, 7
4, 6
57, 68
249, 246
70, 68
6, 4
5, 3
65, 86
408, 490
174, 186
38, 46
89, 128
87, 92
25, 33
20, 18
5, 5
7, 5
6, 13
5, 4
5, 4
40, 35
60, 54
10, 4
10, 8
15, 10
6, 6
5, 6
7, 8
12, 17
20, 23
11, 12
8, 5
8, 7
5, 7
9, 7
24, 12
31, 15
18, 23
1, 42
13, 62
35, 66
59, 74
25, 17
50, 34
481, 644
2100, 2320
1448, 1475
167, 151
14, 23
29, 21
116, 131
320, 336
197, 240
45, 26
4, 5
21, 8
17, 10
10, 4
4, 8
4, 5
7, 3
7, 10
9, 4
14, 5
17, 5
7, 1
3, 10
5, 5
3, 9
1, 7
2, 5
8, 5
5, 3
1, 3
4, 6
4, 5
0, 5
0, 2
3, 5
4, 11
1, 15
0, 16
3, 7
4, 5
3, 2
4, 1
3, 2
4, 4
0, 3
1, 7
2, 1
2, 2
3, 2
1, 4
2, 3
1, 3
3, 3
1, 0
2, 0
4, 1
1, 1
2, 2
2, 1
1, 6
3, 2
3, 2
1, 3
0, 0
3, 2
4, 3
2, 0
2, 4
1, 2
1, 2
1, 0
3, 0
3, 0
0, 0
0, 1
1, 0
0, 2
0, 3
0, 1
1, 0
1, 1
0, 1
0, 0
0, 0
0, 1
0, 0
1, 0
0, 0
1, 1
0, 1
0, 1
2, 0
0, 1
0, 0
1, 0
0, 0
0, 0
1, 1
0, 0
0, 1
0, 0
0, 0
0, 0
0, 0
0, 0
0, 1
0, 1
0, 1
1, 0
0, 1
0, 0
0, 0
0, 0
1, 0
0, 0
0, 2
0, 0
0, 0
0, 0
0, 0
0, 0
0, 0
0, 0
1, 0
1, 0
0, 0
0, 0
2, 0
1, 0
0, 0
0, 0
0, 0
0, 0
1, 0
0, 0
0, 1
0, 0
0, 0
0, 0
0, 1
0, 0
0, 0
0, 0
0, 0
0, 0
0, 0
0, 0
0, 0
0, 0
0, 0
0, 0
0, 0
0, 0
0, 0
0, 0
0, 0
0, 1
0, 0
0, 0
0, 0
0, 0
0, 0
0, 0
0, 0
0, 0
0, 0
0, 0
0, 0
0, 0
0, 0
0, 0
0, 0
0, 0
0, 0
0, 0
0, 0
0, 0
0, 0
0, 0
0, 0
0, 0
0, 0
0, 0
0, 0
0, 0
0, 0
0, 0
0, 0
0, 0
0, 0
0, 0
0, 0
0, 0
0, 0
0, 0
0, 0
0, 0
0, 0
0, 0
0, 0
0, 0
0, 0
0, 0
0, 0
0, 0
0, 0
0, 0
0, 0
0, 0
0, 0
0, 0
0, 0
0, 0
0, 0
0, 0
0, 0
0, 0
0, 0
0, 0
0, 0
0, 0
0, 0
0, 0
0, 0
0, 0
0, 0
0, 0
0, 0
0, 0
0, 0
0, 0
0, 0
0, 0
0, 0
0, 0
0, 0
0, 0
#ENDOFDATA     end of spectrum data

File: ps__0852shot_2116.msa
#FORMAT      : EMSA/MAS spectral data file
#VERSION     : TC202v2.0 PIXL
#TITLE       : N/A
#DATE        :       Date in the format DD-MMM-YYYY, for example 07-JUL-2010
#TIME        :             The time of day at which the spectrum was recorded, in 24-hour format
#OWNER       : PIXL Flight Model       (PIXL will use this to indicate which instrument took the data.)
#NPOINTS     : 4096     Number of data points in the spectrum (This can be zero for configuration only files)
#NCOLUMNS    : 2     Number of data columns in the spectrum (This can be zero for configuration only files)
#XUNITS      : eV
#YUNITS      : COUNTS
#DATATYPE    : YY
#XPERCHAN    : 7.862, 7.881   eV per channel (separate by commas if more than one detector)
#OFFSET      : 18.5, -22.4         eV of first channel  (separate by commas if more than one detector
#SIGNALTYPE  : XRF
#YP_TEMP     : 2.332
#LIVETIME    : 8.5414, 8.56115   seconds (separate by commas if more than one detector)
#REALTIME    : 10, 10.0   seconds (separate by commas if more than one detector)
#SPECTRUM    : start of spectrum data
0, 0
0, 0
0, 0
0, 0
0, 0
0, 0
0, 0
0, 1
1, 0
0, 0
1, 3
47, 45
53, 51
8, 8
7, 9
82, 98
363, 424
98, 84
3, 7
2, 3
31, 33
136, 172
56, 66
15, 25
52, 40
58, 50
16, 26
15, 11
7, 1
1, 4
5, 3
3, 5
56, 3
82, 13
30, 10
3, 2
4, 6
8, 6
5, 11
4, 5
8, 4
9, 12
8, 22
9, 14
6, 7
9, 7
11, 9
31, 7
143, 5
115, 16
31, 26
7, 72
9, 136
29, 74
56, 65
34, 22
51, 42
444, 579
2031, 2246
1561, 1382
195, 162
16, 10
20, 31
99, 117
345, 367
225, 209
36, 24
9, 8
11, 15
8, 12
6, 11
12, 3
4, 2
5, 4
5, 7
5, 2
8, 6
3, 6
3, 8
5, 5
6, 2
14, 4
5, 4
8, 4
7, 3
5, 4
2, 3
4, 4
5, 2
2, 4
6, 4
18, 2
4, 9
4, 2
3, 3
2, 4
3, 4
12, 1
6, 4
4, 1
5, 1
1, 3
0, 5
1, 4
1, 6
1, 4
2, 1
1, 1
2, 5
3, 2
2, 0
1, 0
2, 1
0, 1
0, 1
1, 4
6, 1
0, 2
2, 2
2, 2
1, 0
0, 3
0, 1
2, 3
1, 2
6, 1
2, 3
3, 1
1, 1
1, 0
1, 0
1, 2
0, 1
2, 0
1, 0
1, 1
0, 1
0, 0
0, 1
0, 1
0, 0
3, 0
0, 0
0, 0
1, 0
1, 0
0, 0
0, 0
0, 0
0, 1
1, 0
0, 0
0, 0
1, 0
0, 0
0, 0
0, 0
0, 0
0, 0
2, 0
0, 1
0, 0
0, 1
0, 0
0, 1
0, 1
0, 0
0, 0
0, 0
0, 0
0, 0
0, 1
0, 0
1, 0
1, 0
0, 0
0, 1
1, 0
0, 0
0, 0
0, 0
0, 0
0, 0
0, 0
0, 0
0, 1
0, 0
0, 1
0, 0
0, 0
0, 0
2, 0
0, 0
0, 0
0, 0
0, 0
0, 0
0, 0
0, 0
0, 0
0, 0
0, 0
0, 0
0, 0
0, 0
0, 0
0, 0
0, 0
0, 0
0, 0
0, 0
0, 0
0, 0
0, 0
0, 0
0, 0
0, 0
0, 0
0, 0
0, 0
0, 0
0, 0
0, 0
0, 0
0, 0
0, 0
0, 0
0, 0
0, 0
0, 0
0, 0
0, 0
0, 0
0, 0
0, 0
0, 0
0, 0
0, 0
0, 0
0, 0
0, 0
0, 0
0, 0
0, 0
0, 0
0, 0
0, 0
0, 0
0, 0
0, 0
0, 0
0, 0
0, 0
0, 0
0, 0
0, 0
0, 0
0, 0
0, 0
0, 0
0, 0
0, 0
0, 0
0, 0
0, 0
0, 0
0, 0
0, 0
0, 0
0, 0
0, 0
0, 0
0, 0
0, 0
0, 0
0, 0
0, 0
0, 0
0, 0
0, 0
0, 0
0, 0
0, 0
0, 0
0, 0
0, 0
0, 0
0, 0
0, 0
0, 0
0, 0
0, 0
0, 0
0, 0
#ENDOFDATA     end of spectrum data

File: ps__0852shot_2117.msa
#FORMAT      : EMSA/MAS spectral data file
#VERSION     : TC202v2.0 PIXL
#TITLE       : N/A
#DATE        :       Date in the format DD-MMM-YYYY, for example 07-JUL-2010
#TIME        :             The time of day at which the spectrum was recorded, in 24-hour format
#OWNER       : PIXL Flight Model       (PIXL will use this to indicate which instrument took the data.)
#NPOINTS     : 4096     Number of data points in the spectrum (This can be zero for configuration only files)
#NCOLUMNS    : 2     Number of data columns in the spectrum (This can be zero for configuration only files)
#XUNITS      : eV
#YUNITS      : COUNTS
#DATATYPE    : YY
#XPERCHAN    : 7.862, 7.881   eV per channel (separate by commas if more than one detector)
#OFFSET      : 18.5, -22.4         eV of first channel  (separate by commas if more than one detector
#SIGNALTYPE  : XRF
#YP_TEMP     : 2.267
#LIVETIME    : 8.54916, 8.58969   seconds (separate by commas if more than one detector)
#REALTIME    : 10, 10.0   seconds (separate by commas if more than one detector)
#SPECTRUM    : start of spectrum data
0, 0
0, 0
0, 0
0, 0
0, 0
0, 0
0, 0
0, 0
0, 0
1, 3
4, 2
44, 62
61, 59
5, 2
4, 13
102, 97
416, 397
102, 111
8, 3
2, 1
3, 11
45, 60
15, 14
19, 12
39, 31
33, 28
19, 30
8, 14
5, 2
4, 1
5, 2
8, 4
47, 3
75, 12
18, 15
4, 3
2, 7
6, 7
3, 15
1, 7
3, 3
5, 10
16, 21
16, 12
13, 5
12, 9
10, 10
49, 7
100, 5
114, 8
43, 13
16, 16
9, 16
44, 46
65, 51
16, 14
23, 42
455, 586
2113, 2296
1479, 1361
189, 135
18, 19
27, 27
114, 121
331, 370
230, 241
45, 54
16, 12
9, 15
11, 10
3, 8
4, 1
6, 3
9, 8
7, 9
3, 5
9, 4
4, 4
6, 4
2, 10
7, 2
9, 8
10, 6
5, 4
0, 10
4, 8
1, 8
6, 3
2, 6
4, 0
7, 4
2, 5
3, 2
5, 2
3, 2
8, 2
1, 2
3, 1
5, 3
0, 4
3, 4
0, 0
4, 1
3, 2
2, 5
0, 1
3, 3
2, 3
3, 3
2, 1
1, 0
3, 2
1, 1
2, 3
2, 2
2, 5
5, 3
2, 3
1, 2
2, 1
0, 1
1, 2
2, 1
4, 2
1, 3
1, 2
1, 1
1, 1
1, 1
1, 0
1, 0
2, 0
0, 3
1, 1
2, 0
0, 1
0, 1
0, 0
0, 0
1, 2
0, 1
0, 0
1, 3
0, 0
1, 0
1, 0
0, 1
0, 0
0, 0
1, 0
1, 1
0, 0
0, 0
1, 0
0, 0
0, 0
0, 1
0, 0
0, 0
1, 1
1, 0
1, 0
1, 0
0, 0
0, 0
0, 0
1, 1
0, 0
0, 0
0, 1
0, 0
0, 0
1, 0
0, 1
1, 1
0, 0
0, 0
0, 0
1, 0
0, 0
0, 0
0, 0
0, 0
0, 0
0, 0
0, 0
0, 0
0, 0
0, 0
0, 0
1, 0
0, 1
0, 0
0, 0
0, 0
0, 0
0, 0
0, 0
0, 0
0, 0
0, 0
0, 0
0, 0
0, 1
0, 0
0, 0
0, 0
0, 0
0, 0
0, 0
0, 0
0, 0
0, 0
0, 0
0, 0
0, 0
0, 0
0, 0
0, 0
0, 0
0, 0
0, 0
0, 0
0, 0
0, 0
0, 0
0, 0
0, 0
0, 0
0, 0
0, 0
0, 0
0, 0
0, 0
0, 1
0, 1
0, 0
0, 0
0, 0
0, 0
0, 0
0, 0
0, 0
0, 0
0, 0
0, 0
0, 0
0, 0
0, 0
0, 0
0, 0
0, 0
0, 0
0, 0
0, 0
0, 0
0, 0
0, 0
0, 0
0, 0
0, 0
0, 0
0, 0
0, 0
0, 0
0, 0
0, 0
0, 0
0, 0
0, 0
0, 0
0, 0
0, 0
0, 0
0, 0
0, 0
0, 0
0, 0
0, 0
0, 0
0, 0
0, 0
0, 0
0, 0
0, 0
0, 0
0, 0
0, 0
0, 0
0, 0
0, 0
0, 0
0, 0
0, 0
#ENDOFDATA     end of spectrum data

File: ps__0852shot_2118.msa
#FORMAT      : EMSA/MAS spectral data file
#VERSION     : TC202v2.0 PIXL
#TITLE       : N/A
#DATE        :       Date in the format DD-MMM-YYYY, for example 07-JUL-2010
#TIME        :             The time of day at which the spectrum was recorded, in 24-hour format
#OWNER       : PIXL Flight Model       (PIXL will use this to indicate which instrument took the data.)
#NPOINTS     : 4096     Number of data points in the spectrum (This can be zero for configuration only files)
#NCOLUMNS    : 2     Number of data columns in the spectrum (This can be zero for configuration only files)
#XUNITS      : eV
#YUNITS      : COUNTS
#DATATYPE    : YY
#XPERCHAN    : 7.862, 7.881   eV per channel (separate by commas if more than one detector)
#OFFSET      : 18.5, -22.4         eV of first channel  (separate by commas if more than one detector
#SIGNALTYPE  : XRF
#YP_TEMP     : 2.267
#LIVETIME    : 8.55328, 8.5981   seconds (separate by commas if more than one detector)
#REALTIME    : 10, 10.0   seconds (separate by commas if more than one detector)
#SPECTRUM    : start of spectrum data
0, 0
0, 0
0, 0
0, 0
0, 0
0, 0
0, 0
0, 1
1, 0
2, 2
2, 1
40, 57
62, 45
4, 2
3, 5
91, 92
371, 422
113, 99
5, 2
2, 2
4, 3
16, 13
9, 9
12, 16
25, 21
35, 30
28, 25
11, 14
1, 3
6, 1
1, 2
1, 4
7, 4
14, 11
21, 22
4, 9
8, 5
4, 9
6, 11
4, 11
0, 9
19, 18
14, 27
14, 20
8, 9
5, 10
13, 8
29, 8
38, 6
50, 19
50, 27
11, 15
16, 10
40, 43
65, 68
15, 16
21, 34
418, 619
2018, 2368
1445, 1429
194, 156
30, 23
34, 30
110, 130
305, 407
225, 185
30, 46
7, 11
15, 25
5, 7
3, 9
5, 5
4, 3
5, 8
3, 7
5, 9
9, 6
8, 6
6, 1
2, 4
4, 6
9, 3
4, 8
4, 5
1, 7
2, 5
5, 5
1, 7
3, 6
2, 4
4, 1
7, 3
3, 4
4, 0
6, 1
3, 1
9, 1
5, 2
3, 4
1, 4
4, 4
5, 5
0, 3
2, 3
1, 4
4, 6
2, 1
4, 2
4, 1
1, 3
0, 1
2, 5
2, 3
2, 5
1, 0
1, 5
3, 6
2, 4
3, 1
1, 2
1, 0
1, 1
1, 5
1, 2
0, 2
2, 0
0, 2
1, 3
3, 1
0, 1
3, 1
2, 1
1, 1
2, 0
0, 0
1, 3
0, 0
0, 1
3, 1
0, 0
0, 1
0, 1
0, 0
0, 0
1, 1
1, 1
1, 1
0, 0
0, 1
0, 0
1, 0
0, 0
0, 1
1, 0
0, 1
0, 0
1, 0
0, 1
1, 0
0, 1
2, 1
2, 0
0, 1
2, 0
0, 1
1, 0
0, 0
0, 1
1, 0
2, 0
0, 2
0, 1
1, 0
0, 1
1, 0
0, 0
0, 0
0, 0
0, 0
0, 0
0, 0
0, 0
0, 0
0, 0
0, 1
0, 0
0, 0
0, 1
0, 0
0, 0
0, 0
0, 1
0, 0
0, 0
1, 0
0, 0
0, 0
0, 0
0, 0
0, 0
0, 0
0, 0
0, 0
0, 0
0, 0
0, 0
0, 0
0, 0
0, 0
0, 0
0, 0
0, 0
0, 0
0, 0
0, 0
0, 0
0, 0
0, 0
0, 0
0, 0
0, 0
0, 0
0, 0
0, 0
0, 0
0, 0
0, 0
0, 0
0, 0
0, 0
0, 0
0, 0
0, 0
0, 0
0, 0
0, 0
0, 0
0, 0
0, 0
0, 0
0, 0
0, 0
0, 0
0, 0
0, 0
0, 0
0, 0
0, 0
0, 0
0, 0
0, 0
0, 0
0, 0
0, 0
0, 0
0, 0
0, 0
0, 0
0, 0
0, 0
0, 0
0, 0
0, 0
0, 0
0, 0
0, 0
0, 0
0, 0
0, 0
0, 0
0, 0
0, 0
0, 0
0, 0
0, 0
0, 0
0, 0
0, 0
0, 0
0, 0
0, 0
0, 0
0, 0
0, 0
0, 0
0, 0
0, 0
0, 0
0, 0
0, 0
0, 0
0, 0
0, 0
0, 0
#ENDOFDATA     end of spectrum data