Folder: data-repository/host_upload/06-09-2024/ps_0852/dump3 (part 23)

File: ps__0852shot_2200.msa
#FORMAT      : EMSA/MAS spectral data file
#VERSION     : TC202v2.0 PIXL
#TITLE       : N/A
#DATE        :       Date in the format DD-MMM-YYYY, for example 07-JUL-2010
#TIME        :             The time of day at which the spectrum was recorded, in 24-hour format
#OWNER       : PIXL Flight Model       (PIXL will use this to indicate which instrument took the data.)
#NPOINTS     : 4096     Number of data points in the spectrum (This can be zero for configuration only files)
#NCOLUMNS    : 2     Number of data columns in the spectrum (This can be zero for configuration only files)
#XUNITS      : eV
#YUNITS      : COUNTS
#DATATYPE    : YY
#XPERCHAN    : 7.862, 7.881   eV per channel (separate by commas if more than one detector)
#OFFSET      : 18.5, -22.4         eV of first channel  (separate by commas if more than one detector
#SIGNALTYPE  : XRF
#YP_TEMP     : 2.364
#LIVETIME    : 8.57127, 8.56392   seconds (separate by commas if more than one detector)
#REALTIME    : 10, 10.0   seconds (separate by commas if more than one detector)
#SPECTRUM    : start of spectrum data
0, 0
0, 0
0, 0
0, 0
0, 0
0, 0
0, 0
0, 0
1, 1
2, 1
1, 6
40, 39
71, 52
5, 8
6, 3
78, 105
478, 371
107, 93
2, 2
3, 0
0, 3
6, 0
2, 2
2, 2
25, 29
32, 23
24, 11
4, 15
6, 2
4, 1
1, 4
6, 6
20, 2
17, 13
12, 15
2, 4
3, 8
4, 7
3, 5
5, 8
2, 15
9, 39
16, 9
5, 7
3, 6
3, 3
2, 7
6, 5
5, 9
12, 17
9, 12
6, 9
14, 15
56, 37
82, 48
38, 15
32, 49
470, 614
2293, 2361
1677, 1324
213, 140
24, 16
17, 21
112, 127
327, 346
222, 179
25, 32
7, 9
8, 9
15, 6
7, 1
4, 3
6, 1
8, 8
2, 6
4, 11
6, 3
6, 5
1, 3
7, 11
8, 6
7, 4
15, 2
9, 6
4, 4
7, 8
2, 5
11, 8
5, 2
1, 3
2, 3
4, 1
8, 2
2, 5
4, 5
4, 1
3, 2
5, 4
8, 5
8, 3
2, 4
2, 1
3, 3
4, 1
2, 5
2, 2
5, 2
1, 1
4, 3
6, 2
4, 4
2, 2
1, 2
1, 5
4, 5
1, 2
4, 4
4, 2
4, 0
4, 2
1, 3
3, 4
2, 5
2, 2
2, 1
1, 2
2, 1
0, 0
0, 2
1, 1
1, 0
1, 1
2, 1
1, 0
0, 1
0, 0
0, 2
0, 0
0, 0
0, 1
0, 0
0, 1
0, 1
0, 1
1, 0
0, 0
0, 0
0, 0
0, 1
1, 0
0, 0
1, 0
0, 0
0, 1
1, 0
0, 0
1, 1
0, 1
1, 0
0, 0
0, 0
0, 0
0, 0
0, 1
0, 1
0, 0
0, 3
0, 0
0, 0
0, 0
0, 0
0, 0
1, 0
0, 0
2, 0
0, 1
0, 0
0, 1
0, 0
0, 0
1, 0
0, 0
0, 0
1, 0
1, 0
1, 0
0, 0
1, 0
0, 0
0, 0
1, 0
0, 1
1, 0
0, 0
0, 0
0, 0
0, 0
0, 0
0, 0
1, 0
0, 0
0, 0
0, 0
0, 0
0, 0
0, 1
0, 0
0, 0
0, 0
0, 0
0, 0
0, 0
0, 0
0, 0
0, 0
0, 0
0, 0
0, 0
0, 0
0, 0
0, 0
0, 0
0, 0
0, 0
0, 0
0, 0
0, 0
0, 0
0, 0
0, 0
0, 0
1, 0
0, 0
0, 0
0, 0
0, 0
0, 0
0, 0
0, 0
0, 0
0, 0
0, 0
0, 0
0, 0
0, 0
0, 0
0, 0
0, 0
0, 0
0, 0
0, 0
0, 0
0, 0
0, 0
0, 0
0, 0
0, 0
0, 0
0, 0
0, 0
0, 0
0, 0
0, 0
0, 0
0, 0
0, 0
0, 0
0, 0
0, 0
0, 0
0, 0
0, 0
0, 0
0, 0
0, 0
0, 0
0, 0
0, 0
0, 0
0, 0
0, 0
0, 0
0, 0
0, 0
0, 0
0, 0
0, 0
0, 0
0, 0
0, 0
0, 0
0, 0
0, 0
0, 0
#ENDOFDATA     end of spectrum data

File: ps__0852shot_2201.msa
#FORMAT      : EMSA/MAS spectral data file
#VERSION     : TC202v2.0 PIXL
#TITLE       : N/A
#DATE        :       Date in the format DD-MMM-YYYY, for example 07-JUL-2010
#TIME        :             The time of day at which the spectrum was recorded, in 24-hour format
#OWNER       : PIXL Flight Model       (PIXL will use this to indicate which instrument took the data.)
#NPOINTS     : 4096     Number of data points in the spectrum (This can be zero for configuration only files)
#NCOLUMNS    : 2     Number of data columns in the spectrum (This can be zero for configuration only files)
#XUNITS      : eV
#YUNITS      : COUNTS
#DATATYPE    : YY
#XPERCHAN    : 7.862, 7.881   eV per channel (separate by commas if more than one detector)
#OFFSET      : 18.5, -22.4         eV of first channel  (separate by commas if more than one detector
#SIGNALTYPE  : XRF
#YP_TEMP     : 2.364
#LIVETIME    : 8.5673, 8.53324   seconds (separate by commas if more than one detector)
#REALTIME    : 10, 10.0   seconds (separate by commas if more than one detector)
#SPECTRUM    : start of spectrum data
0, 0
0, 0
0, 0
0, 0
0, 0
0, 0
0, 0
0, 0
0, 1
3, 2
3, 3
51, 57
47, 58
7, 5
5, 8
101, 112
406, 382
92, 83
6, 3
0, 1
0, 1
5, 5
2, 4
6, 7
42, 30
35, 52
21, 19
17, 8
7, 5
2, 2
2, 3
2, 2
2, 0
10, 11
11, 10
6, 7
11, 13
10, 5
6, 4
2, 4
5, 7
36, 9
39, 14
17, 7
2, 3
6, 6
5, 10
7, 10
13, 21
8, 11
10, 8
6, 8
11, 7
39, 47
68, 62
25, 21
25, 40
477, 599
2241, 2402
1499, 1425
215, 154
19, 7
22, 20
85, 109
371, 378
244, 201
32, 21
7, 8
16, 17
9, 11
16, 3
4, 1
4, 6
2, 6
2, 6
8, 11
6, 2
4, 1
6, 4
10, 3
9, 10
4, 2
0, 4
1, 7
3, 1
1, 5
3, 4
4, 3
7, 6
7, 2
4, 2
3, 4
1, 0
2, 4
1, 0
1, 4
4, 4
4, 1
5, 1
1, 1
10, 3
1, 4
1, 6
2, 7
0, 3
5, 1
0, 0
3, 2
3, 3
3, 2
2, 2
2, 3
2, 2
1, 2
1, 2
4, 3
1, 1
5, 2
4, 2
2, 2
2, 0
3, 1
1, 2
2, 1
1, 0
1, 0
0, 0
0, 0
0, 0
0, 1
0, 3
0, 0
0, 1
3, 1
0, 0
1, 2
2, 0
3, 0
0, 0
0, 1
0, 1
0, 1
0, 3
0, 1
0, 0
0, 1
2, 0
1, 0
0, 0
0, 1
1, 0
0, 1
0, 1
0, 0
1, 1
0, 0
1, 1
1, 1
1, 0
3, 0
0, 0
0, 0
0, 0
0, 0
1, 0
0, 0
1, 0
0, 0
0, 0
0, 1
1, 0
0, 0
0, 0
0, 0
0, 0
1, 0
0, 0
0, 0
0, 0
0, 0
0, 0
0, 0
0, 0
1, 0
0, 0
0, 0
0, 0
0, 1
0, 0
0, 0
1, 0
1, 0
0, 0
0, 0
0, 0
0, 0
0, 0
0, 0
0, 0
1, 0
0, 0
0, 0
0, 0
0, 0
0, 0
1, 0
0, 0
0, 0
0, 0
0, 0
1, 0
0, 0
0, 0
0, 0
0, 0
0, 0
0, 0
0, 0
0, 0
0, 0
0, 0
0, 0
0, 0
0, 0
0, 0
0, 0
0, 0
0, 0
0, 0
0, 0
0, 0
0, 0
0, 0
0, 0
0, 0
0, 0
0, 0
0, 0
0, 0
0, 0
0, 0
0, 0
0, 0
0, 0
0, 0
0, 0
0, 0
0, 0
0, 0
0, 0
0, 0
0, 0
0, 0
0, 0
0, 0
0, 0
0, 0
0, 0
0, 0
0, 0
0, 0
0, 0
0, 0
0, 0
0, 0
0, 0
0, 0
0, 0
0, 0
0, 0
0, 0
0, 0
0, 0
0, 0
0, 0
0, 0
0, 0
0, 0
0, 0
0, 0
0, 0
0, 0
0, 0
0, 0
0, 0
0, 0
0, 0
0, 0
0, 0
0, 0
0, 0
0, 0
0, 0
0, 0
#ENDOFDATA     end of spectrum data

File: ps__0852shot_2202.msa
#FORMAT      : EMSA/MAS spectral data file
#VERSION     : TC202v2.0 PIXL
#TITLE       : N/A
#DATE        :       Date in the format DD-MMM-YYYY, for example 07-JUL-2010
#TIME        :             The time of day at which the spectrum was recorded, in 24-hour format
#OWNER       : PIXL Flight Model       (PIXL will use this to indicate which instrument took the data.)
#NPOINTS     : 4096     Number of data points in the spectrum (This can be zero for configuration only files)
#NCOLUMNS    : 2     Number of data columns in the spectrum (This can be zero for configuration only files)
#XUNITS      : eV
#YUNITS      : COUNTS
#DATATYPE    : YY
#XPERCHAN    : 7.862, 7.881   eV per channel (separate by commas if more than one detector)
#OFFSET      : 18.5, -22.4         eV of first channel  (separate by commas if more than one detector
#SIGNALTYPE  : XRF
#YP_TEMP     : 2.332
#LIVETIME    : 8.56574, 8.56187   seconds (separate by commas if more than one detector)
#REALTIME    : 10, 10.0   seconds (separate by commas if more than one detector)
#SPECTRUM    : start of spectrum data
0, 0
0, 0
0, 0
0, 0
0, 0
0, 0
0, 0
0, 0
0, 0
0, 0
1, 3
46, 51
51, 83
7, 4
7, 3
96, 109
434, 425
123, 106
6, 6
2, 0
1, 0
2, 4
3, 2
4, 7
17, 22
41, 18
21, 16
18, 14
4, 1
3, 2
2, 2
3, 1
2, 4
10, 9
19, 11
3, 4
21, 8
17, 5
3, 2
1, 1
24, 3
141, 13
125, 11
20, 8
8, 6
5, 5
6, 10
5, 8
6, 9
8, 10
7, 17
11, 16
6, 15
28, 47
52, 52
18, 23
42, 38
462, 597
2240, 2342
1693, 1410
216, 199
19, 58
16, 40
102, 124
325, 353
216, 202
44, 21
34, 7
19, 12
8, 4
2, 7
3, 5
4, 9
4, 11
5, 7
4, 3
6, 3
4, 3
4, 3
6, 7
4, 3
6, 8
5, 6
4, 4
4, 3
3, 3
3, 9
3, 7
2, 3
1, 1
5, 2
3, 2
4, 3
3, 4
4, 3
4, 3
0, 4
2, 2
1, 4
0, 6
3, 4
0, 1
1, 1
0, 3
4, 2
2, 2
2, 1
2, 1
3, 4
3, 4
1, 2
0, 3
3, 3
3, 1
2, 3
5, 2
2, 9
2, 3
1, 0
0, 0
2, 1
1, 1
2, 0
2, 0
0, 0
4, 0
2, 0
1, 0
1, 2
2, 2
2, 1
3, 0
0, 1
3, 1
1, 1
2, 0
1, 2
0, 0
1, 0
2, 0
0, 1
0, 2
0, 1
0, 0
1, 1
0, 1
0, 0
1, 0
2, 0
0, 0
0, 1
0, 0
0, 1
0, 0
2, 0
0, 0
0, 0
1, 1
0, 0
1, 0
1, 2
0, 0
1, 0
0, 0
0, 0
0, 1
0, 0
0, 1
0, 0
0, 0
0, 0
0, 1
0, 0
0, 0
0, 0
0, 2
0, 0
0, 0
0, 0
0, 0
0, 0
0, 0
1, 0
0, 0
0, 0
0, 0
0, 0
0, 0
0, 0
0, 0
0, 0
0, 0
0, 1
0, 0
0, 0
0, 0
0, 0
0, 0
0, 0
0, 0
0, 0
0, 0
1, 0
0, 0
0, 0
0, 0
0, 0
0, 0
0, 0
0, 1
0, 0
0, 0
0, 0
0, 0
0, 0
0, 0
0, 0
0, 0
0, 0
0, 0
0, 0
0, 0
0, 0
0, 0
0, 0
0, 0
0, 0
0, 0
0, 0
0, 0
0, 0
0, 0
0, 0
0, 0
0, 0
0, 0
0, 0
0, 0
0, 0
0, 0
0, 0
0, 0
0, 0
0, 0
0, 0
0, 0
0, 0
0, 0
0, 0
0, 0
0, 0
0, 0
0, 0
0, 0
0, 0
0, 0
0, 0
0, 0
0, 0
0, 0
0, 0
0, 0
0, 0
0, 0
0, 0
0, 0
0, 0
0, 0
0, 0
0, 0
0, 0
0, 0
0, 0
0, 0
0, 0
0, 0
0, 0
0, 0
0, 0
0, 0
0, 0
0, 0
0, 0
0, 0
0, 0
0, 0
0, 0
0, 0
0, 0
0, 0
0, 0
0, 0
0, 0
0, 0
#ENDOFDATA     end of spectrum data

File: ps__0852shot_2203.msa
#FORMAT      : EMSA/MAS spectral data file
#VERSION     : TC202v2.0 PIXL
#TITLE       : N/A
#DATE        :       Date in the format DD-MMM-YYYY, for example 07-JUL-2010
#TIME        :             The time of day at which the spectrum was recorded, in 24-hour format
#OWNER       : PIXL Flight Model       (PIXL will use this to indicate which instrument took the data.)
#NPOINTS     : 4096     Number of data points in the spectrum (This can be zero for configuration only files)
#NCOLUMNS    : 2     Number of data columns in the spectrum (This can be zero for configuration only files)
#XUNITS      : eV
#YUNITS      : COUNTS
#DATATYPE    : YY
#XPERCHAN    : 7.862, 7.881   eV per channel (separate by commas if more than one detector)
#OFFSET      : 18.5, -22.4         eV of first channel  (separate by commas if more than one detector
#SIGNALTYPE  : XRF
#YP_TEMP     : 2.139
#LIVETIME    : 8.57205, 8.55744   seconds (separate by commas if more than one detector)
#REALTIME    : 10, 10.0   seconds (separate by commas if more than one detector)
#SPECTRUM    : start of spectrum data
0, 0
0, 0
0, 0
0, 0
0, 0
0, 0
0, 0
0, 0
0, 0
1, 2
5, 7
46, 57
63, 68
6, 2
2, 3
87, 108
408, 419
131, 104
4, 2
4, 2
2, 2
4, 2
3, 2
7, 7
26, 38
47, 42
16, 40
10, 15
1, 3
2, 5
1, 2
3, 3
4, 5
10, 4
14, 11
6, 8
16, 4
14, 4
1, 4
3, 2
22, 8
108, 14
76, 14
13, 14
6, 7
6, 13
5, 10
2, 10
11, 9
13, 14
16, 34
8, 47
5, 39
43, 57
61, 71
29, 27
38, 61
460, 628
2194, 2394
1588, 1420
208, 156
22, 62
21, 38
90, 139
362, 381
230, 215
27, 16
12, 10
16, 17
8, 8
4, 2
4, 2
7, 8
8, 9
9, 7
5, 7
7, 5
2, 7
2, 5
6, 5
1, 2
14, 3
9, 2
8, 4
5, 4
9, 7
8, 7
2, 7
1, 1
5, 0
5, 5
1, 1
0, 5
4, 5
6, 3
1, 3
2, 2
3, 8
4, 3
1, 4
1, 3
4, 1
3, 3
3, 0
1, 1
3, 1
1, 7
3, 3
3, 1
2, 2
1, 1
0, 2
1, 1
0, 2
4, 4
1, 2
5, 13
4, 2
3, 3
1, 2
0, 2
1, 1
0, 2
1, 2
0, 3
3, 1
0, 1
0, 2
0, 1
3, 0
3, 0
2, 1
2, 3
1, 2
1, 0
0, 0
0, 1
0, 1
1, 0
0, 1
0, 0
1, 1
0, 0
0, 0
0, 2
1, 0
2, 0
0, 2
0, 0
0, 0
0, 0
2, 0
1, 0
0, 0
1, 0
1, 0
1, 1
0, 0
0, 0
0, 1
0, 0
1, 2
0, 0
0, 0
1, 2
0, 1
0, 0
0, 0
0, 0
0, 0
0, 0
1, 0
1, 1
1, 1
0, 0
1, 0
0, 0
0, 0
0, 0
0, 0
0, 2
0, 0
0, 0
0, 0
0, 0
0, 0
0, 0
0, 1
0, 0
0, 0
0, 0
0, 0
0, 0
0, 0
0, 0
0, 0
0, 0
0, 0
0, 0
0, 0
0, 0
0, 0
0, 0
0, 0
0, 0
0, 0
0, 0
1, 0
0, 1
0, 0
0, 0
0, 0
0, 0
0, 0
0, 0
0, 0
0, 0
0, 0
0, 0
0, 0
0, 0
0, 0
0, 0
0, 0
0, 0
0, 0
0, 0
0, 0
0, 0
0, 0
0, 0
0, 0
0, 0
0, 0
0, 0
0, 0
0, 0
0, 0
0, 0
0, 0
0, 0
0, 0
0, 0
0, 0
0, 0
0, 0
0, 0
0, 0
0, 0
0, 0
0, 0
0, 0
0, 0
0, 0
0, 0
0, 0
0, 0
0, 0
0, 0
0, 0
0, 0
0, 0
0, 0
0, 0
0, 0
0, 0
0, 0
0, 0
0, 0
0, 0
0, 0
0, 0
0, 0
0, 0
0, 0
0, 0
0, 0
0, 0
0, 0
0, 0
0, 0
0, 0
0, 0
0, 0
0, 0
0, 0
0, 0
0, 0
0, 0
0, 0
0, 0
0, 0
0, 0
0, 0
#ENDOFDATA     end of spectrum data

File: ps__0852shot_2204.msa
#FORMAT      : EMSA/MAS spectral data file
#VERSION     : TC202v2.0 PIXL
#TITLE       : N/A
#DATE        :       Date in the format DD-MMM-YYYY, for example 07-JUL-2010
#TIME        :             The time of day at which the spectrum was recorded, in 24-hour format
#OWNER       : PIXL Flight Model       (PIXL will use this to indicate which instrument took the data.)
#NPOINTS     : 4096     Number of data points in the spectrum (This can be zero for configuration only files)
#NCOLUMNS    : 2     Number of data columns in the spectrum (This can be zero for configuration only files)
#XUNITS      : eV
#YUNITS      : COUNTS
#DATATYPE    : YY
#XPERCHAN    : 7.862, 7.881   eV per channel (separate by commas if more than one detector)
#OFFSET      : 18.5, -22.4         eV of first channel  (separate by commas if more than one detector
#SIGNALTYPE  : XRF
#YP_TEMP     : 2.267
#LIVETIME    : 8.57022, 8.56093   seconds (separate by commas if more than one detector)
#REALTIME    : 10, 10.0   seconds (separate by commas if more than one detector)
#SPECTRUM    : start of spectrum data
0, 0
0, 0
0, 0
0, 0
0, 0
0, 0
0, 0
0, 0
1, 0
2, 2
4, 4
41, 39
58, 70
7, 10
6, 4
91, 108
447, 422
112, 114
9, 5
9, 2
2, 1
1, 2
0, 2
8, 24
38, 59
64, 84
27, 28
17, 13
5, 4
4, 5
10, 11
6, 9
3, 7
18, 10
26, 23
6, 4
7, 4
5, 4
4, 2
4, 3
5, 3
21, 13
23, 20
17, 9
6, 6
10, 4
7, 15
6, 21
15, 8
14, 15
14, 18
21, 17
9, 24
45, 56
52, 48
22, 16
57, 48
469, 581
2176, 2297
1628, 1385
232, 163
31, 22
21, 24
108, 114
359, 362
213, 195
32, 23
2, 6
11, 20
10, 8
3, 3
4, 3
4, 4
7, 4
10, 4
15, 2
11, 8
6, 9
0, 11
7, 4
3, 4
9, 1
14, 3
10, 4
1, 5
6, 2
3, 8
8, 3
4, 8
2, 3
1, 1
3, 6
2, 14
2, 22
2, 9
2, 3
7, 2
4, 0
4, 1
6, 3
2, 4
3, 2
1, 1
4, 1
3, 3
3, 2
4, 0
4, 2
1, 5
0, 2
1, 3
2, 1
0, 2
3, 0
2, 0
8, 0
2, 2
2, 3
3, 1
1, 3
1, 1
2, 1
1, 3
1, 1
2, 4
0, 0
2, 3
1, 0
1, 4
1, 1
0, 1
1, 1
1, 2
2, 2
1, 0
1, 0
1, 0
1, 1
0, 0
0, 1
3, 0
0, 0
0, 0
0, 0
0, 1
0, 1
2, 2
0, 0
1, 0
0, 0
0, 0
0, 0
1, 1
0, 0
1, 0
0, 2
0, 0
0, 0
0, 0
0, 0
0, 1
0, 0
0, 0
0, 0
0, 1
0, 1
2, 0
0, 3
1, 0
1, 0
0, 0
0, 0
1, 0
1, 1
0, 0
0, 0
0, 0
1, 0
0, 0
0, 0
0, 0
0, 0
0, 0
0, 0
0, 0
0, 0
0, 0
1, 0
0, 1
0, 0
0, 0
0, 0
0, 0
0, 0
0, 0
0, 0
0, 0
0, 0
0, 0
0, 0
0, 0
0, 0
0, 0
0, 0
0, 0
0, 0
0, 0
0, 0
0, 0
0, 0
0, 0
0, 0
0, 0
0, 0
0, 0
0, 0
0, 0
0, 0
0, 0
0, 0
0, 0
0, 0
0, 0
0, 0
0, 0
0, 0
0, 0
0, 0
0, 0
0, 0
0, 0
0, 0
0, 0
0, 0
0, 0
0, 0
0, 0
0, 0
0, 0
0, 0
0, 0
0, 0
0, 0
0, 0
0, 0
0, 0
0, 0
0, 0
0, 0
0, 0
0, 0
0, 0
0, 0
0, 0
0, 0
0, 0
0, 0
0, 0
0, 0
0, 0
0, 0
0, 0
0, 0
0, 0
0, 0
0, 0
0, 0
0, 0
0, 0
0, 0
0, 0
0, 0
0, 0
0, 0
0, 0
0, 0
0, 0
0, 0
0, 0
0, 0
0, 0
0, 0
0, 0
0, 0
0, 0
0, 0
0, 0
0, 0
0, 0
0, 0
0, 0
0, 0
0, 0
0, 0
#ENDOFDATA     end of spectrum data

File: ps__0852shot_2205.msa
#FORMAT      : EMSA/MAS spectral data file
#VERSION     : TC202v2.0 PIXL
#TITLE       : N/A
#DATE        :       Date in the format DD-MMM-YYYY, for example 07-JUL-2010
#TIME        :             The time of day at which the spectrum was recorded, in 24-hour format
#OWNER       : PIXL Flight Model       (PIXL will use this to indicate which instrument took the data.)
#NPOINTS     : 4096     Number of data points in the spectrum (This can be zero for configuration only files)
#NCOLUMNS    : 2     Number of data columns in the spectrum (This can be zero for configuration only files)
#XUNITS      : eV
#YUNITS      : COUNTS
#DATATYPE    : YY
#XPERCHAN    : 7.862, 7.881   eV per channel (separate by commas if more than one detector)
#OFFSET      : 18.5, -22.4         eV of first channel  (separate by commas if more than one detector
#SIGNALTYPE  : XRF
#YP_TEMP     : 2.171
#LIVETIME    : 8.5714, 8.55513   seconds (separate by commas if more than one detector)
#REALTIME    : 10, 10.0   seconds (separate by commas if more than one detector)
#SPECTRUM    : start of spectrum data
0, 0
0, 0
0, 0
0, 0
0, 0
0, 0
0, 0
0, 0
1, 1
4, 3
1, 4
31, 42
50, 61
1, 6
2, 11
96, 94
416, 458
106, 79
7, 7
3, 2
1, 1
5, 8
2, 32
5, 30
33, 36
43, 59
24, 26
8, 19
5, 7
1, 6
1, 3
2, 3
4, 2
30, 29
56, 61
16, 10
4, 13
6, 11
6, 4
5, 2
5, 3
8, 17
17, 20
12, 13
5, 6
6, 23
10, 20
9, 12
10, 14
18, 21
21, 14
7, 11
15, 12
31, 46
45, 62
20, 20
36, 35
441, 592
2082, 2352
1521, 1459
184, 137
33, 13
38, 27
97, 116
307, 348
201, 195
32, 29
10, 6
18, 7
8, 5
2, 4
3, 2
2, 5
6, 3
5, 5
10, 6
2, 4
2, 6
4, 1
3, 4
7, 4
7, 4
8, 4
8, 3
8, 2
2, 2
2, 4
5, 5
17, 5
8, 3
6, 3
2, 6
2, 6
2, 10
2, 1
2, 8
2, 6
1, 4
6, 4
4, 1
2, 1
4, 3
3, 1
2, 2
4, 3
2, 2
0, 0
4, 1
2, 0
3, 0
4, 2
3, 1
0, 3
1, 3
1, 3
5, 1
2, 3
0, 4
1, 2
4, 2
3, 2
1, 1
1, 1
1, 4
1, 4
3, 2
2, 1
0, 3
0, 0
1, 2
0, 0
0, 3
1, 0
0, 0
1, 0
1, 1
2, 1
0, 2
0, 0
1, 1
1, 0
0, 1
0, 1
0, 0
0, 0
0, 0
0, 0
1, 0
1, 0
0, 1
0, 2
0, 0
0, 0
0, 1
0, 0
1, 0
0, 2
0, 0
1, 0
1, 0
0, 0
0, 0
0, 0
0, 1
0, 0
0, 0
0, 0
0, 0
0, 0
0, 0
0, 0
1, 0
0, 1
0, 2
0, 0
0, 0
0, 0
1, 0
0, 0
0, 0
0, 0
0, 0
0, 0
0, 1
0, 0
0, 1
0, 1
0, 0
0, 0
0, 0
0, 0
0, 0
0, 0
0, 0
0, 0
0, 0
0, 0
0, 0
0, 0
0, 1
0, 0
0, 0
0, 0
0, 0
0, 0
0, 0
0, 0
0, 0
0, 0
0, 0
0, 0
0, 0
0, 0
1, 0
0, 0
0, 0
0, 0
0, 0
0, 0
0, 0
0, 0
0, 0
0, 0
0, 0
0, 0
0, 0
0, 0
0, 0
0, 0
0, 0
0, 0
0, 0
0, 0
0, 0
0, 0
0, 0
0, 0
0, 0
0, 0
0, 0
0, 0
0, 0
0, 0
0, 0
0, 0
0, 0
0, 0
0, 0
0, 0
0, 0
0, 0
0, 0
0, 0
0, 0
0, 0
0, 0
0, 0
0, 0
0, 0
0, 0
0, 0
0, 0
0, 0
0, 0
0, 0
0, 0
0, 0
0, 0
0, 0
0, 0
0, 0
0, 0
0, 0
0, 0
0, 0
0, 0
0, 0
0, 0
0, 0
0, 0
0, 0
0, 0
0, 0
0, 0
0, 0
0, 0
0, 0
0, 0
0, 0
0, 0
0, 0
0, 0
0, 0
0, 0
#ENDOFDATA     end of spectrum data

File: ps__0852shot_2206.msa
#FORMAT      : EMSA/MAS spectral data file
#VERSION     : TC202v2.0 PIXL
#TITLE       : N/A
#DATE        :       Date in the format DD-MMM-YYYY, for example 07-JUL-2010
#TIME        :             The time of day at which the spectrum was recorded, in 24-hour format
#OWNER       : PIXL Flight Model       (PIXL will use this to indicate which instrument took the data.)
#NPOINTS     : 4096     Number of data points in the spectrum (This can be zero for configuration only files)
#NCOLUMNS    : 2     Number of data columns in the spectrum (This can be zero for configuration only files)
#XUNITS      : eV
#YUNITS      : COUNTS
#DATATYPE    : YY
#XPERCHAN    : 7.862, 7.881   eV per channel (separate by commas if more than one detector)
#OFFSET      : 18.5, -22.4         eV of first channel  (separate by commas if more than one detector
#SIGNALTYPE  : XRF
#YP_TEMP     : 2.107
#LIVETIME    : 8.57396, 8.5616   seconds (separate by commas if more than one detector)
#REALTIME    : 10, 10.0   seconds (separate by commas if more than one detector)
#SPECTRUM    : start of spectrum data
0, 0
0, 0
0, 0
0, 0
0, 0
0, 0
0, 0
0, 1
2, 2
0, 3
2, 1
35, 50
52, 61
8, 4
4, 7
80, 124
386, 434
85, 98
4, 11
5, 1
8, 5
8, 6
3, 14
17, 35
34, 55
62, 34
19, 37
10, 18
3, 3
1, 2
1, 4
1, 2
4, 4
57, 71
75, 87
12, 11
13, 14
12, 20
12, 1
4, 2
6, 7
6, 6
15, 23
6, 16
6, 5
2, 15
3, 23
2, 17
7, 9
27, 16
37, 16
20, 13
13, 15
34, 46
74, 67
31, 22
22, 67
425, 686
1912, 2479
1413, 1431
164, 155
26, 15
33, 20
87, 130
305, 349
193, 209
36, 20
7, 11
18, 35
18, 16
4, 3
2, 3
4, 1
3, 6
6, 1
6, 6
1, 4
4, 4
3, 8
2, 3
4, 7
10, 10
8, 8
16, 10
5, 6
2, 2
2, 0
4, 4
3, 5
6, 3
1, 2
2, 1
5, 2
1, 0
0, 5
2, 4
2, 6
6, 2
2, 0
1, 3
8, 0
1, 5
2, 4
0, 2
2, 3
3, 4
1, 5
2, 1
2, 1
3, 4
2, 1
3, 0
2, 4
0, 3
2, 2
2, 5
2, 5
1, 3
1, 3
1, 0
6, 0
2, 3
0, 4
0, 2
4, 2
0, 2
2, 1
1, 1
1, 0
0, 2
0, 1
1, 1
2, 1
1, 1
2, 1
0, 0
2, 0
1, 2
0, 0
0, 1
0, 1
0, 0
0, 1
0, 1
1, 0
0, 1
2, 0
0, 0
1, 1
1, 1
0, 1
0, 0
0, 0
0, 0
0, 0
0, 0
0, 0
0, 0
1, 1
0, 1
1, 0
1, 0
1, 0
0, 0
0, 0
0, 0
1, 1
0, 0
1, 0
0, 0
0, 1
0, 0
0, 1
0, 0
0, 2
0, 0
0, 0
0, 0
0, 0
0, 0
0, 0
0, 0
0, 0
0, 0
0, 0
0, 0
0, 0
0, 0
0, 0
0, 0
0, 0
0, 0
0, 0
1, 0
0, 0
0, 0
0, 0
0, 0
0, 0
0, 0
0, 0
0, 0
0, 0
0, 0
0, 0
0, 0
0, 0
0, 0
0, 0
0, 0
0, 0
0, 0
0, 1
0, 0
0, 0
0, 0
0, 0
0, 0
0, 0
0, 0
0, 0
0, 0
0, 0
0, 0
0, 0
0, 0
0, 0
0, 0
0, 0
0, 0
0, 0
0, 0
0, 0
0, 0
0, 0
0, 0
0, 0
0, 0
0, 0
0, 0
0, 0
0, 0
0, 0
0, 0
0, 0
0, 0
0, 0
0, 0
0, 0
0, 0
0, 0
0, 0
0, 0
0, 0
0, 0
0, 0
0, 0
0, 0
0, 0
0, 0
0, 0
0, 0
0, 0
0, 0
0, 0
0, 0
0, 0
0, 0
0, 0
0, 0
0, 0
0, 0
0, 0
0, 0
0, 0
0, 0
0, 0
0, 0
0, 0
0, 0
0, 0
0, 0
0, 0
0, 0
0, 0
0, 0
0, 0
0, 0
0, 0
0, 0
0, 0
0, 0
0, 0
0, 0
#ENDOFDATA     end of spectrum data

File: ps__0852shot_2207.msa
#FORMAT      : EMSA/MAS spectral data file
#VERSION     : TC202v2.0 PIXL
#TITLE       : N/A
#DATE        :       Date in the format DD-MMM-YYYY, for example 07-JUL-2010
#TIME        :             The time of day at which the spectrum was recorded, in 24-hour format
#OWNER       : PIXL Flight Model       (PIXL will use this to indicate which instrument took the data.)
#NPOINTS     : 4096     Number of data points in the spectrum (This can be zero for configuration only files)
#NCOLUMNS    : 2     Number of data columns in the spectrum (This can be zero for configuration only files)
#XUNITS      : eV
#YUNITS      : COUNTS
#DATATYPE    : YY
#XPERCHAN    : 7.862, 7.881   eV per channel (separate by commas if more than one detector)
#OFFSET      : 18.5, -22.4         eV of first channel  (separate by commas if more than one detector
#SIGNALTYPE  : XRF
#YP_TEMP     : 2.396
#LIVETIME    : 8.56201, 8.56683   seconds (separate by commas if more than one detector)
#REALTIME    : 10, 10.0   seconds (separate by commas if more than one detector)
#SPECTRUM    : start of spectrum data
0, 0
0, 0
0, 0
0, 0
0, 0
0, 0
0, 0
0, 0
1, 1
3, 2
4, 2
41, 42
55, 62
10, 5
3, 7
121, 83
462, 452
121, 107
6, 5
5, 0
9, 1
17, 8
2, 1
18, 9
57, 49
34, 35
19, 19
13, 12
4, 2
5, 3
3, 1
1, 1
2, 1
23, 19
31, 31
5, 5
3, 2
5, 9
7, 3
8, 7
3, 8
8, 8
11, 13
8, 11
11, 2
18, 10
16, 2
11, 1
8, 13
21, 23
36, 12
22, 9
13, 16
38, 50
69, 62
30, 23
29, 59
473, 680
2061, 2411
1627, 1408
202, 146
24, 17
22, 11
111, 126
327, 361
216, 176
31, 23
13, 12
23, 10
21, 12
15, 3
2, 4
5, 6
11, 8
10, 8
4, 4
5, 2
3, 4
5, 3
7, 3
2, 4
16, 18
21, 19
21, 10
7, 3
5, 1
5, 1
2, 4
1, 4
5, 6
4, 4
3, 1
5, 5
2, 4
3, 2
5, 6
8, 3
0, 2
2, 3
3, 4
4, 2
4, 3
5, 2
2, 3
3, 4
2, 4
1, 4
1, 4
1, 3
3, 2
0, 1
1, 1
2, 0
2, 3
1, 2
1, 3
2, 8
3, 1
2, 3
0, 0
5, 1
0, 5
1, 7
3, 1
1, 1
1, 2
1, 3
1, 2
1, 0
2, 1
1, 1
1, 1
0, 2
0, 0
0, 3
0, 1
0, 0
0, 1
0, 2
0, 1
1, 0
0, 0
4, 1
0, 0
0, 1
0, 0
3, 0
0, 1
0, 0
0, 0
0, 1
0, 1
2, 0
1, 2
0, 0
0, 0
0, 0
1, 0
1, 0
1, 0
1, 0
0, 1
0, 1
0, 0
2, 0
0, 0
0, 1
0, 0
0, 0
0, 0
0, 0
0, 0
0, 0
0, 0
0, 0
0, 0
0, 0
0, 0
0, 0
0, 0
1, 0
0, 0
0, 1
0, 0
2, 0
0, 0
0, 0
0, 0
0, 0
0, 0
0, 0
0, 1
0, 0
0, 0
0, 0
0, 0
0, 0
0, 0
0, 0
0, 0
0, 0
0, 0
0, 0
0, 0
0, 0
0, 0
0, 0
0, 0
0, 0
0, 0
0, 0
0, 0
0, 0
0, 0
0, 0
0, 0
0, 0
0, 0
0, 0
0, 0
0, 0
0, 0
0, 0
0, 0
0, 0
0, 0
0, 0
0, 0
0, 0
0, 0
0, 0
0, 0
0, 0
0, 0
0, 0
0, 0
0, 0
0, 0
0, 0
0, 0
0, 0
0, 0
0, 0
0, 0
0, 0
0, 0
0, 0
0, 0
0, 0
0, 0
0, 0
0, 0
0, 0
0, 0
0, 0
0, 0
0, 0
0, 0
0, 0
0, 0
0, 0
0, 0
0, 0
0, 0
0, 0
0, 0
0, 0
0, 0
0, 0
0, 0
0, 0
0, 0
0, 0
0, 0
0, 0
0, 0
0, 0
0, 0
0, 0
0, 0
0, 0
0, 0
0, 0
0, 0
0, 0
0, 0
0, 0
0, 0
0, 0
0, 0
0, 0
0, 0
0, 0
0, 0
#ENDOFDATA     end of spectrum data

File: ps__0852shot_2208.msa
#FORMAT      : EMSA/MAS spectral data file
#VERSION     : TC202v2.0 PIXL
#TITLE       : N/A
#DATE        :       Date in the format DD-MMM-YYYY, for example 07-JUL-2010
#TIME        :             The time of day at which the spectrum was recorded, in 24-hour format
#OWNER       : PIXL Flight Model       (PIXL will use this to indicate which instrument took the data.)
#NPOINTS     : 4096     Number of data points in the spectrum (This can be zero for configuration only files)
#NCOLUMNS    : 2     Number of data columns in the spectrum (This can be zero for configuration only files)
#XUNITS      : eV
#YUNITS      : COUNTS
#DATATYPE    : YY
#XPERCHAN    : 7.862, 7.881   eV per channel (separate by commas if more than one detector)
#OFFSET      : 18.5, -22.4         eV of first channel  (separate by commas if more than one detector
#SIGNALTYPE  : XRF
#YP_TEMP     : 2.139
#LIVETIME    : 8.55188, 8.58082   seconds (separate by commas if more than one detector)
#REALTIME    : 10, 10.0   seconds (separate by commas if more than one detector)
#SPECTRUM    : start of spectrum data
0, 0
0, 0
0, 0
0, 0
0, 0
0, 0
0, 0
0, 0
1, 0
0, 3
2, 3
46, 37
84, 41
6, 12
10, 5
105, 83
445, 429
117, 97
9, 9
4, 4
8, 1
20, 2
6, 1
8, 11
39, 43
55, 31
24, 19
19, 3
5, 4
4, 0
3, 4
4, 0
1, 5
16, 28
28, 26
9, 5
5, 7
5, 10
8, 8
10, 0
15, 3
13, 9
17, 9
9, 10
12, 5
46, 14
37, 11
9, 8
7, 11
17, 48
10, 36
8, 10
22, 12
61, 40
68, 49
23, 16
26, 53
486, 649
2266, 2363
1617, 1416
217, 152
17, 17
32, 12
91, 103
341, 322
224, 177
38, 20
19, 8
35, 14
41, 8
8, 3
4, 5
7, 5
4, 1
4, 6
6, 4
5, 2
3, 4
3, 7
3, 6
3, 5
4, 9
4, 7
6, 5
9, 3
3, 5
7, 4
0, 5
3, 5
7, 7
5, 4
6, 2
7, 2
3, 5
4, 2
2, 2
2, 3
3, 3
3, 8
2, 4
2, 3
2, 1
4, 2
1, 1
3, 0
1, 1
3, 1
2, 3
0, 2
3, 1
4, 2
2, 0
3, 0
3, 2
0, 1
2, 2
1, 3
7, 2
1, 6
2, 2
3, 0
2, 4
2, 1
1, 2
1, 1
2, 1
1, 2
2, 1
1, 0
0, 0
0, 0
1, 0
1, 1
1, 1
0, 3
1, 0
0, 1
2, 1
0, 0
2, 0
0, 1
0, 1
0, 0
0, 0
0, 0
1, 1
0, 1
0, 0
0, 0
0, 0
0, 1
0, 1
2, 0
0, 2
0, 0
0, 1
1, 0
1, 1
0, 0
1, 0
0, 0
0, 0
0, 0
1, 1
0, 0
1, 0
0, 0
0, 1
0, 1
1, 0
2, 0
0, 0
0, 0
0, 0
0, 0
0, 0
0, 0
0, 0
0, 1
0, 0
0, 0
1, 0
0, 0
0, 0
0, 1
1, 0
1, 0
0, 0
0, 1
1, 0
0, 0
0, 0
0, 0
0, 0
0, 0
0, 0
0, 0
0, 0
0, 0
0, 1
0, 0
0, 0
0, 0
0, 0
0, 0
0, 0
1, 0
0, 0
0, 0
0, 0
0, 0
0, 0
0, 0
0, 0
0, 0
0, 0
0, 0
0, 0
0, 0
0, 0
0, 0
0, 0
0, 0
0, 0
0, 0
0, 0
0, 0
0, 0
0, 0
0, 0
0, 0
0, 0
0, 0
0, 0
0, 0
0, 0
0, 0
0, 0
0, 0
0, 0
0, 0
0, 0
0, 0
0, 0
0, 0
0, 0
0, 0
0, 0
0, 0
0, 0
0, 0
0, 0
0, 0
0, 0
0, 0
0, 0
0, 0
0, 0
0, 0
0, 0
0, 0
0, 0
0, 0
0, 0
0, 0
0, 0
0, 0
0, 0
0, 0
0, 0
0, 0
0, 0
0, 0
0, 0
0, 0
0, 0
0, 0
0, 0
0, 0
0, 0
0, 0
0, 0
0, 0
0, 0
0, 0
0, 0
0, 0
0, 0
0, 0
0, 0
0, 0
0, 0
0, 0
0, 0
#ENDOFDATA     end of spectrum data