Folder: data-repository/host_upload/06-09-2024/ps_0852/dump3 (part 2)

File: ps__0852shot_2009.msa
#FORMAT      : EMSA/MAS spectral data file
#VERSION     : TC202v2.0 PIXL
#TITLE       : N/A
#DATE        :       Date in the format DD-MMM-YYYY, for example 07-JUL-2010
#TIME        :             The time of day at which the spectrum was recorded, in 24-hour format
#OWNER       : PIXL Flight Model       (PIXL will use this to indicate which instrument took the data.)
#NPOINTS     : 4096     Number of data points in the spectrum (This can be zero for configuration only files)
#NCOLUMNS    : 2     Number of data columns in the spectrum (This can be zero for configuration only files)
#XUNITS      : eV
#YUNITS      : COUNTS
#DATATYPE    : YY
#XPERCHAN    : 7.862, 7.881   eV per channel (separate by commas if more than one detector)
#OFFSET      : 18.5, -22.4         eV of first channel  (separate by commas if more than one detector
#SIGNALTYPE  : XRF
#YP_TEMP     : 2.492
#LIVETIME    : 8.55941, 8.54072   seconds (separate by commas if more than one detector)
#REALTIME    : 10, 10.0   seconds (separate by commas if more than one detector)
#SPECTRUM    : start of spectrum data
0, 0
0, 0
0, 0
0, 0
0, 0
0, 0
0, 0
0, 0
0, 3
1, 3
2, 4
37, 33
63, 50
7, 6
8, 4
91, 91
387, 380
100, 90
7, 7
4, 1
12, 15
63, 66
17, 31
9, 6
38, 40
46, 34
87, 28
96, 11
13, 6
1, 5
4, 1
4, 2
3, 5
12, 15
16, 10
7, 2
6, 4
8, 6
22, 4
13, 0
7, 1
7, 8
12, 12
12, 21
6, 15
8, 10
4, 4
3, 8
7, 10
13, 18
25, 14
34, 5
61, 8
67, 41
73, 59
32, 23
40, 28
464, 603
2056, 2267
1583, 1415
227, 146
11, 22
16, 23
95, 123
316, 358
229, 184
35, 27
11, 9
17, 11
9, 7
3, 2
3, 3
1, 1
2, 3
9, 7
11, 3
14, 7
12, 11
6, 17
14, 14
3, 5
3, 3
2, 5
4, 2
1, 4
3, 7
2, 5
4, 6
4, 5
2, 3
3, 3
3, 2
3, 5
10, 4
6, 6
3, 3
1, 2
2, 4
6, 5
0, 5
5, 3
1, 2
2, 1
3, 3
2, 3
1, 2
5, 3
2, 1
0, 4
3, 4
2, 4
1, 1
3, 1
2, 1
2, 2
8, 2
5, 2
7, 2
1, 0
2, 1
2, 3
1, 1
2, 0
1, 4
3, 1
0, 0
2, 1
0, 1
1, 1
0, 3
1, 0
1, 1
0, 1
2, 1
2, 0
2, 1
1, 3
0, 1
1, 4
1, 0
2, 0
0, 1
0, 1
1, 3
0, 1
0, 0
0, 1
0, 2
0, 1
0, 0
0, 1
0, 0
0, 0
0, 0
0, 0
1, 1
1, 0
0, 1
0, 0
0, 0
0, 0
0, 0
1, 0
0, 0
1, 0
1, 0
0, 0
0, 1
0, 0
0, 0
1, 0
0, 0
0, 0
0, 0
0, 0
0, 0
0, 0
0, 0
0, 0
0, 0
0, 0
1, 0
0, 0
0, 1
1, 0
0, 0
0, 0
0, 1
0, 0
0, 0
0, 0
0, 0
0, 0
0, 1
1, 0
0, 0
0, 1
0, 0
0, 0
1, 0
0, 0
0, 0
0, 0
0, 0
0, 0
0, 0
0, 0
0, 0
0, 0
0, 0
0, 0
0, 0
0, 0
0, 0
0, 0
0, 0
0, 0
0, 0
0, 0
0, 0
0, 0
0, 0
0, 0
0, 0
0, 0
0, 0
0, 0
0, 0
0, 0
0, 0
0, 0
0, 0
0, 0
0, 0
0, 0
0, 0
0, 0
0, 0
0, 0
0, 0
0, 0
0, 0
0, 0
0, 0
0, 0
0, 0
0, 0
0, 0
0, 0
0, 0
0, 0
0, 0
0, 0
0, 0
0, 0
0, 0
0, 0
0, 0
0, 0
0, 0
0, 0
0, 0
0, 0
0, 0
0, 0
0, 0
0, 0
0, 0
0, 0
0, 0
0, 0
0, 0
0, 0
0, 0
0, 0
0, 0
0, 0
0, 0
0, 0
0, 0
0, 0
0, 0
0, 0
0, 0
0, 0
0, 0
0, 0
0, 0
0, 0
0, 0
0, 0
0, 0
0, 0
0, 0
#ENDOFDATA     end of spectrum data

File: ps__0852shot_2010.msa
#FORMAT      : EMSA/MAS spectral data file
#VERSION     : TC202v2.0 PIXL
#TITLE       : N/A
#DATE        :       Date in the format DD-MMM-YYYY, for example 07-JUL-2010
#TIME        :             The time of day at which the spectrum was recorded, in 24-hour format
#OWNER       : PIXL Flight Model       (PIXL will use this to indicate which instrument took the data.)
#NPOINTS     : 4096     Number of data points in the spectrum (This can be zero for configuration only files)
#NCOLUMNS    : 2     Number of data columns in the spectrum (This can be zero for configuration only files)
#XUNITS      : eV
#YUNITS      : COUNTS
#DATATYPE    : YY
#XPERCHAN    : 7.862, 7.881   eV per channel (separate by commas if more than one detector)
#OFFSET      : 18.5, -22.4         eV of first channel  (separate by commas if more than one detector
#SIGNALTYPE  : XRF
#YP_TEMP     : 2.203
#LIVETIME    : 8.5329, 8.60511   seconds (separate by commas if more than one detector)
#REALTIME    : 10, 10.0   seconds (separate by commas if more than one detector)
#SPECTRUM    : start of spectrum data
0, 0
0, 0
0, 0
0, 0
0, 0
0, 0
0, 0
1, 0
1, 0
1, 3
4, 3
37, 34
47, 33
5, 1
4, 4
70, 55
286, 250
107, 69
9, 10
3, 3
34, 42
270, 238
114, 93
27, 24
80, 59
65, 48
38, 25
23, 15
6, 10
5, 10
1, 5
2, 3
10, 1
14, 23
29, 27
6, 7
1, 1
15, 4
11, 8
7, 3
2, 1
19, 8
7, 5
13, 19
9, 12
14, 7
4, 4
8, 5
12, 8
18, 12
17, 9
17, 7
20, 8
51, 45
61, 64
32, 24
35, 39
535, 536
2401, 2019
1708, 1195
252, 119
18, 14
20, 19
115, 119
361, 302
262, 173
31, 16
9, 5
15, 11
10, 7
8, 3
3, 2
2, 3
4, 6
5, 3
9, 2
5, 9
2, 6
6, 5
9, 5
5, 4
2, 12
7, 12
5, 14
3, 24
3, 12
9, 5
8, 1
6, 2
5, 3
8, 0
5, 5
9, 7
2, 1
5, 1
4, 3
1, 2
2, 3
4, 1
2, 0
1, 0
3, 2
2, 3
2, 1
5, 1
2, 2
1, 4
2, 1
2, 0
3, 0
3, 0
2, 1
2, 0
0, 0
1, 1
0, 1
4, 5
4, 2
3, 0
2, 3
0, 0
2, 1
1, 6
0, 1
3, 0
1, 1
1, 1
3, 1
2, 1
1, 0
2, 1
1, 1
2, 0
2, 1
1, 0
1, 0
3, 1
2, 2
0, 0
0, 0
2, 1
0, 1
1, 2
2, 0
1, 1
2, 0
0, 0
0, 1
0, 0
0, 0
0, 1
0, 0
0, 0
0, 0
0, 1
1, 0
0, 0
1, 0
0, 0
0, 0
0, 2
0, 0
2, 0
0, 0
0, 0
0, 0
0, 0
0, 1
0, 0
0, 0
0, 0
0, 1
3, 0
0, 0
0, 0
0, 0
0, 0
0, 0
1, 0
0, 0
0, 0
0, 0
1, 1
0, 0
0, 0
0, 0
0, 0
0, 0
0, 1
0, 0
0, 0
1, 1
0, 0
0, 0
0, 1
0, 0
0, 0
0, 0
0, 0
0, 0
0, 0
0, 0
0, 0
0, 0
0, 0
0, 0
0, 0
0, 0
0, 0
0, 0
0, 0
0, 0
0, 0
0, 0
0, 0
0, 0
0, 0
0, 0
0, 0
0, 0
0, 0
0, 0
0, 0
0, 0
0, 0
0, 0
0, 0
0, 0
0, 0
0, 0
0, 0
0, 0
0, 0
0, 0
0, 0
0, 0
0, 0
0, 0
0, 0
0, 0
0, 0
0, 0
0, 0
0, 0
0, 0
0, 0
0, 0
0, 0
0, 0
0, 0
0, 0
0, 0
0, 0
0, 0
0, 0
0, 0
0, 0
0, 0
0, 0
0, 0
0, 0
0, 0
0, 0
0, 0
0, 0
0, 0
0, 0
0, 0
0, 0
0, 0
0, 0
0, 0
0, 0
0, 0
0, 0
0, 0
0, 0
0, 0
0, 0
0, 0
0, 0
0, 0
0, 0
0, 0
0, 0
0, 0
0, 0
0, 0
0, 0
0, 0
0, 0
0, 0
0, 0
0, 0
#ENDOFDATA     end of spectrum data

File: ps__0852shot_2011.msa
#FORMAT      : EMSA/MAS spectral data file
#VERSION     : TC202v2.0 PIXL
#TITLE       : N/A
#DATE        :       Date in the format DD-MMM-YYYY, for example 07-JUL-2010
#TIME        :             The time of day at which the spectrum was recorded, in 24-hour format
#OWNER       : PIXL Flight Model       (PIXL will use this to indicate which instrument took the data.)
#NPOINTS     : 4096     Number of data points in the spectrum (This can be zero for configuration only files)
#NCOLUMNS    : 2     Number of data columns in the spectrum (This can be zero for configuration only files)
#XUNITS      : eV
#YUNITS      : COUNTS
#DATATYPE    : YY
#XPERCHAN    : 7.862, 7.881   eV per channel (separate by commas if more than one detector)
#OFFSET      : 18.5, -22.4         eV of first channel  (separate by commas if more than one detector
#SIGNALTYPE  : XRF
#YP_TEMP     : 2.396
#LIVETIME    : 8.56245, 8.56231   seconds (separate by commas if more than one detector)
#REALTIME    : 10, 10.0   seconds (separate by commas if more than one detector)
#SPECTRUM    : start of spectrum data
0, 0
0, 0
0, 0
0, 0
0, 0
0, 0
0, 0
0, 0
2, 1
2, 0
2, 3
38, 40
57, 28
6, 3
4, 2
58, 55
301, 263
88, 53
7, 3
4, 3
37, 22
111, 134
60, 48
25, 23
85, 70
77, 66
35, 35
29, 15
6, 20
3, 7
1, 1
7, 1
7, 4
28, 34
50, 25
7, 14
10, 5
13, 8
9, 8
11, 7
3, 5
13, 9
21, 7
19, 20
8, 14
4, 10
6, 6
8, 13
12, 9
8, 7
12, 7
13, 9
22, 8
46, 55
76, 54
25, 22
33, 45
556, 548
2342, 2154
1707, 1270
239, 141
14, 15
17, 30
98, 120
360, 335
259, 179
38, 22
10, 6
11, 15
9, 9
5, 6
6, 5
2, 3
8, 4
4, 2
5, 2
9, 5
7, 5
3, 4
12, 5
3, 4
5, 13
2, 8
2, 16
6, 18
3, 11
9, 6
9, 7
3, 0
4, 1
3, 5
4, 2
6, 1
3, 4
3, 5
1, 0
2, 2
3, 6
0, 1
2, 0
4, 2
4, 2
2, 3
3, 3
3, 3
4, 5
3, 5
3, 2
2, 5
2, 1
1, 2
3, 4
2, 3
1, 0
2, 2
2, 5
5, 6
3, 5
1, 3
0, 1
1, 1
0, 0
1, 0
0, 3
0, 0
3, 1
0, 1
0, 0
1, 1
2, 1
2, 1
1, 1
2, 1
0, 0
4, 0
0, 1
1, 1
2, 0
1, 2
0, 0
2, 0
3, 0
1, 0
0, 0
0, 0
0, 2
0, 0
0, 0
0, 1
0, 0
1, 0
0, 0
1, 1
0, 0
1, 0
0, 0
1, 0
1, 0
0, 0
0, 0
1, 0
0, 0
0, 0
1, 0
0, 0
1, 0
0, 0
0, 0
0, 0
0, 0
1, 0
2, 1
1, 0
0, 0
0, 0
0, 0
0, 0
1, 0
0, 0
1, 0
0, 0
0, 0
1, 0
0, 0
0, 0
0, 0
0, 0
0, 0
0, 0
0, 0
0, 0
0, 0
0, 0
0, 0
0, 0
0, 0
1, 0
0, 0
0, 0
0, 0
0, 0
0, 0
0, 0
0, 0
0, 0
0, 0
0, 0
0, 0
0, 0
0, 0
0, 0
0, 0
0, 0
0, 0
0, 0
0, 0
0, 0
1, 0
0, 0
0, 0
0, 0
0, 0
0, 0
0, 0
0, 0
0, 0
0, 0
0, 0
0, 0
0, 0
0, 0
0, 0
0, 0
0, 0
1, 0
0, 0
0, 0
0, 0
0, 0
0, 0
0, 0
0, 0
0, 0
0, 0
0, 0
0, 0
0, 0
0, 0
0, 0
0, 0
0, 0
0, 0
0, 0
0, 0
0, 0
0, 0
0, 0
0, 0
0, 0
0, 0
0, 0
0, 0
0, 0
0, 0
0, 0
0, 0
0, 0
0, 0
0, 0
0, 0
0, 0
0, 0
0, 0
0, 0
0, 0
0, 0
0, 0
0, 0
0, 0
0, 0
0, 0
0, 0
0, 0
0, 0
0, 0
0, 0
0, 0
0, 0
0, 0
0, 0
0, 0
0, 0
0, 0
0, 0
#ENDOFDATA     end of spectrum data

File: ps__0852shot_2012.msa
#FORMAT      : EMSA/MAS spectral data file
#VERSION     : TC202v2.0 PIXL
#TITLE       : N/A
#DATE        :       Date in the format DD-MMM-YYYY, for example 07-JUL-2010
#TIME        :             The time of day at which the spectrum was recorded, in 24-hour format
#OWNER       : PIXL Flight Model       (PIXL will use this to indicate which instrument took the data.)
#NPOINTS     : 4096     Number of data points in the spectrum (This can be zero for configuration only files)
#NCOLUMNS    : 2     Number of data columns in the spectrum (This can be zero for configuration only files)
#XUNITS      : eV
#YUNITS      : COUNTS
#DATATYPE    : YY
#XPERCHAN    : 7.862, 7.881   eV per channel (separate by commas if more than one detector)
#OFFSET      : 18.5, -22.4         eV of first channel  (separate by commas if more than one detector
#SIGNALTYPE  : XRF
#YP_TEMP     : 2.396
#LIVETIME    : 8.56993, 8.55719   seconds (separate by commas if more than one detector)
#REALTIME    : 10, 10.0   seconds (separate by commas if more than one detector)
#SPECTRUM    : start of spectrum data
0, 0
0, 0
0, 0
0, 0
0, 0
0, 0
0, 0
0, 0
0, 2
3, 2
2, 3
49, 31
60, 31
8, 5
5, 6
85, 65
346, 266
87, 79
8, 6
6, 2
30, 41
174, 193
90, 83
29, 38
83, 60
96, 61
59, 30
31, 25
7, 20
3, 6
3, 3
3, 4
1, 7
32, 27
33, 28
13, 7
4, 6
8, 10
18, 8
11, 4
3, 5
12, 5
17, 27
18, 19
6, 11
4, 5
4, 5
11, 10
9, 8
16, 9
14, 6
10, 7
12, 12
42, 33
77, 54
34, 20
26, 29
473, 491
2135, 2006
1572, 1153
242, 130
82, 20
78, 12
114, 85
348, 332
215, 182
34, 22
12, 13
12, 12
5, 10
3, 7
4, 4
1, 2
2, 5
6, 3
11, 7
6, 4
7, 4
3, 11
8, 8
4, 6
6, 8
2, 3
5, 9
8, 11
1, 18
7, 5
2, 6
6, 4
16, 5
14, 5
9, 3
7, 1
5, 2
3, 0
4, 2
5, 0
4, 2
1, 2
5, 1
3, 3
1, 0
3, 1
1, 3
3, 1
1, 4
1, 3
2, 3
2, 2
3, 4
4, 2
4, 1
1, 3
2, 0
3, 4
1, 1
2, 2
1, 3
0, 1
1, 2
1, 3
0, 2
1, 3
1, 1
1, 1
1, 2
1, 3
0, 3
1, 0
1, 0
3, 2
1, 1
1, 1
2, 0
0, 4
0, 3
0, 1
1, 1
1, 0
0, 0
1, 0
0, 0
1, 1
0, 3
1, 1
0, 0
2, 0
1, 1
0, 1
2, 0
1, 0
0, 1
1, 0
0, 1
0, 0
0, 1
0, 1
0, 1
0, 1
2, 1
0, 0
0, 0
0, 0
0, 0
0, 0
1, 1
0, 0
0, 0
1, 0
0, 1
0, 0
0, 0
1, 0
0, 1
0, 0
1, 0
0, 0
0, 0
0, 0
0, 0
0, 1
0, 0
0, 0
1, 0
0, 0
1, 0
0, 0
0, 1
0, 0
1, 0
1, 0
1, 0
0, 0
0, 0
1, 0
0, 0
1, 0
0, 0
0, 0
0, 0
0, 0
0, 0
0, 0
0, 0
0, 0
0, 0
0, 0
0, 0
0, 0
0, 0
0, 0
0, 0
0, 0
0, 0
0, 0
0, 0
0, 0
0, 0
0, 0
0, 0
0, 0
0, 0
0, 0
0, 0
0, 0
0, 0
0, 0
0, 0
0, 0
0, 0
0, 0
0, 0
0, 0
0, 0
0, 0
0, 0
0, 0
0, 0
0, 0
0, 0
0, 0
0, 0
0, 0
0, 0
0, 0
0, 0
0, 0
0, 0
0, 0
0, 0
0, 0
0, 0
0, 0
0, 0
0, 0
0, 0
0, 0
0, 0
0, 0
0, 0
0, 0
0, 0
0, 0
0, 0
0, 0
0, 0
0, 0
0, 0
0, 0
0, 0
0, 0
0, 0
0, 0
0, 0
0, 0
0, 0
0, 0
0, 0
0, 0
0, 0
0, 0
0, 0
0, 0
0, 0
0, 0
0, 0
0, 0
0, 0
0, 0
0, 0
0, 0
0, 0
0, 0
0, 0
#ENDOFDATA     end of spectrum data

File: ps__0852shot_2013.msa
#FORMAT      : EMSA/MAS spectral data file
#VERSION     : TC202v2.0 PIXL
#TITLE       : N/A
#DATE        :       Date in the format DD-MMM-YYYY, for example 07-JUL-2010
#TIME        :             The time of day at which the spectrum was recorded, in 24-hour format
#OWNER       : PIXL Flight Model       (PIXL will use this to indicate which instrument took the data.)
#NPOINTS     : 4096     Number of data points in the spectrum (This can be zero for configuration only files)
#NCOLUMNS    : 2     Number of data columns in the spectrum (This can be zero for configuration only files)
#XUNITS      : eV
#YUNITS      : COUNTS
#DATATYPE    : YY
#XPERCHAN    : 7.862, 7.881   eV per channel (separate by commas if more than one detector)
#OFFSET      : 18.5, -22.4         eV of first channel  (separate by commas if more than one detector
#SIGNALTYPE  : XRF
#YP_TEMP     : 2.364
#LIVETIME    : 8.56097, 8.55248   seconds (separate by commas if more than one detector)
#REALTIME    : 10, 10.0   seconds (separate by commas if more than one detector)
#SPECTRUM    : start of spectrum data
0, 0
0, 0
0, 0
0, 0
0, 0
0, 0
0, 0
0, 1
2, 0
2, 0
1, 4
60, 28
74, 49
7, 4
4, 3
109, 73
465, 288
121, 72
2, 4
3, 3
15, 17
101, 86
45, 37
13, 13
51, 40
68, 23
31, 27
11, 11
6, 5
3, 1
4, 2
2, 1
4, 4
16, 10
17, 12
8, 5
3, 2
4, 10
8, 18
4, 2
2, 5
7, 1
16, 15
12, 28
8, 12
14, 3
6, 5
13, 1
10, 7
16, 8
11, 8
7, 6
14, 14
42, 37
55, 40
15, 26
38, 46
521, 490
2354, 2002
1833, 1173
282, 146
185, 19
148, 24
140, 121
331, 320
250, 253
34, 52
8, 14
14, 6
4, 3
3, 6
7, 2
8, 1
5, 2
5, 6
5, 4
10, 4
7, 4
6, 3
3, 4
1, 4
3, 1
5, 4
2, 5
3, 10
1, 9
0, 10
3, 5
6, 6
21, 3
32, 1
16, 0
6, 2
3, 1
5, 3
2, 0
1, 6
2, 0
2, 2
2, 1
2, 1
5, 0
2, 3
2, 1
0, 3
3, 4
2, 1
0, 2
5, 6
2, 1
7, 2
3, 4
1, 2
1, 1
1, 2
5, 2
2, 4
6, 1
3, 3
4, 4
3, 2
1, 2
5, 3
2, 4
4, 2
4, 1
1, 1
2, 0
1, 1
0, 1
1, 1
4, 2
0, 2
3, 0
0, 0
0, 0
1, 2
0, 1
0, 1
0, 1
0, 0
1, 2
1, 0
0, 1
1, 1
1, 0
1, 3
1, 0
1, 0
0, 0
2, 0
0, 0
1, 2
0, 0
1, 0
2, 1
1, 0
0, 0
0, 2
0, 0
0, 0
1, 0
1, 0
1, 0
0, 0
1, 1
0, 0
0, 0
1, 0
1, 0
0, 0
0, 0
1, 1
0, 0
0, 0
0, 0
0, 0
0, 0
0, 0
0, 0
0, 0
0, 0
0, 0
0, 0
0, 0
1, 0
1, 0
0, 0
0, 0
0, 0
0, 0
1, 0
0, 0
0, 0
0, 0
0, 0
0, 0
0, 0
0, 0
0, 0
0, 0
0, 0
0, 0
0, 0
1, 0
0, 0
0, 0
0, 0
0, 0
0, 0
0, 0
0, 0
0, 0
0, 0
0, 0
0, 0
0, 0
0, 0
0, 0
0, 0
0, 0
0, 0
0, 0
0, 0
0, 0
0, 0
0, 0
0, 0
0, 0
0, 0
0, 0
0, 0
0, 0
0, 0
0, 0
0, 0
0, 0
0, 0
0, 0
0, 0
0, 0
0, 0
0, 0
0, 0
0, 0
0, 0
0, 0
0, 0
0, 0
0, 0
0, 0
0, 0
0, 0
0, 0
0, 0
0, 0
0, 0
0, 0
0, 0
0, 0
0, 0
0, 0
0, 0
0, 0
0, 0
0, 0
0, 0
0, 0
0, 0
0, 0
0, 0
0, 0
0, 0
0, 0
0, 0
0, 0
0, 0
0, 0
0, 0
0, 0
0, 0
0, 0
0, 0
0, 0
0, 0
0, 0
0, 0
0, 0
0, 0
0, 0
0, 0
0, 0
0, 0
0, 0
#ENDOFDATA     end of spectrum data

File: ps__0852shot_2014.msa
#FORMAT      : EMSA/MAS spectral data file
#VERSION     : TC202v2.0 PIXL
#TITLE       : N/A
#DATE        :       Date in the format DD-MMM-YYYY, for example 07-JUL-2010
#TIME        :             The time of day at which the spectrum was recorded, in 24-hour format
#OWNER       : PIXL Flight Model       (PIXL will use this to indicate which instrument took the data.)
#NPOINTS     : 4096     Number of data points in the spectrum (This can be zero for configuration only files)
#NCOLUMNS    : 2     Number of data columns in the spectrum (This can be zero for configuration only files)
#XUNITS      : eV
#YUNITS      : COUNTS
#DATATYPE    : YY
#XPERCHAN    : 7.862, 7.881   eV per channel (separate by commas if more than one detector)
#OFFSET      : 18.5, -22.4         eV of first channel  (separate by commas if more than one detector
#SIGNALTYPE  : XRF
#YP_TEMP     : 2.492
#LIVETIME    : 8.55545, 8.55283   seconds (separate by commas if more than one detector)
#REALTIME    : 10, 10.0   seconds (separate by commas if more than one detector)
#SPECTRUM    : start of spectrum data
0, 0
0, 0
0, 0
0, 0
0, 0
0, 0
0, 0
0, 0
1, 1
2, 3
3, 2
51, 48
70, 64
6, 7
2, 2
86, 103
412, 404
100, 89
8, 7
0, 2
9, 23
77, 113
40, 33
22, 13
44, 33
36, 49
24, 23
9, 11
3, 3
1, 2
2, 1
4, 1
2, 2
20, 11
15, 9
4, 2
3, 2
5, 17
3, 26
2, 12
6, 3
12, 8
20, 29
16, 14
7, 3
5, 9
5, 5
8, 5
8, 10
4, 11
9, 16
10, 7
15, 8
38, 39
56, 63
24, 18
32, 60
450, 567
2128, 2319
1564, 1363
229, 145
95, 39
88, 22
107, 132
325, 397
226, 270
25, 52
6, 13
11, 18
11, 11
4, 4
5, 3
1, 6
2, 4
9, 8
5, 6
12, 8
5, 5
7, 6
5, 1
4, 0
6, 4
2, 4
1, 7
5, 12
1, 6
4, 9
7, 5
5, 7
24, 3
28, 3
12, 5
3, 2
5, 0
3, 3
2, 1
2, 3
0, 4
3, 1
3, 7
5, 5
3, 3
1, 2
2, 6
2, 1
1, 2
1, 3
2, 2
4, 2
2, 2
4, 3
2, 1
2, 1
1, 0
1, 2
1, 3
7, 3
2, 5
1, 0
3, 2
0, 1
1, 1
6, 1
3, 2
2, 0
0, 2
1, 0
1, 0
0, 1
1, 1
2, 0
2, 1
0, 0
2, 0
0, 0
3, 1
0, 0
0, 1
1, 0
1, 0
0, 2
2, 0
0, 0
0, 0
1, 0
0, 1
0, 1
0, 0
0, 0
0, 0
1, 0
0, 0
0, 1
0, 1
1, 0
0, 1
0, 0
1, 0
1, 1
0, 0
0, 0
0, 0
0, 0
0, 0
0, 1
1, 0
1, 1
0, 0
0, 0
0, 1
0, 0
0, 1
1, 1
0, 1
0, 0
0, 0
0, 1
0, 0
0, 0
0, 0
0, 0
0, 0
0, 0
0, 0
0, 0
1, 0
0, 0
0, 0
0, 0
0, 0
0, 0
0, 0
0, 0
0, 0
0, 0
0, 0
0, 0
0, 0
0, 0
1, 0
0, 0
0, 0
0, 0
0, 0
0, 0
0, 0
0, 0
0, 0
0, 0
0, 0
0, 0
0, 0
0, 0
0, 0
0, 0
0, 0
0, 0
0, 0
0, 0
0, 0
0, 0
0, 0
0, 0
0, 0
0, 0
0, 0
0, 0
0, 0
0, 0
0, 0
0, 0
0, 0
0, 0
0, 0
0, 0
0, 0
0, 0
0, 0
0, 0
0, 0
0, 0
0, 0
0, 0
0, 0
0, 0
0, 0
0, 0
0, 0
0, 0
0, 0
0, 0
0, 0
0, 0
0, 0
0, 0
0, 0
0, 0
0, 0
0, 0
0, 0
0, 0
0, 0
0, 0
0, 0
0, 0
0, 0
0, 0
0, 0
0, 0
0, 0
0, 0
0, 0
0, 0
0, 0
0, 0
0, 0
0, 0
0, 0
0, 0
0, 0
0, 0
0, 0
0, 0
0, 0
0, 0
0, 0
0, 0
0, 0
0, 0
0, 0
0, 0
0, 0
0, 0
0, 0
#ENDOFDATA     end of spectrum data

File: ps__0852shot_2015.msa
#FORMAT      : EMSA/MAS spectral data file
#VERSION     : TC202v2.0 PIXL
#TITLE       : N/A
#DATE        :       Date in the format DD-MMM-YYYY, for example 07-JUL-2010
#TIME        :             The time of day at which the spectrum was recorded, in 24-hour format
#OWNER       : PIXL Flight Model       (PIXL will use this to indicate which instrument took the data.)
#NPOINTS     : 4096     Number of data points in the spectrum (This can be zero for configuration only files)
#NCOLUMNS    : 2     Number of data columns in the spectrum (This can be zero for configuration only files)
#XUNITS      : eV
#YUNITS      : COUNTS
#DATATYPE    : YY
#XPERCHAN    : 7.862, 7.881   eV per channel (separate by commas if more than one detector)
#OFFSET      : 18.5, -22.4         eV of first channel  (separate by commas if more than one detector
#SIGNALTYPE  : XRF
#YP_TEMP     : 2.588
#LIVETIME    : 8.53784, 8.57299   seconds (separate by commas if more than one detector)
#REALTIME    : 10, 10.0   seconds (separate by commas if more than one detector)
#SPECTRUM    : start of spectrum data
0, 0
0, 0
0, 0
0, 0
0, 0
0, 0
0, 0
1, 0
0, 0
1, 0
1, 0
40, 43
55, 57
4, 8
3, 1
71, 120
358, 448
100, 105
4, 4
2, 2
2, 6
17, 12
6, 6
7, 16
30, 31
31, 38
22, 38
10, 17
3, 4
1, 0
1, 1
2, 1
5, 4
11, 17
11, 21
3, 5
5, 6
5, 11
1, 36
5, 22
1, 5
17, 10
36, 17
40, 27
9, 10
6, 12
6, 8
7, 8
6, 14
15, 21
8, 17
4, 11
9, 9
40, 32
49, 58
21, 18
29, 38
472, 613
2063, 2443
1465, 1516
204, 190
56, 36
63, 23
102, 151
307, 411
206, 239
36, 32
8, 18
11, 9
9, 13
2, 5
4, 4
6, 3
3, 3
5, 4
8, 6
8, 9
3, 5
4, 5
1, 5
5, 5
1, 7
3, 7
3, 10
5, 17
6, 14
6, 10
1, 5
2, 4
12, 3
17, 1
6, 4
1, 4
5, 5
1, 4
2, 1
5, 3
3, 1
2, 3
3, 1
4, 1
3, 1
1, 1
6, 4
2, 0
1, 3
1, 3
2, 2
1, 6
1, 1
3, 1
0, 1
1, 1
3, 4
0, 1
1, 2
1, 9
3, 3
2, 2
1, 1
2, 3
2, 3
2, 0
0, 1
3, 2
2, 1
0, 1
1, 0
1, 1
2, 0
0, 1
1, 2
1, 2
0, 0
1, 0
1, 0
1, 0
0, 1
2, 1
1, 2
0, 2
1, 0
0, 0
0, 0
0, 0
0, 0
0, 0
1, 1
1, 0
0, 0
0, 1
0, 0
1, 0
0, 1
1, 0
0, 0
0, 0
0, 0
1, 1
0, 1
0, 0
1, 0
1, 0
0, 0
0, 0
0, 0
0, 0
0, 1
2, 1
0, 0
1, 0
0, 1
0, 0
1, 0
0, 0
0, 1
0, 0
0, 0
0, 0
0, 0
0, 0
0, 1
0, 0
0, 0
0, 0
0, 0
0, 0
1, 0
0, 0
0, 0
0, 0
0, 0
0, 0
0, 0
0, 0
0, 0
0, 0
0, 0
0, 0
0, 0
0, 0
0, 0
0, 0
0, 0
0, 0
0, 0
0, 0
0, 0
0, 0
0, 0
0, 0
0, 0
0, 0
0, 0
0, 0
0, 0
0, 0
0, 0
0, 0
0, 0
0, 0
0, 0
0, 0
0, 0
0, 0
0, 0
0, 0
0, 0
0, 0
0, 0
0, 0
0, 0
0, 0
0, 0
0, 0
0, 0
0, 0
0, 0
0, 0
0, 0
0, 0
0, 0
0, 0
0, 0
0, 0
0, 0
0, 0
0, 0
0, 0
0, 0
0, 0
0, 0
0, 0
0, 0
0, 0
0, 0
0, 0
0, 0
0, 0
0, 0
0, 0
0, 0
0, 0
0, 0
0, 0
0, 0
0, 0
0, 0
0, 0
0, 0
0, 0
0, 0
0, 0
0, 0
0, 0
0, 0
0, 0
0, 0
0, 0
0, 0
0, 0
0, 0
0, 0
0, 0
0, 0
0, 0
0, 0
0, 0
0, 0
0, 0
0, 0
0, 0
0, 0
0, 0
#ENDOFDATA     end of spectrum data

File: ps__0852shot_2016.msa
#FORMAT      : EMSA/MAS spectral data file
#VERSION     : TC202v2.0 PIXL
#TITLE       : N/A
#DATE        :       Date in the format DD-MMM-YYYY, for example 07-JUL-2010
#TIME        :             The time of day at which the spectrum was recorded, in 24-hour format
#OWNER       : PIXL Flight Model       (PIXL will use this to indicate which instrument took the data.)
#NPOINTS     : 4096     Number of data points in the spectrum (This can be zero for configuration only files)
#NCOLUMNS    : 2     Number of data columns in the spectrum (This can be zero for configuration only files)
#XUNITS      : eV
#YUNITS      : COUNTS
#DATATYPE    : YY
#XPERCHAN    : 7.862, 7.881   eV per channel (separate by commas if more than one detector)
#OFFSET      : 18.5, -22.4         eV of first channel  (separate by commas if more than one detector
#SIGNALTYPE  : XRF
#YP_TEMP     : 2.588
#LIVETIME    : 8.55081, 8.56877   seconds (separate by commas if more than one detector)
#REALTIME    : 10, 10.0   seconds (separate by commas if more than one detector)
#SPECTRUM    : start of spectrum data
0, 0
0, 0
0, 0
0, 0
0, 0
0, 0
0, 0
0, 0
2, 0
0, 0
2, 1
38, 44
49, 53
2, 8
3, 6
89, 113
382, 435
107, 102
6, 2
1, 3
3, 10
12, 22
7, 13
11, 16
25, 31
36, 27
17, 26
18, 10
3, 10
5, 5
2, 2
1, 3
6, 3
19, 13
13, 16
3, 5
2, 10
5, 6
4, 12
2, 9
7, 5
17, 7
36, 14
43, 15
9, 8
6, 9
8, 9
4, 16
11, 15
15, 24
15, 29
12, 11
15, 12
46, 47
68, 65
38, 22
40, 53
457, 593
2080, 2328
1489, 1472
209, 177
20, 19
21, 26
91, 133
294, 373
203, 188
37, 21
2, 10
12, 20
8, 16
3, 6
5, 4
5, 2
8, 3
4, 8
7, 6
9, 8
5, 4
6, 6
3, 4
2, 6
0, 7
4, 5
3, 3
8, 5
8, 6
2, 4
6, 5
12, 6
10, 4
5, 3
2, 2
5, 2
5, 6
2, 6
0, 2
1, 5
4, 2
2, 1
3, 2
2, 0
2, 2
2, 3
3, 1
4, 0
4, 1
0, 2
5, 4
0, 4
1, 0
1, 2
0, 1
1, 4
5, 4
2, 1
2, 4
3, 8
4, 5
2, 5
1, 2
1, 0
1, 3
0, 2
2, 2
0, 2
1, 1
1, 1
0, 4
1, 0
3, 2
3, 1
1, 1
0, 2
0, 1
0, 0
0, 1
0, 1
1, 0
1, 0
0, 1
1, 1
0, 2
1, 2
1, 0
0, 0
1, 2
0, 0
0, 0
0, 0
0, 1
0, 1
2, 0
0, 1
0, 1
0, 0
0, 0
1, 1
0, 0
0, 0
0, 0
0, 0
0, 0
0, 0
0, 0
0, 1
0, 0
0, 0
0, 0
0, 0
0, 0
1, 0
0, 0
1, 2
0, 0
0, 0
0, 1
0, 0
0, 0
0, 0
0, 0
0, 0
0, 0
0, 0
0, 0
0, 0
0, 0
0, 0
0, 0
0, 0
0, 0
0, 0
0, 0
0, 0
0, 0
0, 0
0, 0
0, 0
0, 0
0, 0
0, 0
0, 0
1, 0
0, 0
0, 0
0, 0
0, 0
1, 0
0, 0
0, 0
0, 0
0, 0
0, 0
0, 0
0, 0
0, 0
0, 0
0, 0
0, 0
0, 0
0, 0
0, 0
0, 0
0, 0
0, 0
0, 0
0, 0
0, 0
0, 0
0, 0
0, 0
0, 0
0, 0
0, 0
0, 0
0, 0
0, 0
0, 0
0, 0
0, 0
0, 0
0, 0
0, 0
0, 0
0, 0
0, 0
0, 0
0, 0
0, 0
0, 0
0, 0
0, 0
0, 0
0, 0
0, 0
0, 0
0, 0
0, 0
0, 0
0, 0
0, 0
0, 0
0, 0
0, 0
0, 0
0, 0
0, 0
0, 0
0, 0
0, 0
0, 0
0, 0
0, 0
0, 0
0, 0
0, 0
0, 0
0, 0
0, 0
0, 0
0, 0
0, 0
0, 0
0, 0
0, 0
0, 0
0, 0
0, 0
0, 0
0, 0
0, 0
0, 0
0, 0
0, 0
0, 0
#ENDOFDATA     end of spectrum data

File: ps__0852shot_2017.msa
#FORMAT      : EMSA/MAS spectral data file
#VERSION     : TC202v2.0 PIXL
#TITLE       : N/A
#DATE        :       Date in the format DD-MMM-YYYY, for example 07-JUL-2010
#TIME        :             The time of day at which the spectrum was recorded, in 24-hour format
#OWNER       : PIXL Flight Model       (PIXL will use this to indicate which instrument took the data.)
#NPOINTS     : 4096     Number of data points in the spectrum (This can be zero for configuration only files)
#NCOLUMNS    : 2     Number of data columns in the spectrum (This can be zero for configuration only files)
#XUNITS      : eV
#YUNITS      : COUNTS
#DATATYPE    : YY
#XPERCHAN    : 7.862, 7.881   eV per channel (separate by commas if more than one detector)
#OFFSET      : 18.5, -22.4         eV of first channel  (separate by commas if more than one detector
#SIGNALTYPE  : XRF
#YP_TEMP     : 2.396
#LIVETIME    : 8.57002, 8.36492   seconds (separate by commas if more than one detector)
#REALTIME    : 10, 10.0   seconds (separate by commas if more than one detector)
#SPECTRUM    : start of spectrum data
0, 0
0, 0
0, 0
0, 0
0, 0
0, 0
0, 0
0, 1
1, 0
0, 1
3, 4
45, 68
62, 49
7, 1
5, 4
94, 84
446, 423
110, 109
3, 9
1, 1
1, 3
10, 6
1, 4
6, 11
21, 28
26, 40
18, 23
21, 23
4, 8
2, 4
2, 2
3, 1
11, 6
34, 7
26, 9
3, 4
6, 8
6, 5
8, 6
8, 4
3, 6
8, 11
20, 19
17, 21
8, 14
3, 11
6, 10
5, 9
11, 12
16, 7
17, 22
9, 18
18, 12
34, 41
81, 70
66, 17
85, 37
532, 597
2061, 2269
1504, 1387
212, 143
22, 20
24, 28
87, 145
290, 368
253, 192
33, 21
9, 9
8, 19
5, 20
2, 11
6, 3
5, 3
14, 3
17, 2
4, 6
12, 10
3, 2
3, 2
3, 0
4, 2
3, 8
3, 3
2, 4
2, 5
5, 2
6, 5
13, 3
21, 6
6, 7
3, 1
7, 3
2, 7
5, 2
3, 2
2, 2
4, 3
1, 1
1, 5
0, 1
6, 3
2, 1
2, 2
2, 2
2, 4
2, 0
2, 2
0, 0
4, 2
1, 4
2, 2
2, 2
2, 2
3, 3
1, 5
5, 5
5, 4
3, 4
1, 0
4, 1
4, 1
1, 3
3, 3
3, 3
2, 1
0, 0
1, 2
0, 3
5, 0
1, 1
2, 1
0, 0
2, 1
0, 1
1, 1
0, 1
3, 1
1, 2
1, 0
0, 0
0, 0
0, 1
0, 1
0, 1
0, 0
0, 1
1, 0
0, 0
0, 1
0, 0
0, 0
1, 0
0, 0
0, 0
1, 1
1, 0
1, 0
0, 1
0, 1
0, 0
1, 0
0, 0
1, 0
0, 0
0, 0
1, 1
0, 0
1, 0
0, 0
0, 0
0, 0
0, 0
0, 0
0, 0
1, 0
0, 0
2, 0
0, 1
0, 0
0, 0
0, 0
0, 0
0, 0
0, 0
0, 0
0, 0
0, 0
1, 2
0, 0
0, 0
0, 0
0, 0
0, 0
0, 0
0, 0
0, 0
0, 0
0, 0
0, 0
0, 1
0, 0
0, 0
0, 0
0, 0
0, 0
0, 0
0, 0
0, 0
0, 0
0, 0
0, 0
0, 0
0, 0
0, 0
0, 0
0, 0
0, 0
0, 0
0, 0
0, 0
0, 0
0, 0
0, 0
0, 0
0, 0
0, 0
0, 0
0, 0
0, 0
0, 0
0, 0
0, 0
0, 0
0, 0
0, 0
0, 0
0, 0
0, 0
0, 0
0, 0
0, 0
0, 0
0, 0
0, 0
0, 0
0, 0
0, 0
0, 0
0, 0
0, 0
0, 0
0, 0
0, 0
0, 0
0, 0
0, 0
0, 0
0, 0
0, 0
0, 0
0, 0
0, 0
0, 0
0, 0
0, 0
0, 0
0, 0
0, 0
0, 0
0, 0
0, 0
0, 0
0, 0
0, 0
0, 0
0, 0
0, 0
0, 0
0, 0
0, 0
0, 0
0, 0
0, 0
0, 0
0, 0
0, 0
0, 0
0, 0
0, 0
0, 0
0, 0
0, 0
0, 0
0, 0
#ENDOFDATA     end of spectrum data