Folder: data-repository/host_upload/06-09-2024/ps_0852/dump3 (part 55)

File: ps__0852shot_2492.msa
#FORMAT      : EMSA/MAS spectral data file
#VERSION     : TC202v2.0 PIXL
#TITLE       : N/A
#DATE        :       Date in the format DD-MMM-YYYY, for example 07-JUL-2010
#TIME        :             The time of day at which the spectrum was recorded, in 24-hour format
#OWNER       : PIXL Flight Model       (PIXL will use this to indicate which instrument took the data.)
#NPOINTS     : 4096     Number of data points in the spectrum (This can be zero for configuration only files)
#NCOLUMNS    : 2     Number of data columns in the spectrum (This can be zero for configuration only files)
#XUNITS      : eV
#YUNITS      : COUNTS
#DATATYPE    : YY
#XPERCHAN    : 7.862, 7.881   eV per channel (separate by commas if more than one detector)
#OFFSET      : 18.5, -22.4         eV of first channel  (separate by commas if more than one detector
#SIGNALTYPE  : XRF
#YP_TEMP     : 2.62
#LIVETIME    : 8.54104, 8.55678   seconds (separate by commas if more than one detector)
#REALTIME    : 10, 10.0   seconds (separate by commas if more than one detector)
#SPECTRUM    : start of spectrum data
0, 0
0, 0
0, 0
0, 0
0, 0
0, 0
0, 0
0, 0
0, 0
0, 2
5, 1
39, 58
68, 48
6, 3
2, 5
89, 85
378, 405
70, 92
4, 4
2, 1
0, 3
4, 3
4, 1
11, 7
35, 39
68, 62
217, 29
278, 23
21, 5
2, 1
1, 1
2, 4
2, 13
6, 22
17, 13
3, 6
3, 5
3, 4
8, 7
10, 17
7, 9
20, 13
30, 15
25, 13
8, 2
12, 7
8, 9
5, 5
13, 9
21, 24
18, 15
14, 5
32, 11
121, 63
104, 85
29, 68
31, 39
460, 599
2103, 2402
1515, 1411
179, 139
18, 14
19, 25
100, 125
378, 399
223, 193
43, 19
9, 7
11, 12
10, 6
3, 5
0, 3
4, 7
4, 5
1, 2
10, 8
4, 3
7, 4
9, 5
6, 7
10, 9
5, 4
1, 1
5, 9
9, 5
5, 6
3, 4
1, 4
6, 3
3, 1
3, 4
5, 3
4, 1
2, 1
1, 8
2, 1
5, 0
2, 2
1, 4
4, 0
4, 0
4, 5
1, 2
2, 1
3, 1
5, 5
6, 4
3, 4
3, 5
2, 2
1, 3
4, 2
2, 8
1, 1
0, 5
4, 1
3, 8
0, 2
1, 4
3, 2
4, 2
3, 0
1, 3
0, 1
1, 1
2, 2
1, 2
0, 1
0, 2
2, 0
2, 0
2, 0
0, 1
0, 1
1, 1
0, 0
0, 0
0, 1
1, 0
0, 0
0, 0
1, 0
0, 0
1, 0
1, 1
0, 1
2, 0
0, 0
2, 0
1, 2
1, 0
0, 0
0, 0
0, 0
0, 0
0, 0
0, 0
0, 1
0, 0
0, 0
1, 0
0, 0
1, 0
0, 1
0, 0
1, 0
0, 0
0, 0
0, 0
0, 0
0, 1
0, 0
0, 0
0, 0
1, 0
0, 0
0, 0
0, 0
0, 0
0, 0
0, 1
0, 0
0, 1
0, 2
0, 0
0, 1
0, 0
0, 0
0, 0
1, 0
0, 0
0, 0
0, 0
0, 0
0, 0
0, 1
0, 0
0, 0
0, 0
0, 0
0, 0
0, 0
0, 0
0, 0
0, 1
0, 0
0, 0
0, 0
0, 0
0, 0
0, 0
0, 0
0, 0
0, 0
0, 0
0, 0
0, 0
0, 0
0, 0
0, 0
0, 0
0, 0
0, 0
0, 0
0, 0
0, 0
0, 0
0, 0
0, 0
0, 0
0, 0
0, 0
0, 0
0, 0
0, 0
0, 0
0, 0
0, 0
0, 0
0, 0
0, 0
0, 0
0, 0
0, 0
0, 0
0, 0
0, 0
0, 0
0, 0
0, 0
0, 0
0, 0
0, 0
0, 0
0, 0
0, 0
0, 0
0, 0
0, 0
0, 0
0, 0
0, 0
0, 0
0, 0
0, 0
0, 0
0, 0
0, 0
0, 0
0, 0
0, 0
0, 0
0, 0
0, 0
0, 0
0, 0
0, 0
0, 0
0, 0
0, 0
0, 0
0, 0
0, 0
0, 0
0, 0
0, 0
0, 0
0, 0
0, 0
0, 0
0, 0
0, 0
0, 0
0, 0
#ENDOFDATA     end of spectrum data

File: ps__0852shot_2493.msa
#FORMAT      : EMSA/MAS spectral data file
#VERSION     : TC202v2.0 PIXL
#TITLE       : N/A
#DATE        :       Date in the format DD-MMM-YYYY, for example 07-JUL-2010
#TIME        :             The time of day at which the spectrum was recorded, in 24-hour format
#OWNER       : PIXL Flight Model       (PIXL will use this to indicate which instrument took the data.)
#NPOINTS     : 4096     Number of data points in the spectrum (This can be zero for configuration only files)
#NCOLUMNS    : 2     Number of data columns in the spectrum (This can be zero for configuration only files)
#XUNITS      : eV
#YUNITS      : COUNTS
#DATATYPE    : YY
#XPERCHAN    : 7.862, 7.881   eV per channel (separate by commas if more than one detector)
#OFFSET      : 18.5, -22.4         eV of first channel  (separate by commas if more than one detector
#SIGNALTYPE  : XRF
#YP_TEMP     : 2.492
#LIVETIME    : 8.5514, 8.56613   seconds (separate by commas if more than one detector)
#REALTIME    : 10, 10.0   seconds (separate by commas if more than one detector)
#SPECTRUM    : start of spectrum data
0, 0
0, 0
0, 0
0, 0
0, 0
0, 0
0, 0
0, 0
2, 2
0, 3
5, 0
47, 49
76, 64
2, 3
1, 5
70, 86
389, 463
91, 91
10, 4
1, 0
0, 1
6, 8
2, 3
7, 7
53, 43
101, 60
97, 35
78, 15
15, 5
5, 0
1, 2
2, 0
3, 3
17, 12
14, 19
3, 12
2, 8
5, 3
6, 16
7, 19
8, 20
21, 11
32, 12
23, 10
8, 9
10, 9
9, 6
2, 9
6, 13
18, 16
14, 17
6, 7
18, 15
64, 69
59, 87
27, 56
20, 72
412, 669
1823, 2525
1436, 1503
157, 150
14, 37
13, 54
84, 145
296, 398
198, 192
27, 25
14, 6
13, 14
10, 14
6, 6
1, 2
6, 1
5, 6
12, 6
6, 9
5, 5
3, 5
2, 7
5, 3
3, 0
4, 5
9, 4
8, 1
14, 2
7, 9
4, 3
7, 6
3, 2
1, 5
2, 8
1, 3
3, 4
5, 6
0, 5
1, 2
2, 1
2, 6
3, 4
0, 0
3, 3
1, 3
2, 6
2, 4
3, 2
4, 3
2, 0
0, 4
1, 5
3, 0
0, 3
1, 2
1, 2
3, 2
1, 3
2, 3
1, 6
3, 4
2, 3
1, 6
3, 1
0, 3
5, 3
1, 2
1, 0
1, 0
1, 4
1, 2
1, 1
0, 0
0, 1
1, 0
0, 1
1, 0
1, 0
0, 1
2, 0
0, 2
0, 0
0, 3
1, 0
1, 1
0, 0
0, 0
0, 0
0, 1
0, 0
1, 1
1, 0
0, 1
1, 0
0, 1
0, 0
0, 1
0, 1
0, 0
0, 0
0, 0
1, 0
1, 1
0, 1
1, 0
0, 0
0, 2
0, 0
0, 0
0, 1
0, 0
1, 0
0, 1
0, 0
0, 0
0, 1
0, 0
0, 1
0, 0
0, 0
0, 0
0, 0
0, 1
0, 1
0, 0
0, 0
0, 0
0, 0
0, 0
0, 0
0, 2
0, 0
0, 0
0, 0
0, 0
1, 0
0, 0
0, 0
0, 0
0, 0
0, 0
0, 0
0, 0
0, 1
0, 0
0, 1
0, 0
0, 0
0, 0
0, 0
0, 0
0, 0
0, 0
0, 0
0, 0
0, 0
0, 0
0, 0
0, 0
1, 0
0, 0
0, 0
0, 0
0, 0
0, 0
0, 0
0, 0
0, 0
0, 0
0, 0
0, 0
0, 0
0, 0
0, 0
0, 0
0, 0
0, 0
0, 0
0, 0
0, 0
0, 0
0, 0
0, 0
0, 0
0, 0
0, 0
0, 0
0, 0
0, 0
0, 0
0, 0
0, 0
0, 0
0, 0
0, 0
0, 0
0, 0
0, 0
0, 0
0, 0
0, 0
0, 0
0, 0
0, 0
0, 0
0, 0
0, 0
0, 0
0, 0
0, 0
0, 0
0, 0
0, 0
0, 0
0, 0
0, 0
0, 0
0, 0
0, 0
0, 0
0, 0
0, 0
0, 0
0, 0
0, 0
0, 0
0, 0
0, 0
0, 0
0, 0
0, 0
0, 0
0, 0
0, 0
0, 0
0, 0
0, 0
#ENDOFDATA     end of spectrum data

File: ps__0852shot_2494.msa
#FORMAT      : EMSA/MAS spectral data file
#VERSION     : TC202v2.0 PIXL
#TITLE       : N/A
#DATE        :       Date in the format DD-MMM-YYYY, for example 07-JUL-2010
#TIME        :             The time of day at which the spectrum was recorded, in 24-hour format
#OWNER       : PIXL Flight Model       (PIXL will use this to indicate which instrument took the data.)
#NPOINTS     : 4096     Number of data points in the spectrum (This can be zero for configuration only files)
#NCOLUMNS    : 2     Number of data columns in the spectrum (This can be zero for configuration only files)
#XUNITS      : eV
#YUNITS      : COUNTS
#DATATYPE    : YY
#XPERCHAN    : 7.862, 7.881   eV per channel (separate by commas if more than one detector)
#OFFSET      : 18.5, -22.4         eV of first channel  (separate by commas if more than one detector
#SIGNALTYPE  : XRF
#YP_TEMP     : 2.428
#LIVETIME    : 8.53509, 8.57268   seconds (separate by commas if more than one detector)
#REALTIME    : 10, 10.0   seconds (separate by commas if more than one detector)
#SPECTRUM    : start of spectrum data
0, 0
0, 0
0, 0
0, 0
0, 0
0, 0
0, 0
0, 2
0, 0
0, 0
1, 5
33, 39
60, 49
4, 2
3, 6
84, 117
484, 519
114, 114
8, 6
3, 2
2, 4
18, 18
5, 7
8, 4
26, 26
39, 41
31, 30
26, 11
2, 4
0, 3
2, 4
3, 6
4, 4
95, 119
164, 152
27, 19
20, 17
19, 26
11, 8
3, 7
13, 26
24, 30
21, 25
10, 6
6, 8
11, 8
8, 7
9, 6
12, 14
25, 26
22, 19
10, 10
11, 14
33, 45
48, 56
24, 26
29, 34
436, 547
1810, 2146
1438, 1275
174, 115
16, 41
24, 66
107, 122
294, 311
226, 163
29, 20
8, 10
11, 11
10, 6
6, 2
4, 2
5, 1
15, 3
9, 3
2, 5
6, 7
1, 7
4, 3
3, 8
4, 4
4, 3
5, 6
3, 3
2, 5
6, 3
5, 9
4, 8
4, 3
3, 12
10, 16
20, 1
17, 5
2, 2
2, 4
4, 6
2, 5
2, 3
3, 7
3, 3
3, 1
4, 4
2, 4
3, 2
5, 2
6, 3
7, 4
7, 1
1, 2
2, 7
2, 3
3, 2
2, 1
3, 3
3, 2
1, 1
2, 2
3, 5
3, 3
2, 0
3, 2
1, 3
2, 0
2, 2
0, 0
0, 2
0, 2
1, 1
2, 2
2, 3
1, 1
0, 1
2, 0
0, 0
0, 1
3, 3
2, 2
0, 0
1, 0
1, 0
0, 1
0, 1
1, 2
0, 0
2, 1
1, 1
1, 0
0, 0
0, 0
0, 0
1, 1
0, 0
0, 0
1, 1
1, 0
0, 0
0, 0
0, 0
0, 1
0, 0
0, 1
0, 1
0, 0
0, 0
1, 0
1, 1
0, 0
0, 0
0, 0
0, 0
0, 1
2, 1
0, 0
0, 0
0, 0
0, 1
0, 0
0, 0
0, 0
0, 0
0, 0
0, 0
0, 1
1, 0
0, 0
0, 0
0, 0
0, 0
0, 0
0, 0
0, 0
0, 0
0, 0
0, 1
0, 0
0, 0
0, 0
0, 0
0, 0
1, 0
0, 0
0, 1
0, 1
0, 0
0, 0
0, 0
0, 0
0, 0
0, 0
0, 1
0, 0
0, 0
0, 0
0, 0
0, 0
0, 0
0, 0
0, 0
0, 0
0, 0
0, 0
0, 0
0, 0
0, 0
0, 0
0, 0
0, 0
0, 0
0, 0
0, 0
0, 0
0, 0
0, 0
0, 0
0, 0
0, 0
0, 0
0, 0
0, 0
0, 0
0, 0
0, 0
0, 0
0, 0
0, 0
0, 0
0, 0
0, 0
0, 0
0, 0
0, 0
0, 0
0, 0
0, 0
0, 0
0, 0
0, 0
0, 0
0, 0
0, 0
0, 0
0, 0
0, 0
0, 0
0, 0
0, 0
0, 0
0, 0
0, 0
0, 0
0, 0
0, 0
0, 0
0, 0
0, 0
0, 0
0, 0
0, 0
0, 0
0, 0
0, 0
0, 0
0, 0
0, 0
0, 0
0, 0
0, 0
0, 0
0, 0
0, 0
0, 0
0, 0
0, 0
0, 0
#ENDOFDATA     end of spectrum data

File: ps__0852shot_2495.msa
#FORMAT      : EMSA/MAS spectral data file
#VERSION     : TC202v2.0 PIXL
#TITLE       : N/A
#DATE        :       Date in the format DD-MMM-YYYY, for example 07-JUL-2010
#TIME        :             The time of day at which the spectrum was recorded, in 24-hour format
#OWNER       : PIXL Flight Model       (PIXL will use this to indicate which instrument took the data.)
#NPOINTS     : 4096     Number of data points in the spectrum (This can be zero for configuration only files)
#NCOLUMNS    : 2     Number of data columns in the spectrum (This can be zero for configuration only files)
#XUNITS      : eV
#YUNITS      : COUNTS
#DATATYPE    : YY
#XPERCHAN    : 7.862, 7.881   eV per channel (separate by commas if more than one detector)
#OFFSET      : 18.5, -22.4         eV of first channel  (separate by commas if more than one detector
#SIGNALTYPE  : XRF
#YP_TEMP     : 2.428
#LIVETIME    : 8.55195, 8.5394   seconds (separate by commas if more than one detector)
#REALTIME    : 10, 10.0   seconds (separate by commas if more than one detector)
#SPECTRUM    : start of spectrum data
0, 0
0, 0
0, 0
0, 0
0, 0
0, 0
0, 0
0, 0
0, 0
1, 2
0, 1
32, 58
42, 51
3, 5
4, 3
100, 123
438, 504
105, 107
4, 7
1, 0
10, 7
28, 36
12, 13
17, 12
42, 51
42, 38
19, 16
9, 13
2, 7
1, 5
2, 2
2, 3
6, 6
98, 122
140, 192
19, 58
16, 43
12, 26
8, 7
5, 2
3, 12
8, 18
15, 20
18, 12
15, 3
7, 10
6, 6
5, 7
9, 12
19, 27
10, 18
8, 4
15, 7
45, 45
62, 68
20, 22
35, 32
423, 552
1909, 2342
1382, 1394
170, 138
20, 13
12, 24
93, 102
275, 380
188, 190
28, 25
11, 4
9, 10
11, 6
3, 12
3, 13
2, 1
4, 3
5, 3
13, 10
6, 3
5, 5
4, 5
8, 10
5, 6
7, 1
4, 6
1, 4
2, 2
4, 4
2, 1
6, 3
3, 2
3, 2
13, 3
21, 4
20, 7
4, 3
4, 9
3, 2
2, 6
0, 6
0, 5
1, 4
1, 7
2, 2
1, 2
4, 3
4, 0
4, 5
3, 3
2, 2
1, 1
2, 3
0, 1
0, 3
6, 1
3, 0
0, 3
2, 2
4, 4
4, 5
2, 1
2, 0
0, 3
2, 3
0, 2
2, 2
1, 4
0, 1
2, 1
0, 1
2, 2
0, 1
0, 0
0, 3
2, 1
1, 3
1, 0
1, 0
2, 2
2, 1
0, 1
2, 1
2, 1
0, 2
1, 1
1, 0
0, 1
0, 2
0, 1
0, 1
4, 0
0, 0
1, 0
0, 0
0, 0
1, 1
1, 0
1, 0
0, 2
0, 0
1, 0
0, 0
0, 0
1, 1
0, 0
0, 0
0, 0
0, 1
0, 0
0, 0
0, 1
0, 1
1, 0
0, 0
2, 0
0, 0
0, 0
0, 1
0, 0
0, 0
0, 0
0, 0
0, 1
0, 0
0, 1
0, 1
0, 1
0, 0
0, 0
0, 0
0, 0
0, 0
0, 0
0, 0
0, 1
0, 0
0, 0
0, 0
0, 0
0, 0
0, 0
0, 0
0, 0
0, 0
0, 0
0, 0
0, 0
0, 0
0, 0
0, 0
0, 0
0, 0
0, 0
0, 0
0, 0
0, 0
0, 0
0, 0
0, 0
0, 0
0, 0
0, 0
0, 0
0, 0
0, 0
0, 0
0, 0
0, 0
0, 0
0, 0
0, 0
0, 0
0, 0
0, 0
0, 0
0, 0
0, 0
0, 0
0, 0
0, 0
0, 0
0, 0
0, 0
0, 0
0, 0
0, 0
0, 0
0, 0
0, 0
0, 0
0, 0
0, 0
0, 0
0, 0
0, 0
0, 0
0, 0
0, 0
0, 0
0, 0
0, 0
0, 0
0, 0
0, 0
0, 0
0, 0
0, 0
0, 0
0, 0
0, 0
0, 0
0, 0
0, 0
0, 0
0, 0
0, 0
0, 0
0, 0
0, 0
0, 0
0, 0
0, 0
0, 0
0, 0
0, 0
0, 0
0, 0
0, 0
0, 0
0, 0
0, 0
0, 0
0, 0
0, 0
0, 0
0, 0
#ENDOFDATA     end of spectrum data

File: ps__0852shot_2496.msa
#FORMAT      : EMSA/MAS spectral data file
#VERSION     : TC202v2.0 PIXL
#TITLE       : N/A
#DATE        :       Date in the format DD-MMM-YYYY, for example 07-JUL-2010
#TIME        :             The time of day at which the spectrum was recorded, in 24-hour format
#OWNER       : PIXL Flight Model       (PIXL will use this to indicate which instrument took the data.)
#NPOINTS     : 4096     Number of data points in the spectrum (This can be zero for configuration only files)
#NCOLUMNS    : 2     Number of data columns in the spectrum (This can be zero for configuration only files)
#XUNITS      : eV
#YUNITS      : COUNTS
#DATATYPE    : YY
#XPERCHAN    : 7.862, 7.881   eV per channel (separate by commas if more than one detector)
#OFFSET      : 18.5, -22.4         eV of first channel  (separate by commas if more than one detector
#SIGNALTYPE  : XRF
#YP_TEMP     : 2.107
#LIVETIME    : 8.56679, 8.53996   seconds (separate by commas if more than one detector)
#REALTIME    : 10, 10.0   seconds (separate by commas if more than one detector)
#SPECTRUM    : start of spectrum data
0, 0
0, 0
0, 0
0, 0
0, 0
0, 0
0, 0
0, 0
3, 0
3, 1
1, 1
40, 43
40, 42
9, 7
4, 7
94, 105
409, 410
89, 93
5, 8
3, 4
4, 7
19, 20
4, 12
21, 25
59, 81
77, 55
30, 40
21, 18
7, 5
4, 3
2, 6
3, 2
8, 10
105, 163
220, 241
35, 70
24, 59
24, 34
20, 14
6, 5
11, 9
15, 19
17, 12
27, 13
11, 9
16, 9
6, 6
2, 12
15, 11
61, 59
48, 36
12, 16
22, 4
58, 57
74, 58
33, 24
36, 35
378, 529
1860, 2175
1355, 1321
156, 123
9, 20
25, 18
94, 118
293, 330
210, 159
33, 16
4, 3
10, 19
12, 15
9, 10
3, 9
4, 3
7, 4
13, 3
13, 5
4, 9
4, 4
3, 11
6, 4
1, 6
5, 2
3, 4
5, 6
12, 2
4, 9
3, 4
5, 2
4, 4
5, 3
3, 4
7, 4
7, 4
2, 5
2, 5
1, 4
3, 2
2, 0
4, 4
1, 3
2, 11
0, 5
4, 3
2, 2
3, 7
3, 5
2, 5
1, 0
1, 3
0, 3
1, 2
4, 0
1, 5
2, 3
1, 2
3, 5
2, 7
2, 5
1, 0
1, 0
3, 2
0, 0
4, 4
2, 2
2, 1
2, 2
1, 1
1, 0
0, 0
1, 1
0, 2
0, 2
1, 1
1, 2
1, 0
2, 1
0, 1
0, 0
1, 2
2, 0
2, 1
1, 2
0, 1
0, 2
0, 0
1, 1
0, 0
0, 1
0, 0
0, 0
0, 0
0, 0
1, 0
2, 0
0, 1
1, 0
1, 0
1, 0
0, 0
0, 0
0, 0
0, 2
0, 0
0, 0
1, 0
0, 0
0, 0
1, 0
0, 0
1, 0
0, 0
0, 0
0, 0
1, 0
0, 1
0, 0
0, 0
0, 0
0, 1
0, 1
0, 0
0, 1
0, 0
0, 0
0, 0
0, 0
0, 0
0, 0
0, 0
0, 0
0, 0
1, 0
0, 0
0, 0
0, 0
0, 0
0, 0
0, 0
0, 0
0, 0
0, 0
0, 0
0, 0
0, 0
0, 0
0, 0
0, 0
0, 0
0, 0
0, 0
0, 0
0, 0
0, 0
0, 0
0, 0
0, 0
0, 0
0, 0
0, 0
0, 0
0, 0
0, 0
0, 0
0, 0
0, 0
0, 0
0, 0
0, 0
0, 0
0, 0
0, 0
0, 0
0, 0
0, 0
0, 0
0, 0
0, 0
0, 0
0, 0
0, 0
0, 0
0, 0
0, 0
0, 0
0, 0
0, 0
0, 0
0, 0
0, 0
0, 0
0, 0
0, 0
0, 0
0, 0
0, 0
0, 0
0, 0
0, 0
0, 0
0, 0
0, 0
0, 0
0, 0
0, 0
0, 0
0, 0
0, 0
0, 0
0, 0
0, 0
0, 0
0, 0
0, 0
0, 0
0, 0
0, 0
0, 0
0, 0
0, 0
0, 0
0, 0
0, 0
0, 0
0, 0
0, 0
0, 0
0, 0
0, 0
0, 0
0, 0
0, 0
0, 0
0, 0
0, 0
#ENDOFDATA     end of spectrum data

File: ps__0852shot_2497.msa
#FORMAT      : EMSA/MAS spectral data file
#VERSION     : TC202v2.0 PIXL
#TITLE       : N/A
#DATE        :       Date in the format DD-MMM-YYYY, for example 07-JUL-2010
#TIME        :             The time of day at which the spectrum was recorded, in 24-hour format
#OWNER       : PIXL Flight Model       (PIXL will use this to indicate which instrument took the data.)
#NPOINTS     : 4096     Number of data points in the spectrum (This can be zero for configuration only files)
#NCOLUMNS    : 2     Number of data columns in the spectrum (This can be zero for configuration only files)
#XUNITS      : eV
#YUNITS      : COUNTS
#DATATYPE    : YY
#XPERCHAN    : 7.862, 7.881   eV per channel (separate by commas if more than one detector)
#OFFSET      : 18.5, -22.4         eV of first channel  (separate by commas if more than one detector
#SIGNALTYPE  : XRF
#YP_TEMP     : 2.556
#LIVETIME    : 8.5636, 8.55238   seconds (separate by commas if more than one detector)
#REALTIME    : 10, 10.0   seconds (separate by commas if more than one detector)
#SPECTRUM    : start of spectrum data
0, 0
0, 0
0, 0
0, 0
0, 0
0, 0
0, 0
0, 0
1, 0
4, 0
3, 1
37, 17
60, 50
6, 2
8, 3
118, 91
495, 393
116, 99
6, 5
0, 2
2, 4
9, 4
8, 5
24, 15
114, 90
70, 72
33, 32
19, 20
9, 5
4, 8
1, 1
1, 6
4, 1
37, 30
65, 44
14, 20
15, 8
19, 13
4, 7
3, 4
8, 2
15, 16
10, 15
16, 14
14, 5
8, 6
7, 7
4, 8
15, 9
66, 69
49, 39
18, 5
19, 12
44, 37
70, 57
21, 21
34, 40
462, 544
2338, 2022
1639, 1227
219, 120
14, 15
24, 15
96, 115
355, 332
237, 187
32, 25
7, 9
16, 14
11, 11
16, 1
10, 2
4, 13
9, 5
9, 7
14, 4
6, 4
5, 5
8, 1
5, 2
4, 4
4, 2
4, 0
6, 5
2, 12
2, 30
7, 21
3, 6
2, 7
7, 2
2, 2
3, 4
2, 2
1, 3
2, 2
2, 1
3, 1
1, 4
3, 2
3, 4
2, 5
1, 6
1, 1
2, 1
1, 1
4, 1
0, 1
8, 3
3, 1
0, 4
2, 2
3, 2
0, 2
1, 1
1, 2
2, 1
0, 1
2, 2
4, 2
2, 2
0, 4
1, 1
1, 0
1, 0
3, 1
0, 0
3, 3
1, 0
1, 0
2, 3
1, 2
0, 0
0, 0
1, 0
1, 1
3, 3
0, 0
1, 1
2, 0
1, 1
1, 0
0, 1
0, 0
0, 1
0, 1
0, 0
0, 0
2, 1
0, 0
1, 0
1, 1
0, 1
2, 0
1, 1
0, 0
0, 0
0, 1
0, 0
1, 0
0, 0
1, 0
0, 0
0, 0
1, 1
0, 0
0, 0
1, 0
1, 0
2, 0
0, 0
1, 0
0, 0
0, 0
0, 0
1, 0
1, 0
0, 1
0, 0
0, 0
0, 0
0, 0
0, 1
1, 0
0, 0
1, 0
0, 0
0, 0
1, 0
0, 0
0, 0
1, 0
0, 0
0, 0
0, 0
0, 0
1, 0
0, 0
0, 0
0, 0
0, 0
0, 0
0, 0
0, 0
0, 0
0, 0
0, 0
0, 0
0, 0
0, 1
0, 0
0, 0
0, 0
0, 0
0, 0
0, 0
0, 0
0, 0
0, 0
0, 0
0, 0
0, 0
0, 0
0, 0
0, 0
0, 0
0, 0
0, 0
0, 0
0, 0
0, 0
0, 0
0, 0
0, 0
0, 0
0, 0
0, 0
0, 0
0, 0
0, 0
0, 0
0, 0
0, 0
0, 0
0, 0
0, 0
0, 0
0, 0
0, 0
0, 0
0, 0
0, 0
0, 0
0, 0
0, 0
0, 0
0, 0
0, 0
0, 0
0, 0
0, 0
0, 0
0, 0
0, 0
0, 0
0, 0
0, 0
0, 0
0, 0
0, 0
0, 0
0, 0
0, 0
0, 0
0, 0
0, 0
0, 0
0, 0
0, 0
0, 0
0, 0
0, 0
0, 0
0, 0
0, 0
0, 0
0, 0
0, 0
0, 0
0, 0
0, 0
0, 0
0, 0
0, 0
0, 0
#ENDOFDATA     end of spectrum data

File: ps__0852shot_2498.msa
#FORMAT      : EMSA/MAS spectral data file
#VERSION     : TC202v2.0 PIXL
#TITLE       : N/A
#DATE        :       Date in the format DD-MMM-YYYY, for example 07-JUL-2010
#TIME        :             The time of day at which the spectrum was recorded, in 24-hour format
#OWNER       : PIXL Flight Model       (PIXL will use this to indicate which instrument took the data.)
#NPOINTS     : 4096     Number of data points in the spectrum (This can be zero for configuration only files)
#NCOLUMNS    : 2     Number of data columns in the spectrum (This can be zero for configuration only files)
#XUNITS      : eV
#YUNITS      : COUNTS
#DATATYPE    : YY
#XPERCHAN    : 7.862, 7.881   eV per channel (separate by commas if more than one detector)
#OFFSET      : 18.5, -22.4         eV of first channel  (separate by commas if more than one detector
#SIGNALTYPE  : XRF
#YP_TEMP     : 2.267
#LIVETIME    : 8.55637, 8.56623   seconds (separate by commas if more than one detector)
#REALTIME    : 10, 10.0   seconds (separate by commas if more than one detector)
#SPECTRUM    : start of spectrum data
0, 0
0, 0
0, 0
0, 0
0, 0
0, 0
0, 0
0, 0
1, 1
1, 2
5, 1
38, 36
46, 63
4, 3
1, 5
104, 89
501, 433
122, 107
6, 8
1, 2
4, 1
6, 4
4, 4
14, 18
64, 53
39, 45
27, 20
22, 16
6, 4
2, 1
3, 2
1, 0
0, 5
38, 26
53, 45
27, 6
48, 6
28, 7
3, 6
3, 6
3, 7
13, 9
23, 13
8, 17
9, 6
6, 9
5, 2
3, 11
6, 3
16, 18
9, 6
11, 9
15, 8
42, 41
66, 49
17, 20
34, 31
448, 518
2146, 2205
1588, 1311
202, 123
21, 10
17, 17
109, 110
309, 335
254, 188
35, 20
9, 6
15, 14
15, 13
10, 3
18, 3
15, 3
12, 3
17, 8
13, 6
4, 7
3, 3
3, 6
3, 2
3, 4
5, 4
4, 4
4, 2
6, 8
1, 33
12, 23
6, 12
7, 6
1, 3
3, 1
2, 3
4, 4
5, 2
4, 5
2, 7
5, 3
1, 4
0, 3
1, 1
2, 2
2, 1
2, 4
1, 3
0, 2
3, 1
11, 1
6, 3
1, 2
3, 0
2, 1
1, 1
1, 2
2, 1
1, 2
3, 1
4, 3
4, 2
3, 2
3, 1
4, 2
2, 2
1, 1
1, 3
4, 2
0, 1
1, 2
2, 0
0, 2
1, 0
0, 0
2, 2
0, 2
0, 0
1, 1
0, 1
1, 0
1, 1
2, 0
1, 2
2, 0
1, 0
0, 1
0, 2
1, 0
0, 0
3, 1
1, 0
0, 0
0, 1
0, 0
0, 1
0, 1
0, 1
0, 1
0, 1
0, 0
0, 0
0, 0
0, 1
0, 0
0, 0
0, 1
0, 0
0, 0
0, 1
0, 1
0, 1
0, 0
0, 1
0, 1
0, 0
0, 0
0, 0
0, 0
0, 0
1, 0
0, 0
0, 0
0, 1
0, 0
0, 0
0, 0
0, 0
0, 0
1, 0
0, 0
0, 0
0, 0
2, 0
0, 0
0, 0
0, 0
0, 0
0, 0
1, 1
0, 0
0, 0
1, 0
0, 0
0, 0
0, 0
0, 0
0, 0
0, 0
0, 0
0, 0
0, 0
0, 0
0, 0
0, 0
0, 0
0, 0
0, 0
0, 0
0, 0
0, 0
0, 0
0, 0
0, 0
0, 0
0, 0
0, 0
0, 0
0, 0
0, 0
0, 0
0, 0
0, 0
0, 0
0, 0
0, 0
0, 0
0, 0
0, 0
0, 0
0, 0
0, 0
0, 0
0, 0
0, 0
0, 0
0, 0
0, 0
0, 0
0, 0
0, 0
0, 0
0, 0
0, 0
0, 0
0, 0
0, 0
0, 0
0, 0
0, 0
0, 0
0, 0
0, 0
0, 0
0, 0
0, 0
0, 0
0, 0
0, 0
0, 0
0, 0
0, 0
0, 0
0, 0
0, 0
0, 0
0, 0
0, 0
0, 0
0, 0
0, 0
0, 0
0, 0
0, 0
0, 0
0, 0
0, 0
0, 0
0, 0
0, 0
0, 0
0, 0
0, 0
0, 0
0, 0
0, 0
0, 0
0, 0
#ENDOFDATA     end of spectrum data

File: ps__0852shot_2499.msa
#FORMAT      : EMSA/MAS spectral data file
#VERSION     : TC202v2.0 PIXL
#TITLE       : N/A
#DATE        :       Date in the format DD-MMM-YYYY, for example 07-JUL-2010
#TIME        :             The time of day at which the spectrum was recorded, in 24-hour format
#OWNER       : PIXL Flight Model       (PIXL will use this to indicate which instrument took the data.)
#NPOINTS     : 4096     Number of data points in the spectrum (This can be zero for configuration only files)
#NCOLUMNS    : 2     Number of data columns in the spectrum (This can be zero for configuration only files)
#XUNITS      : eV
#YUNITS      : COUNTS
#DATATYPE    : YY
#XPERCHAN    : 7.862, 7.881   eV per channel (separate by commas if more than one detector)
#OFFSET      : 18.5, -22.4         eV of first channel  (separate by commas if more than one detector
#SIGNALTYPE  : XRF
#YP_TEMP     : 2.396
#LIVETIME    : 8.54292, 8.37685   seconds (separate by commas if more than one detector)
#REALTIME    : 10, 10.0   seconds (separate by commas if more than one detector)
#SPECTRUM    : start of spectrum data
0, 0
0, 0
0, 0
0, 0
0, 0
0, 0
0, 0
0, 0
0, 1
1, 1
2, 5
27, 34
44, 44
5, 6
4, 8
70, 91
390, 451
104, 94
5, 10
3, 0
1, 2
5, 4
1, 4
10, 20
49, 55
38, 39
20, 31
9, 13
6, 4
3, 1
2, 8
4, 1
5, 7
67, 84
124, 117
30, 11
36, 20
26, 18
6, 2
7, 7
13, 22
60, 52
28, 35
13, 7
7, 16
16, 11
11, 11
11, 17
88, 126
439, 520
335, 289
41, 38
11, 11
64, 77
135, 138
62, 53
33, 43
375, 526
1858, 2082
1331, 1220
167, 119
14, 18
9, 13
82, 125
307, 336
186, 189
30, 27
6, 7
12, 14
9, 8
8, 2
18, 4
21, 10
7, 8
14, 5
12, 9
4, 5
2, 4
2, 2
0, 5
4, 5
7, 4
3, 4
2, 8
3, 10
5, 18
6, 19
3, 8
5, 6
7, 0
2, 5
2, 3
3, 2
3, 1
2, 5
5, 3
3, 2
1, 2
2, 3
1, 4
3, 3
1, 3
0, 2
3, 3
2, 0
2, 1
3, 4
5, 7
3, 2
7, 5
3, 2
0, 5
3, 2
2, 2
3, 2
1, 0
1, 3
2, 0
0, 2
2, 1
0, 2
3, 3
2, 1
2, 0
2, 1
0, 3
2, 1
0, 1
0, 1
1, 2
2, 1
0, 0
2, 0
0, 0
3, 1
1, 2
0, 0
1, 0
0, 0
1, 0
0, 1
0, 0
0, 0
0, 0
0, 0
0, 1
1, 0
0, 0
2, 0
0, 0
0, 0
0, 0
0, 0
0, 0
1, 0
1, 0
1, 0
1, 1
1, 0
0, 0
0, 0
0, 0
0, 0
0, 0
0, 0
1, 0
1, 1
1, 0
1, 2
0, 0
0, 0
0, 0
0, 1
0, 1
0, 0
0, 0
0, 1
0, 1
0, 0
0, 0
0, 0
0, 0
0, 0
0, 0
0, 1
0, 0
0, 0
0, 0
0, 0
0, 0
0, 0
0, 0
0, 0
0, 0
0, 0
0, 0
0, 1
0, 0
0, 0
0, 0
0, 0
0, 0
0, 0
0, 0
0, 0
0, 0
0, 0
0, 0
0, 0
0, 0
0, 0
0, 0
0, 0
0, 0
0, 0
0, 0
0, 0
0, 0
0, 0
0, 0
0, 0
0, 0
0, 0
0, 0
0, 0
0, 0
0, 0
0, 0
0, 0
0, 0
0, 0
0, 0
0, 0
0, 0
0, 0
0, 0
0, 0
0, 0
0, 0
0, 0
0, 0
0, 0
0, 0
0, 0
0, 0
0, 0
0, 0
0, 0
0, 0
0, 0
0, 0
0, 0
0, 0
0, 0
0, 0
0, 0
0, 0
0, 0
0, 0
0, 0
0, 0
0, 0
0, 0
0, 0
0, 0
0, 0
0, 0
0, 0
0, 0
0, 0
0, 0
0, 0
0, 0
0, 0
0, 0
0, 0
0, 0
0, 0
0, 0
0, 0
0, 0
0, 0
0, 0
0, 0
0, 0
0, 0
0, 0
0, 0
0, 0
0, 0
0, 0
0, 0
0, 0
0, 0
#ENDOFDATA     end of spectrum data

File: ps__0852shot_2500.msa
#FORMAT      : EMSA/MAS spectral data file
#VERSION     : TC202v2.0 PIXL
#TITLE       : N/A
#DATE        :       Date in the format DD-MMM-YYYY, for example 07-JUL-2010
#TIME        :             The time of day at which the spectrum was recorded, in 24-hour format
#OWNER       : PIXL Flight Model       (PIXL will use this to indicate which instrument took the data.)
#NPOINTS     : 4096     Number of data points in the spectrum (This can be zero for configuration only files)
#NCOLUMNS    : 2     Number of data columns in the spectrum (This can be zero for configuration only files)
#XUNITS      : eV
#YUNITS      : COUNTS
#DATATYPE    : YY
#XPERCHAN    : 7.862, 7.881   eV per channel (separate by commas if more than one detector)
#OFFSET      : 18.5, -22.4         eV of first channel  (separate by commas if more than one detector
#SIGNALTYPE  : XRF
#YP_TEMP     : 2.396
#LIVETIME    : 8.55426, 8.55002   seconds (separate by commas if more than one detector)
#REALTIME    : 10, 10.0   seconds (separate by commas if more than one detector)
#SPECTRUM    : start of spectrum data
0, 0
0, 0
0, 0
0, 0
0, 0
0, 0
0, 0
0, 1
0, 1
2, 0
2, 3
48, 51
53, 44
7, 8
2, 5
90, 91
359, 366
82, 77
4, 4
3, 2
0, 2
3, 2
3, 4
11, 9
37, 27
36, 33
21, 20
8, 14
5, 11
2, 3
2, 2
4, 1
2, 4
26, 26
37, 49
27, 9
18, 4
10, 9
1, 5
2, 24
14, 23
62, 74
46, 38
8, 14
10, 15
22, 9
6, 14
10, 17
117, 175
639, 792
484, 511
56, 49
8, 19
80, 81
147, 197
59, 139
31, 50
387, 599
1811, 2201
1260, 1267
150, 126
19, 31
19, 56
97, 127
277, 316
191, 179
20, 43
4, 16
11, 14
4, 9
6, 5
7, 3
5, 1
6, 3
6, 9
2, 1
2, 14
4, 3
3, 4
3, 4
5, 3
4, 4
4, 7
3, 1
3, 3
5, 3
2, 4
2, 2
0, 5
4, 2
3, 1
0, 2
0, 7
1, 2
3, 6
1, 1
1, 3
0, 3
1, 0
2, 4
2, 2
1, 3
3, 4
0, 3
2, 1
1, 3
0, 0
1, 6
6, 2
3, 3
0, 4
1, 1
1, 1
5, 0
1, 2
4, 7
4, 7
3, 2
1, 1
0, 2
0, 1
1, 0
1, 0
1, 2
0, 3
0, 2
0, 3
0, 0
1, 0
1, 1
1, 2
0, 0
1, 2
0, 0
0, 3
0, 0
0, 1
0, 0
0, 2
0, 0
0, 1
0, 1
2, 0
0, 0
2, 1
0, 0
1, 2
1, 0
0, 1
0, 0
0, 0
1, 0
0, 1
0, 0
0, 2
0, 1
0, 0
0, 0
0, 0
1, 0
0, 1
0, 0
0, 0
0, 0
1, 0
0, 0
0, 0
0, 0
0, 0
0, 0
0, 0
0, 1
0, 1
0, 0
0, 0
1, 0
0, 0
0, 1
0, 0
0, 0
0, 1
0, 0
0, 0
0, 0
0, 0
1, 0
0, 0
0, 0
0, 0
0, 0
0, 2
0, 0
0, 0
0, 0
0, 0
0, 0
0, 0
0, 0
0, 0
0, 0
0, 0
0, 0
0, 0
0, 0
0, 0
0, 0
0, 0
1, 0
0, 0
0, 0
0, 0
0, 0
0, 0
0, 0
0, 0
0, 0
0, 0
0, 0
0, 0
0, 0
0, 0
0, 0
0, 0
0, 0
0, 0
0, 0
0, 0
0, 0
0, 0
0, 0
0, 0
0, 0
0, 0
0, 0
0, 0
0, 0
0, 0
0, 0
0, 0
0, 0
0, 0
0, 0
0, 0
0, 0
0, 0
0, 0
0, 0
0, 0
0, 0
0, 0
0, 0
0, 0
0, 0
0, 0
0, 0
0, 0
0, 0
0, 0
0, 0
0, 0
0, 0
0, 0
0, 0
0, 0
0, 0
0, 0
0, 0
0, 0
0, 0
0, 0
0, 0
0, 0
0, 0
0, 0
0, 0
0, 0
0, 0
0, 0
0, 0
0, 0
0, 0
0, 0
0, 0
0, 0
0, 0
0, 0
0, 0
0, 0
0, 0
0, 0
0, 0
0, 0
0, 0
0, 0
#ENDOFDATA     end of spectrum data