Folder: data-repository/host_upload/06-09-2024/ps_0852/dump3 (part 34)

File: ps__0852shot_2300.msa
#FORMAT      : EMSA/MAS spectral data file
#VERSION     : TC202v2.0 PIXL
#TITLE       : N/A
#DATE        :       Date in the format DD-MMM-YYYY, for example 07-JUL-2010
#TIME        :             The time of day at which the spectrum was recorded, in 24-hour format
#OWNER       : PIXL Flight Model       (PIXL will use this to indicate which instrument took the data.)
#NPOINTS     : 4096     Number of data points in the spectrum (This can be zero for configuration only files)
#NCOLUMNS    : 2     Number of data columns in the spectrum (This can be zero for configuration only files)
#XUNITS      : eV
#YUNITS      : COUNTS
#DATATYPE    : YY
#XPERCHAN    : 7.862, 7.881   eV per channel (separate by commas if more than one detector)
#OFFSET      : 18.5, -22.4         eV of first channel  (separate by commas if more than one detector
#SIGNALTYPE  : XRF
#YP_TEMP     : 2.364
#LIVETIME    : 8.54446, 8.57026   seconds (separate by commas if more than one detector)
#REALTIME    : 10, 10.0   seconds (separate by commas if more than one detector)
#SPECTRUM    : start of spectrum data
0, 0
0, 0
0, 0
0, 0
0, 0
0, 0
0, 0
0, 0
3, 1
2, 0
4, 2
58, 49
58, 59
2, 5
6, 5
109, 93
452, 416
121, 94
13, 8
3, 4
1, 1
7, 6
5, 1
5, 4
29, 30
42, 30
22, 22
13, 16
2, 10
2, 0
3, 1
1, 4
6, 9
41, 27
75, 41
15, 10
6, 8
11, 16
6, 11
4, 8
11, 5
13, 11
19, 20
14, 18
9, 23
5, 16
6, 8
6, 7
13, 12
25, 15
35, 10
25, 6
20, 27
33, 46
70, 58
21, 27
21, 38
461, 555
2151, 2330
1588, 1258
196, 131
18, 18
21, 27
96, 129
335, 353
248, 198
35, 30
13, 7
18, 7
10, 5
5, 10
4, 2
2, 5
5, 7
5, 6
5, 7
5, 7
5, 4
7, 6
8, 7
5, 0
7, 4
6, 3
8, 12
8, 13
2, 7
5, 11
1, 4
2, 4
3, 2
3, 0
2, 2
10, 2
1, 5
2, 6
7, 1
3, 0
3, 1
3, 6
5, 1
4, 4
5, 5
5, 2
2, 7
3, 4
4, 2
1, 2
1, 2
2, 2
1, 1
2, 0
2, 2
4, 2
4, 3
3, 3
3, 2
5, 4
4, 6
1, 2
1, 2
1, 0
1, 2
1, 0
1, 2
2, 0
1, 2
1, 1
3, 0
0, 0
2, 0
0, 0
1, 0
0, 0
0, 1
0, 0
1, 1
1, 0
1, 2
1, 2
1, 1
0, 1
1, 0
0, 0
0, 2
1, 0
0, 1
1, 0
0, 0
0, 0
1, 0
0, 1
0, 0
0, 0
1, 0
1, 0
0, 0
1, 1
0, 0
0, 0
0, 0
0, 0
0, 0
0, 1
0, 1
0, 0
0, 0
0, 0
0, 1
0, 0
0, 0
1, 1
0, 1
1, 0
0, 0
0, 0
0, 0
0, 0
0, 0
0, 1
0, 1
0, 0
0, 0
0, 0
0, 1
1, 0
0, 0
0, 0
0, 0
0, 0
0, 0
0, 0
0, 0
1, 0
0, 0
0, 0
0, 0
0, 0
0, 0
0, 0
0, 0
0, 0
0, 0
0, 0
0, 0
0, 0
0, 0
0, 0
0, 0
0, 0
0, 0
0, 0
0, 0
0, 0
0, 0
0, 0
0, 0
0, 0
0, 0
0, 0
0, 0
0, 0
0, 0
0, 0
0, 0
0, 0
0, 0
0, 0
0, 0
0, 0
0, 0
0, 0
0, 0
0, 0
0, 0
0, 0
0, 0
0, 0
0, 0
0, 0
0, 0
0, 0
0, 0
0, 0
0, 0
0, 0
0, 0
0, 0
0, 0
0, 0
0, 0
0, 0
0, 0
0, 0
0, 0
0, 0
0, 0
0, 0
0, 0
0, 0
0, 0
0, 0
0, 0
0, 0
0, 0
0, 0
0, 0
0, 0
0, 0
0, 0
0, 0
0, 0
0, 0
0, 0
0, 0
0, 0
0, 0
0, 0
0, 0
0, 0
0, 0
0, 0
0, 0
0, 0
0, 0
0, 0
0, 0
0, 0
0, 0
0, 0
0, 0
0, 0
0, 0
0, 0
0, 0
#ENDOFDATA     end of spectrum data

File: ps__0852shot_2301.msa
#FORMAT      : EMSA/MAS spectral data file
#VERSION     : TC202v2.0 PIXL
#TITLE       : N/A
#DATE        :       Date in the format DD-MMM-YYYY, for example 07-JUL-2010
#TIME        :             The time of day at which the spectrum was recorded, in 24-hour format
#OWNER       : PIXL Flight Model       (PIXL will use this to indicate which instrument took the data.)
#NPOINTS     : 4096     Number of data points in the spectrum (This can be zero for configuration only files)
#NCOLUMNS    : 2     Number of data columns in the spectrum (This can be zero for configuration only files)
#XUNITS      : eV
#YUNITS      : COUNTS
#DATATYPE    : YY
#XPERCHAN    : 7.862, 7.881   eV per channel (separate by commas if more than one detector)
#OFFSET      : 18.5, -22.4         eV of first channel  (separate by commas if more than one detector
#SIGNALTYPE  : XRF
#YP_TEMP     : 2.524
#LIVETIME    : 8.55765, 8.57729   seconds (separate by commas if more than one detector)
#REALTIME    : 10, 10.0   seconds (separate by commas if more than one detector)
#SPECTRUM    : start of spectrum data
0, 0
0, 0
0, 0
0, 0
0, 0
0, 0
0, 0
0, 0
0, 0
2, 0
2, 6
41, 45
77, 62
8, 6
1, 4
81, 101
432, 416
136, 98
6, 4
2, 0
1, 2
2, 1
5, 2
6, 4
16, 24
28, 23
20, 19
13, 12
3, 6
3, 1
1, 3
5, 3
4, 2
28, 21
22, 21
8, 6
3, 5
6, 3
3, 6
4, 3
4, 4
8, 10
18, 23
18, 15
8, 13
9, 4
6, 4
4, 11
11, 10
20, 11
39, 11
26, 10
14, 18
34, 39
64, 51
25, 29
25, 28
494, 557
2252, 2275
1611, 1322
185, 145
17, 14
22, 21
108, 113
332, 354
235, 194
45, 25
18, 8
16, 13
10, 9
3, 5
4, 4
3, 5
6, 11
7, 12
10, 6
6, 5
2, 6
3, 10
7, 8
6, 2
4, 5
3, 4
4, 21
2, 13
3, 3
7, 4
6, 2
2, 5
2, 6
2, 7
4, 1
5, 2
3, 4
4, 3
5, 1
6, 2
0, 4
2, 2
5, 4
5, 0
2, 2
5, 3
2, 3
1, 2
1, 7
1, 5
2, 2
4, 1
3, 1
2, 0
5, 2
3, 2
5, 0
1, 3
3, 5
7, 5
3, 5
3, 0
2, 1
2, 1
2, 2
2, 1
3, 1
1, 2
1, 2
0, 3
0, 2
1, 2
1, 0
0, 3
0, 1
2, 1
1, 1
2, 0
0, 1
1, 1
0, 2
1, 0
0, 1
1, 2
0, 1
0, 1
0, 1
0, 0
1, 1
2, 0
1, 1
1, 0
0, 0
0, 1
0, 0
0, 0
0, 0
0, 0
0, 0
0, 0
0, 0
1, 0
1, 0
0, 0
0, 2
0, 0
0, 1
0, 0
0, 0
1, 1
0, 0
0, 1
0, 0
1, 0
1, 1
1, 0
0, 0
0, 0
0, 0
0, 0
1, 0
0, 0
0, 0
0, 0
0, 0
0, 0
1, 0
0, 0
0, 0
0, 1
0, 0
0, 0
0, 0
0, 0
1, 0
0, 0
0, 0
0, 0
0, 0
1, 0
0, 1
0, 0
0, 0
0, 0
0, 0
0, 0
0, 0
0, 0
0, 0
0, 1
0, 0
0, 0
0, 0
0, 0
0, 0
0, 0
0, 0
0, 0
0, 0
0, 0
0, 0
0, 0
0, 0
0, 0
0, 0
0, 0
0, 0
1, 0
0, 0
0, 0
0, 0
0, 0
0, 0
0, 0
0, 0
0, 0
0, 0
0, 0
0, 0
0, 0
0, 0
0, 0
0, 0
0, 0
0, 0
0, 0
0, 0
0, 0
0, 0
0, 0
0, 0
0, 0
0, 0
0, 0
0, 0
0, 0
0, 0
0, 0
0, 0
0, 0
0, 0
0, 0
0, 0
0, 0
0, 0
0, 0
0, 0
0, 0
0, 0
0, 0
0, 0
0, 0
0, 0
0, 0
0, 0
0, 0
0, 0
0, 0
0, 0
0, 0
0, 0
0, 0
0, 0
0, 0
0, 0
0, 0
0, 0
0, 0
0, 0
0, 0
0, 0
0, 0
0, 0
0, 0
0, 0
0, 0
0, 0
#ENDOFDATA     end of spectrum data

File: ps__0852shot_2302.msa
#FORMAT      : EMSA/MAS spectral data file
#VERSION     : TC202v2.0 PIXL
#TITLE       : N/A
#DATE        :       Date in the format DD-MMM-YYYY, for example 07-JUL-2010
#TIME        :             The time of day at which the spectrum was recorded, in 24-hour format
#OWNER       : PIXL Flight Model       (PIXL will use this to indicate which instrument took the data.)
#NPOINTS     : 4096     Number of data points in the spectrum (This can be zero for configuration only files)
#NCOLUMNS    : 2     Number of data columns in the spectrum (This can be zero for configuration only files)
#XUNITS      : eV
#YUNITS      : COUNTS
#DATATYPE    : YY
#XPERCHAN    : 7.862, 7.881   eV per channel (separate by commas if more than one detector)
#OFFSET      : 18.5, -22.4         eV of first channel  (separate by commas if more than one detector
#SIGNALTYPE  : XRF
#YP_TEMP     : 2.043
#LIVETIME    : 8.56855, 8.57274   seconds (separate by commas if more than one detector)
#REALTIME    : 10, 10.0   seconds (separate by commas if more than one detector)
#SPECTRUM    : start of spectrum data
0, 0
0, 0
0, 0
0, 0
0, 0
0, 0
0, 0
0, 0
0, 0
0, 0
2, 2
52, 40
63, 50
9, 8
6, 8
106, 96
480, 399
111, 85
2, 4
2, 2
3, 0
4, 3
2, 2
3, 4
24, 21
47, 25
27, 19
17, 9
5, 2
2, 1
1, 3
4, 1
7, 7
19, 13
21, 16
5, 6
5, 6
7, 7
4, 1
1, 3
4, 7
11, 6
15, 11
5, 8
4, 5
12, 5
6, 6
7, 7
8, 5
24, 14
34, 6
16, 25
10, 30
56, 35
63, 49
27, 13
44, 30
534, 558
2311, 2175
1684, 1277
186, 135
19, 17
23, 17
116, 132
372, 357
254, 191
45, 26
19, 13
11, 20
12, 10
8, 1
4, 3
7, 1
4, 7
11, 4
7, 1
3, 6
4, 4
4, 9
6, 9
9, 3
3, 3
4, 11
4, 21
7, 23
3, 9
1, 3
2, 7
3, 5
3, 7
3, 2
2, 3
1, 2
2, 0
4, 5
1, 1
1, 4
2, 2
3, 3
2, 4
7, 3
1, 2
1, 3
5, 6
1, 5
3, 4
3, 5
7, 1
0, 2
1, 1
1, 2
4, 3
4, 3
7, 3
2, 3
2, 4
4, 6
3, 5
3, 1
1, 0
0, 0
1, 1
3, 1
1, 0
2, 1
0, 0
0, 2
2, 2
0, 2
2, 0
1, 0
1, 2
0, 0
1, 0
0, 1
1, 1
0, 1
3, 1
0, 0
0, 1
0, 1
1, 0
3, 2
1, 1
0, 1
1, 0
2, 0
1, 0
1, 0
0, 0
0, 0
0, 0
0, 0
0, 0
2, 0
0, 0
0, 0
0, 2
2, 0
0, 1
1, 1
0, 0
1, 0
0, 0
1, 0
1, 1
0, 1
0, 0
0, 2
1, 1
0, 0
0, 1
1, 0
0, 0
0, 0
0, 0
0, 0
0, 0
0, 0
0, 0
0, 0
0, 0
0, 0
1, 0
0, 0
0, 0
0, 0
0, 1
0, 0
0, 0
0, 0
0, 0
0, 0
0, 0
0, 0
0, 0
0, 0
0, 0
0, 0
0, 1
0, 0
0, 0
0, 0
0, 0
0, 0
0, 0
0, 0
0, 0
0, 0
0, 1
0, 0
0, 0
0, 0
0, 0
0, 0
0, 0
0, 0
0, 0
0, 0
0, 0
0, 0
0, 0
0, 0
0, 0
0, 0
0, 0
0, 0
0, 0
0, 0
0, 0
0, 0
0, 0
0, 0
0, 0
0, 0
0, 0
0, 0
0, 0
0, 0
0, 0
0, 0
0, 0
0, 0
0, 0
0, 0
0, 0
0, 0
0, 0
0, 0
0, 0
0, 0
0, 0
0, 0
0, 0
0, 0
0, 0
0, 0
0, 0
0, 0
0, 0
0, 0
0, 0
0, 0
0, 0
0, 0
0, 0
0, 0
0, 0
0, 0
0, 0
0, 0
0, 0
0, 0
0, 0
0, 0
0, 0
0, 0
0, 0
0, 0
0, 0
0, 0
0, 0
0, 0
0, 0
0, 0
0, 0
0, 0
0, 0
0, 0
0, 0
0, 0
0, 0
0, 0
0, 0
#ENDOFDATA     end of spectrum data

File: ps__0852shot_2303.msa
#FORMAT      : EMSA/MAS spectral data file
#VERSION     : TC202v2.0 PIXL
#TITLE       : N/A
#DATE        :       Date in the format DD-MMM-YYYY, for example 07-JUL-2010
#TIME        :             The time of day at which the spectrum was recorded, in 24-hour format
#OWNER       : PIXL Flight Model       (PIXL will use this to indicate which instrument took the data.)
#NPOINTS     : 4096     Number of data points in the spectrum (This can be zero for configuration only files)
#NCOLUMNS    : 2     Number of data columns in the spectrum (This can be zero for configuration only files)
#XUNITS      : eV
#YUNITS      : COUNTS
#DATATYPE    : YY
#XPERCHAN    : 7.862, 7.881   eV per channel (separate by commas if more than one detector)
#OFFSET      : 18.5, -22.4         eV of first channel  (separate by commas if more than one detector
#SIGNALTYPE  : XRF
#YP_TEMP     : 2.332
#LIVETIME    : 8.5652, 8.56997   seconds (separate by commas if more than one detector)
#REALTIME    : 10, 10.0   seconds (separate by commas if more than one detector)
#SPECTRUM    : start of spectrum data
0, 0
0, 0
0, 0
0, 0
0, 0
0, 0
0, 0
0, 0
0, 0
0, 3
2, 3
56, 31
64, 41
6, 5
4, 4
84, 78
446, 378
121, 88
5, 8
3, 2
1, 2
5, 2
1, 0
4, 4
46, 16
74, 27
24, 12
7, 8
4, 5
2, 5
1, 2
2, 3
10, 5
38, 24
30, 27
5, 6
4, 6
9, 8
7, 2
5, 3
6, 3
13, 16
10, 13
9, 10
5, 9
8, 5
12, 8
6, 7
14, 8
19, 13
24, 14
23, 15
22, 20
74, 36
92, 58
24, 25
32, 52
541, 550
2271, 2122
1660, 1288
205, 116
22, 20
14, 16
91, 111
366, 313
246, 185
39, 19
15, 9
19, 16
12, 6
10, 6
4, 3
6, 1
8, 3
10, 5
5, 10
3, 5
4, 5
4, 7
2, 3
7, 3
4, 5
2, 6
3, 19
5, 15
6, 6
6, 1
7, 8
6, 16
3, 10
3, 2
5, 2
4, 3
2, 4
2, 3
6, 4
3, 4
3, 0
3, 1
5, 3
3, 2
3, 3
1, 6
3, 3
3, 3
0, 3
6, 3
3, 3
5, 2
3, 1
2, 3
1, 3
1, 1
5, 2
3, 1
5, 1
6, 4
5, 5
3, 2
1, 2
0, 4
3, 1
2, 2
7, 2
1, 1
0, 1
3, 1
2, 0
2, 1
2, 2
0, 1
0, 0
2, 1
1, 0
2, 1
0, 1
0, 2
0, 1
2, 2
0, 0
1, 1
0, 0
1, 0
0, 0
0, 1
0, 1
1, 1
2, 0
0, 0
1, 1
2, 1
0, 0
1, 0
0, 0
2, 1
0, 1
1, 0
1, 0
0, 1
0, 2
0, 1
0, 0
1, 0
0, 0
0, 0
0, 0
1, 1
0, 0
0, 0
0, 0
1, 0
0, 0
1, 0
0, 0
0, 1
0, 0
0, 2
0, 0
0, 0
2, 0
0, 0
0, 0
1, 0
0, 0
0, 0
0, 0
0, 0
0, 0
0, 0
0, 0
0, 0
0, 0
0, 0
0, 0
0, 0
0, 0
0, 0
0, 0
0, 0
0, 0
0, 0
0, 0
0, 0
0, 0
0, 0
0, 0
0, 0
0, 0
0, 0
0, 0
0, 0
0, 0
0, 0
0, 0
0, 0
0, 0
0, 0
0, 0
0, 0
0, 0
0, 0
0, 0
0, 0
0, 0
0, 0
0, 0
0, 0
0, 0
0, 0
0, 0
0, 0
0, 0
0, 0
0, 0
0, 0
0, 0
0, 0
0, 0
0, 0
0, 0
0, 0
0, 0
0, 0
0, 0
0, 0
0, 0
0, 0
0, 0
0, 0
0, 0
0, 0
0, 0
0, 0
0, 0
0, 0
0, 0
0, 0
0, 0
0, 0
0, 0
0, 0
0, 0
0, 0
0, 0
0, 0
0, 0
0, 0
0, 0
0, 0
0, 0
0, 0
0, 0
0, 0
0, 0
0, 0
0, 0
0, 0
0, 0
0, 0
0, 0
0, 0
0, 0
0, 0
0, 0
0, 0
0, 0
0, 0
0, 0
0, 0
0, 0
0, 0
0, 0
0, 0
0, 0
#ENDOFDATA     end of spectrum data

File: ps__0852shot_2304.msa
#FORMAT      : EMSA/MAS spectral data file
#VERSION     : TC202v2.0 PIXL
#TITLE       : N/A
#DATE        :       Date in the format DD-MMM-YYYY, for example 07-JUL-2010
#TIME        :             The time of day at which the spectrum was recorded, in 24-hour format
#OWNER       : PIXL Flight Model       (PIXL will use this to indicate which instrument took the data.)
#NPOINTS     : 4096     Number of data points in the spectrum (This can be zero for configuration only files)
#NCOLUMNS    : 2     Number of data columns in the spectrum (This can be zero for configuration only files)
#XUNITS      : eV
#YUNITS      : COUNTS
#DATATYPE    : YY
#XPERCHAN    : 7.862, 7.881   eV per channel (separate by commas if more than one detector)
#OFFSET      : 18.5, -22.4         eV of first channel  (separate by commas if more than one detector
#SIGNALTYPE  : XRF
#YP_TEMP     : 2.524
#LIVETIME    : 8.55227, 8.57241   seconds (separate by commas if more than one detector)
#REALTIME    : 10, 10.0   seconds (separate by commas if more than one detector)
#SPECTRUM    : start of spectrum data
0, 0
0, 0
0, 0
0, 0
0, 0
0, 0
0, 0
0, 1
0, 0
0, 0
1, 2
51, 44
57, 59
9, 4
3, 4
106, 110
519, 488
115, 111
8, 11
0, 3
0, 2
1, 2
2, 1
6, 4
36, 23
60, 42
42, 17
18, 13
4, 8
5, 2
1, 3
1, 3
12, 15
123, 148
216, 226
41, 33
21, 29
33, 32
5, 8
6, 4
7, 3
18, 15
17, 16
12, 7
9, 6
22, 5
16, 6
7, 6
9, 13
38, 39
27, 26
28, 15
12, 21
60, 33
66, 62
23, 24
17, 40
369, 455
1730, 1881
1173, 1105
150, 98
15, 20
16, 33
79, 117
226, 260
152, 181
19, 14
14, 13
7, 13
6, 11
7, 10
3, 4
6, 1
4, 2
9, 11
12, 9
9, 3
15, 4
5, 6
9, 8
6, 2
6, 15
5, 21
0, 11
4, 6
5, 5
5, 3
3, 4
7, 4
6, 4
2, 4
4, 6
7, 2
4, 6
3, 6
6, 3
3, 3
0, 1
2, 2
4, 2
7, 6
3, 10
7, 4
4, 3
3, 0
3, 3
2, 2
3, 2
2, 6
2, 2
4, 0
2, 2
2, 5
2, 1
6, 1
4, 1
2, 4
1, 3
2, 1
1, 1
1, 3
4, 2
2, 0
1, 3
0, 4
1, 0
0, 1
2, 2
0, 0
2, 1
0, 1
0, 1
2, 1
1, 0
1, 2
2, 0
1, 1
1, 2
0, 0
0, 2
0, 0
1, 2
0, 0
0, 1
1, 2
0, 0
0, 0
0, 1
0, 0
1, 0
0, 1
0, 0
0, 0
2, 0
2, 1
0, 1
0, 1
0, 0
0, 1
0, 0
0, 0
0, 0
0, 0
0, 1
0, 0
1, 0
0, 0
0, 1
1, 0
0, 0
0, 1
0, 0
0, 0
0, 0
0, 0
0, 0
0, 1
1, 0
0, 1
0, 1
0, 0
0, 0
0, 0
1, 0
0, 0
0, 0
0, 0
0, 0
0, 0
0, 0
0, 0
0, 0
0, 0
0, 0
0, 1
0, 0
0, 0
0, 0
0, 0
0, 0
0, 0
0, 0
0, 0
0, 0
0, 0
0, 0
0, 0
0, 0
0, 0
0, 0
0, 0
0, 0
0, 0
0, 0
0, 0
0, 0
0, 0
0, 0
0, 0
0, 0
0, 0
0, 0
0, 0
0, 0
0, 0
0, 0
0, 0
0, 0
0, 0
0, 0
0, 0
0, 0
0, 0
0, 0
0, 0
0, 0
0, 0
0, 0
0, 0
0, 0
0, 0
0, 0
0, 0
0, 0
0, 0
0, 0
0, 0
0, 0
0, 0
0, 0
0, 0
0, 0
0, 0
0, 0
0, 0
0, 0
0, 0
0, 0
0, 0
0, 0
0, 0
0, 0
0, 0
0, 0
0, 0
0, 0
0, 0
0, 0
0, 0
0, 0
0, 0
0, 0
0, 0
0, 0
0, 0
0, 0
0, 0
0, 0
0, 0
0, 0
0, 0
0, 0
0, 0
0, 0
0, 0
0, 0
0, 0
0, 0
0, 0
0, 0
0, 0
0, 0
0, 0
0, 0
#ENDOFDATA     end of spectrum data

File: ps__0852shot_2305.msa
#FORMAT      : EMSA/MAS spectral data file
#VERSION     : TC202v2.0 PIXL
#TITLE       : N/A
#DATE        :       Date in the format DD-MMM-YYYY, for example 07-JUL-2010
#TIME        :             The time of day at which the spectrum was recorded, in 24-hour format
#OWNER       : PIXL Flight Model       (PIXL will use this to indicate which instrument took the data.)
#NPOINTS     : 4096     Number of data points in the spectrum (This can be zero for configuration only files)
#NCOLUMNS    : 2     Number of data columns in the spectrum (This can be zero for configuration only files)
#XUNITS      : eV
#YUNITS      : COUNTS
#DATATYPE    : YY
#XPERCHAN    : 7.862, 7.881   eV per channel (separate by commas if more than one detector)
#OFFSET      : 18.5, -22.4         eV of first channel  (separate by commas if more than one detector
#SIGNALTYPE  : XRF
#YP_TEMP     : 2.235
#LIVETIME    : 8.55875, 8.5559   seconds (separate by commas if more than one detector)
#REALTIME    : 10, 10.0   seconds (separate by commas if more than one detector)
#SPECTRUM    : start of spectrum data
0, 0
0, 0
0, 0
0, 0
0, 0
0, 0
0, 0
0, 0
1, 1
0, 1
3, 2
43, 45
71, 61
4, 8
4, 3
110, 117
457, 433
110, 111
6, 5
2, 1
1, 1
4, 4
2, 3
10, 9
40, 29
38, 42
20, 27
12, 12
4, 6
1, 10
4, 4
0, 6
6, 10
65, 49
70, 76
18, 14
21, 13
10, 8
2, 7
5, 2
7, 3
9, 8
14, 7
15, 13
18, 12
50, 5
36, 8
4, 8
6, 13
17, 16
18, 14
13, 15
11, 12
38, 37
51, 64
29, 22
29, 28
473, 567
2137, 2217
1488, 1297
170, 127
28, 17
18, 46
101, 140
328, 364
230, 189
29, 22
10, 9
22, 17
11, 16
3, 17
4, 8
8, 3
5, 7
5, 10
12, 7
18, 1
12, 7
1, 4
4, 2
0, 1
3, 6
6, 6
1, 5
4, 6
3, 3
5, 4
5, 4
6, 3
4, 2
9, 2
11, 6
4, 4
4, 5
4, 4
1, 7
0, 3
4, 1
1, 5
0, 2
3, 3
1, 7
2, 5
1, 3
4, 1
4, 2
1, 2
1, 1
1, 0
0, 2
4, 1
2, 1
2, 0
2, 3
2, 2
0, 2
9, 6
3, 4
2, 1
3, 2
0, 2
1, 4
5, 0
1, 1
0, 2
3, 1
1, 1
2, 1
1, 1
1, 2
0, 0
1, 1
2, 2
0, 1
1, 1
0, 0
1, 0
0, 1
0, 0
0, 0
1, 0
2, 1
0, 2
5, 0
0, 1
0, 0
0, 1
1, 0
1, 0
0, 0
2, 0
1, 0
0, 0
1, 2
0, 0
0, 0
0, 0
0, 1
0, 1
1, 0
0, 1
0, 1
2, 0
0, 0
1, 0
2, 0
0, 0
0, 1
1, 0
2, 0
0, 0
0, 0
1, 1
1, 1
0, 0
0, 0
0, 0
0, 0
0, 1
0, 0
0, 0
0, 0
0, 0
0, 0
0, 0
0, 0
1, 0
0, 0
0, 0
0, 0
0, 0
0, 0
0, 0
0, 1
0, 0
0, 0
0, 0
0, 0
0, 0
0, 0
0, 0
0, 0
0, 0
0, 0
0, 0
0, 0
0, 0
0, 0
0, 0
0, 0
0, 0
0, 0
0, 0
0, 0
0, 0
0, 0
1, 0
0, 0
0, 0
0, 0
0, 0
0, 0
0, 0
0, 0
0, 0
0, 0
0, 0
0, 0
0, 0
0, 0
0, 0
0, 0
0, 0
0, 0
0, 0
0, 0
0, 0
0, 0
0, 0
0, 0
0, 0
0, 0
0, 0
0, 0
0, 0
0, 0
0, 0
0, 0
0, 0
0, 0
0, 0
0, 0
0, 0
0, 0
0, 0
0, 0
0, 0
0, 0
0, 0
0, 0
0, 0
0, 0
0, 0
0, 0
0, 0
0, 0
0, 0
0, 0
0, 0
0, 0
0, 0
0, 0
0, 0
0, 0
0, 0
0, 0
0, 0
0, 0
0, 0
0, 0
0, 0
0, 0
0, 0
0, 0
0, 0
0, 0
0, 0
0, 0
0, 0
0, 0
0, 0
0, 0
0, 0
0, 0
#ENDOFDATA     end of spectrum data

File: ps__0852shot_2306.msa
#FORMAT      : EMSA/MAS spectral data file
#VERSION     : TC202v2.0 PIXL
#TITLE       : N/A
#DATE        :       Date in the format DD-MMM-YYYY, for example 07-JUL-2010
#TIME        :             The time of day at which the spectrum was recorded, in 24-hour format
#OWNER       : PIXL Flight Model       (PIXL will use this to indicate which instrument took the data.)
#NPOINTS     : 4096     Number of data points in the spectrum (This can be zero for configuration only files)
#NCOLUMNS    : 2     Number of data columns in the spectrum (This can be zero for configuration only files)
#XUNITS      : eV
#YUNITS      : COUNTS
#DATATYPE    : YY
#XPERCHAN    : 7.862, 7.881   eV per channel (separate by commas if more than one detector)
#OFFSET      : 18.5, -22.4         eV of first channel  (separate by commas if more than one detector
#SIGNALTYPE  : XRF
#YP_TEMP     : 2.235
#LIVETIME    : 8.55769, 8.56562   seconds (separate by commas if more than one detector)
#REALTIME    : 10, 10.0   seconds (separate by commas if more than one detector)
#SPECTRUM    : start of spectrum data
0, 0
0, 0
0, 0
0, 0
0, 0
0, 0
0, 0
1, 0
0, 0
4, 0
0, 0
33, 48
43, 58
5, 8
6, 2
85, 96
429, 501
90, 106
8, 7
2, 1
1, 1
5, 7
3, 2
4, 3
38, 41
28, 31
25, 18
6, 14
2, 3
3, 6
0, 0
1, 2
6, 8
33, 20
32, 43
21, 6
32, 7
12, 5
7, 6
6, 6
7, 5
7, 11
20, 17
11, 7
10, 7
18, 8
10, 12
3, 29
7, 13
11, 18
20, 11
10, 8
11, 16
40, 45
65, 62
17, 19
19, 36
404, 619
1909, 2500
1416, 1446
170, 139
20, 14
19, 24
85, 133
309, 363
193, 203
27, 32
15, 10
11, 19
11, 7
8, 8
21, 2
19, 8
8, 10
3, 8
10, 6
6, 6
4, 2
8, 6
5, 6
2, 8
5, 6
5, 6
1, 5
1, 5
2, 2
3, 9
4, 4
2, 1
1, 2
4, 1
2, 7
6, 2
5, 6
3, 3
3, 4
4, 0
3, 4
1, 3
2, 4
3, 2
2, 5
4, 6
1, 3
1, 1
2, 3
3, 2
2, 2
1, 3
1, 0
2, 3
3, 1
2, 2
0, 2
2, 1
2, 8
7, 7
3, 5
2, 0
2, 2
2, 0
1, 2
3, 3
1, 0
2, 0
1, 3
1, 2
0, 1
1, 3
1, 0
1, 3
1, 1
0, 0
1, 3
0, 3
3, 0
1, 0
1, 1
0, 1
1, 1
1, 1
0, 1
0, 1
0, 0
0, 0
0, 1
1, 0
0, 0
0, 0
0, 1
0, 1
0, 0
0, 0
0, 0
0, 0
0, 3
0, 0
3, 0
1, 0
0, 0
0, 0
0, 1
1, 0
0, 1
1, 0
0, 0
0, 0
0, 0
1, 0
1, 0
0, 2
0, 0
0, 0
0, 0
0, 0
1, 0
0, 0
0, 0
0, 0
0, 0
0, 1
0, 1
0, 0
0, 0
0, 0
0, 0
0, 0
0, 0
0, 0
0, 0
0, 0
1, 0
0, 0
2, 0
0, 0
0, 0
0, 0
0, 0
0, 0
0, 0
0, 0
0, 0
0, 0
0, 0
0, 0
0, 0
0, 0
0, 0
0, 0
0, 0
0, 0
0, 0
0, 0
0, 0
0, 0
0, 0
0, 0
0, 0
0, 0
0, 0
0, 0
0, 0
0, 0
0, 0
0, 0
0, 0
0, 0
0, 0
0, 0
0, 0
0, 0
0, 0
0, 0
0, 0
0, 0
0, 0
0, 0
0, 0
0, 0
0, 0
0, 0
0, 0
0, 0
0, 0
0, 0
0, 0
0, 0
0, 0
0, 0
0, 0
0, 0
0, 0
0, 0
0, 0
0, 0
0, 0
0, 0
0, 0
0, 0
0, 0
0, 0
0, 0
0, 0
0, 0
0, 0
0, 0
0, 0
0, 0
0, 0
0, 0
0, 0
0, 0
0, 0
0, 0
0, 0
0, 0
0, 0
0, 0
0, 0
0, 0
0, 0
0, 0
0, 0
0, 0
0, 0
0, 0
0, 0
0, 0
0, 0
0, 0
0, 0
0, 0
0, 0
0, 0
#ENDOFDATA     end of spectrum data

File: ps__0852shot_2307.msa
#FORMAT      : EMSA/MAS spectral data file
#VERSION     : TC202v2.0 PIXL
#TITLE       : N/A
#DATE        :       Date in the format DD-MMM-YYYY, for example 07-JUL-2010
#TIME        :             The time of day at which the spectrum was recorded, in 24-hour format
#OWNER       : PIXL Flight Model       (PIXL will use this to indicate which instrument took the data.)
#NPOINTS     : 4096     Number of data points in the spectrum (This can be zero for configuration only files)
#NCOLUMNS    : 2     Number of data columns in the spectrum (This can be zero for configuration only files)
#XUNITS      : eV
#YUNITS      : COUNTS
#DATATYPE    : YY
#XPERCHAN    : 7.862, 7.881   eV per channel (separate by commas if more than one detector)
#OFFSET      : 18.5, -22.4         eV of first channel  (separate by commas if more than one detector
#SIGNALTYPE  : XRF
#YP_TEMP     : 2.364
#LIVETIME    : 8.56776, 8.54869   seconds (separate by commas if more than one detector)
#REALTIME    : 10, 10.0   seconds (separate by commas if more than one detector)
#SPECTRUM    : start of spectrum data
0, 0
0, 0
0, 0
0, 0
0, 0
0, 0
0, 0
1, 0
1, 1
1, 0
3, 3
30, 45
49, 58
5, 2
6, 2
102, 104
400, 459
109, 117
3, 10
0, 3
1, 1
6, 1
1, 2
12, 10
45, 46
35, 46
26, 19
9, 23
4, 10
7, 4
8, 4
3, 3
16, 4
47, 30
39, 40
19, 13
24, 11
12, 9
8, 2
3, 4
6, 2
11, 10
13, 18
13, 9
37, 2
16, 10
8, 38
7, 53
13, 25
21, 18
28, 9
18, 10
13, 13
42, 45
59, 58
22, 21
35, 33
449, 599
2124, 2430
1486, 1356
173, 134
13, 13
22, 20
92, 122
296, 362
209, 221
29, 36
7, 8
6, 18
4, 15
2, 6
11, 3
17, 10
15, 11
14, 10
10, 10
3, 3
3, 2
7, 7
4, 7
2, 3
3, 2
5, 3
4, 6
1, 2
4, 4
2, 3
4, 5
5, 1
4, 4
5, 6
7, 1
1, 2
4, 0
1, 3
7, 2
3, 6
3, 3
3, 2
4, 3
2, 4
1, 4
4, 4
0, 4
3, 1
4, 2
1, 0
3, 6
3, 0
3, 2
5, 2
3, 0
4, 3
3, 1
2, 2
4, 5
7, 3
3, 5
2, 2
1, 1
0, 1
3, 1
1, 2
1, 4
0, 4
2, 1
0, 1
0, 1
3, 2
0, 0
1, 0
0, 0
3, 0
2, 0
0, 3
0, 0
1, 0
0, 0
2, 1
0, 0
1, 2
0, 1
1, 0
1, 0
1, 0
0, 0
2, 0
0, 1
0, 1
0, 0
0, 0
0, 0
0, 0
0, 0
0, 0
0, 0
1, 0
0, 0
0, 0
0, 0
0, 0
1, 1
0, 0
0, 0
0, 0
0, 0
0, 0
0, 0
2, 0
0, 0
0, 0
0, 0
0, 0
0, 0
0, 0
1, 0
0, 0
0, 0
0, 1
0, 0
0, 0
0, 0
0, 1
0, 0
0, 0
0, 0
0, 0
1, 0
0, 0
0, 0
0, 0
0, 0
0, 0
0, 0
0, 0
0, 0
1, 0
0, 0
0, 0
1, 1
0, 0
0, 0
0, 0
0, 0
0, 0
0, 0
0, 0
0, 0
0, 0
0, 0
0, 0
0, 0
0, 0
0, 0
0, 0
0, 0
0, 0
0, 0
0, 0
0, 0
0, 0
0, 0
0, 0
0, 0
0, 0
0, 0
0, 0
0, 0
0, 0
0, 0
0, 0
0, 0
0, 0
0, 0
0, 0
0, 0
0, 0
0, 0
0, 0
0, 0
0, 0
0, 0
0, 0
0, 0
0, 0
0, 0
0, 0
0, 0
0, 0
0, 0
0, 0
0, 0
0, 0
0, 0
0, 0
0, 0
0, 0
0, 0
0, 0
0, 0
0, 0
0, 0
0, 0
0, 0
0, 0
0, 0
0, 0
0, 0
0, 0
0, 0
0, 0
0, 0
0, 0
0, 0
0, 0
0, 0
0, 0
0, 0
0, 0
0, 0
0, 0
0, 0
0, 0
0, 0
0, 0
0, 0
0, 0
0, 0
0, 0
0, 0
0, 0
0, 0
0, 0
0, 0
#ENDOFDATA     end of spectrum data

File: ps__0852shot_2308.msa
#FORMAT      : EMSA/MAS spectral data file
#VERSION     : TC202v2.0 PIXL
#TITLE       : N/A
#DATE        :       Date in the format DD-MMM-YYYY, for example 07-JUL-2010
#TIME        :             The time of day at which the spectrum was recorded, in 24-hour format
#OWNER       : PIXL Flight Model       (PIXL will use this to indicate which instrument took the data.)
#NPOINTS     : 4096     Number of data points in the spectrum (This can be zero for configuration only files)
#NCOLUMNS    : 2     Number of data columns in the spectrum (This can be zero for configuration only files)
#XUNITS      : eV
#YUNITS      : COUNTS
#DATATYPE    : YY
#XPERCHAN    : 7.862, 7.881   eV per channel (separate by commas if more than one detector)
#OFFSET      : 18.5, -22.4         eV of first channel  (separate by commas if more than one detector
#SIGNALTYPE  : XRF
#YP_TEMP     : 2.235
#LIVETIME    : 8.54534, 8.56558   seconds (separate by commas if more than one detector)
#REALTIME    : 10, 10.0   seconds (separate by commas if more than one detector)
#SPECTRUM    : start of spectrum data
0, 0
0, 0
0, 0
0, 0
0, 0
0, 0
0, 0
0, 0
0, 1
1, 3
3, 1
35, 41
52, 37
6, 3
5, 5
91, 97
399, 357
109, 85
7, 5
5, 1
4, 1
27, 26
9, 8
18, 13
75, 81
65, 60
29, 26
17, 14
6, 9
9, 4
7, 4
5, 0
15, 5
89, 56
135, 78
16, 16
14, 7
23, 12
22, 10
16, 6
8, 7
18, 16
19, 19
31, 11
111, 7
53, 10
13, 43
3, 43
21, 27
25, 32
22, 15
9, 9
15, 9
49, 50
67, 47
21, 22
28, 34
505, 543
2286, 2116
1580, 1209
201, 137
23, 11
29, 19
107, 121
333, 325
216, 212
49, 24
7, 9
17, 21
7, 16
3, 5
2, 6
7, 11
13, 8
22, 6
10, 8
6, 5
6, 8
9, 2
7, 4
3, 4
5, 3
2, 4
3, 0
3, 1
5, 4
1, 3
7, 5
10, 2
8, 5
2, 5
4, 3
3, 3
3, 4
2, 5
3, 3
2, 3
1, 1
2, 1
3, 0
1, 0
2, 4
3, 3
3, 3
2, 1
2, 3
2, 1
4, 1
3, 1
1, 0
3, 4
2, 3
1, 3
7, 1
1, 0
5, 4
3, 4
4, 5
2, 2
2, 0
0, 3
3, 4
2, 1
1, 2
2, 1
1, 1
1, 4
1, 2
1, 1
0, 0
0, 0
3, 1
0, 0
1, 1
2, 1
0, 0
1, 0
2, 0
1, 1
0, 0
2, 1
0, 0
0, 0
2, 2
0, 1
1, 0
0, 0
0, 0
1, 1
0, 1
0, 0
1, 1
0, 1
1, 0
1, 0
2, 2
0, 0
0, 0
0, 1
1, 1
1, 0
0, 1
0, 0
1, 0
0, 1
1, 0
1, 0
1, 0
0, 0
0, 0
0, 0
0, 0
0, 0
0, 0
0, 0
0, 0
0, 0
0, 0
0, 0
1, 0
0, 0
0, 0
0, 0
0, 1
0, 0
1, 0
0, 0
0, 0
0, 0
0, 0
0, 1
0, 0
0, 0
0, 0
0, 0
0, 0
0, 0
0, 0
0, 0
1, 0
0, 0
0, 0
0, 0
0, 0
0, 0
0, 0
0, 0
0, 0
0, 0
0, 0
0, 0
0, 0
0, 0
0, 0
0, 0
0, 0
0, 0
0, 0
0, 0
0, 0
0, 0
0, 0
0, 0
0, 0
0, 0
0, 0
0, 0
0, 0
0, 0
0, 0
0, 0
0, 0
0, 0
0, 0
0, 0
0, 0
0, 0
0, 0
0, 0
0, 0
0, 0
0, 0
0, 0
0, 0
0, 0
0, 0
0, 0
0, 0
0, 0
0, 0
0, 0
0, 0
0, 0
0, 0
0, 0
0, 0
0, 0
0, 0
0, 0
0, 0
0, 0
0, 0
0, 0
0, 0
0, 0
0, 0
0, 0
0, 0
0, 0
0, 0
0, 0
0, 0
0, 0
0, 0
0, 0
0, 0
0, 0
0, 0
0, 0
0, 0
0, 0
0, 0
0, 0
0, 0
0, 0
0, 0
0, 0
0, 0
0, 0
0, 0
0, 0
0, 0
0, 0
0, 0
#ENDOFDATA     end of spectrum data