Folder: data-repository/host_upload/06-09-2024/ps_0852/dump3 (part 48)

File: ps__0852shot_2429.msa
#FORMAT      : EMSA/MAS spectral data file
#VERSION     : TC202v2.0 PIXL
#TITLE       : N/A
#DATE        :       Date in the format DD-MMM-YYYY, for example 07-JUL-2010
#TIME        :             The time of day at which the spectrum was recorded, in 24-hour format
#OWNER       : PIXL Flight Model       (PIXL will use this to indicate which instrument took the data.)
#NPOINTS     : 4096     Number of data points in the spectrum (This can be zero for configuration only files)
#NCOLUMNS    : 2     Number of data columns in the spectrum (This can be zero for configuration only files)
#XUNITS      : eV
#YUNITS      : COUNTS
#DATATYPE    : YY
#XPERCHAN    : 7.862, 7.881   eV per channel (separate by commas if more than one detector)
#OFFSET      : 18.5, -22.4         eV of first channel  (separate by commas if more than one detector
#SIGNALTYPE  : XRF
#YP_TEMP     : 2.46
#LIVETIME    : 8.55616, 8.54991   seconds (separate by commas if more than one detector)
#REALTIME    : 10, 10.0   seconds (separate by commas if more than one detector)
#SPECTRUM    : start of spectrum data
0, 0
0, 0
0, 0
0, 0
0, 0
0, 0
0, 0
0, 0
0, 0
1, 1
2, 1
53, 48
49, 46
7, 2
7, 5
97, 104
458, 425
105, 102
5, 3
2, 2
0, 0
2, 2
3, 3
3, 5
44, 36
50, 29
25, 14
14, 17
3, 4
0, 3
0, 0
0, 0
4, 11
23, 26
30, 38
11, 5
4, 8
7, 3
3, 4
0, 0
5, 10
6, 9
11, 13
14, 11
1, 3
2, 2
2, 6
6, 6
13, 6
37, 16
37, 13
14, 2
6, 19
37, 62
62, 71
43, 19
38, 32
464, 532
2187, 2262
1565, 1388
217, 145
25, 18
30, 20
106, 110
345, 326
222, 193
35, 23
18, 16
21, 15
8, 4
2, 3
1, 6
2, 8
5, 9
6, 5
9, 10
6, 6
2, 9
5, 2
4, 4
1, 5
10, 2
12, 2
8, 3
4, 2
8, 1
3, 3
8, 6
4, 3
5, 6
1, 1
3, 2
3, 2
3, 2
4, 2
4, 1
5, 3
4, 2
5, 5
2, 7
3, 5
2, 1
4, 1
3, 3
2, 2
2, 0
1, 3
2, 3
1, 9
6, 5
4, 3
4, 4
1, 1
1, 3
4, 4
7, 0
2, 4
1, 5
3, 1
1, 0
1, 1
2, 4
0, 2
1, 1
3, 0
2, 1
0, 6
0, 2
2, 1
0, 2
0, 2
0, 1
0, 0
1, 0
1, 1
1, 2
0, 0
0, 1
0, 3
0, 1
0, 1
1, 0
1, 0
1, 0
1, 1
1, 0
0, 0
2, 0
0, 0
4, 0
0, 0
1, 0
0, 1
0, 0
0, 0
0, 0
0, 1
0, 0
1, 0
0, 0
1, 0
1, 0
1, 0
1, 0
0, 0
0, 0
0, 0
0, 1
0, 0
0, 0
0, 0
0, 0
0, 0
2, 0
0, 0
0, 0
0, 0
0, 0
0, 0
0, 0
1, 2
0, 0
2, 0
0, 0
1, 0
0, 0
0, 1
0, 0
0, 0
0, 0
0, 0
0, 0
0, 2
0, 0
0, 0
0, 0
0, 0
0, 0
0, 0
0, 0
0, 0
0, 0
0, 0
0, 1
0, 0
0, 0
0, 0
0, 0
0, 0
0, 0
0, 0
0, 0
0, 0
0, 0
0, 0
0, 0
0, 0
0, 0
0, 0
0, 0
0, 0
0, 0
0, 0
0, 0
0, 0
0, 0
0, 0
0, 0
0, 0
0, 0
0, 0
0, 0
0, 0
0, 0
0, 0
0, 0
0, 0
0, 0
0, 0
0, 0
0, 0
0, 0
0, 0
0, 0
0, 0
0, 0
0, 0
0, 0
0, 0
0, 0
0, 0
0, 0
0, 0
0, 0
0, 0
0, 0
0, 0
0, 0
0, 0
0, 0
0, 0
0, 0
0, 0
0, 0
0, 0
0, 0
0, 0
0, 0
0, 0
0, 0
0, 0
0, 0
0, 0
0, 0
0, 0
0, 0
0, 0
0, 0
0, 0
0, 0
0, 0
0, 0
0, 0
0, 0
0, 0
0, 0
0, 0
0, 0
0, 0
0, 0
0, 0
0, 0
0, 0
0, 0
#ENDOFDATA     end of spectrum data

File: ps__0852shot_2430.msa
#FORMAT      : EMSA/MAS spectral data file
#VERSION     : TC202v2.0 PIXL
#TITLE       : N/A
#DATE        :       Date in the format DD-MMM-YYYY, for example 07-JUL-2010
#TIME        :             The time of day at which the spectrum was recorded, in 24-hour format
#OWNER       : PIXL Flight Model       (PIXL will use this to indicate which instrument took the data.)
#NPOINTS     : 4096     Number of data points in the spectrum (This can be zero for configuration only files)
#NCOLUMNS    : 2     Number of data columns in the spectrum (This can be zero for configuration only files)
#XUNITS      : eV
#YUNITS      : COUNTS
#DATATYPE    : YY
#XPERCHAN    : 7.862, 7.881   eV per channel (separate by commas if more than one detector)
#OFFSET      : 18.5, -22.4         eV of first channel  (separate by commas if more than one detector
#SIGNALTYPE  : XRF
#YP_TEMP     : 2.556
#LIVETIME    : 8.55339, 8.56113   seconds (separate by commas if more than one detector)
#REALTIME    : 10, 10.0   seconds (separate by commas if more than one detector)
#SPECTRUM    : start of spectrum data
0, 0
0, 0
0, 0
0, 0
0, 0
0, 0
0, 0
0, 0
0, 1
3, 1
1, 1
30, 35
60, 41
3, 5
4, 7
104, 112
487, 405
103, 94
9, 4
2, 6
2, 2
9, 11
2, 4
15, 17
53, 72
65, 62
27, 23
15, 12
11, 11
3, 2
2, 3
2, 5
7, 9
56, 55
93, 83
17, 14
16, 15
20, 16
8, 5
5, 7
1, 16
13, 62
14, 34
15, 19
3, 4
6, 4
3, 4
6, 7
5, 10
21, 32
24, 23
10, 6
11, 13
38, 68
60, 68
22, 14
34, 31
465, 592
2115, 2312
1585, 1445
205, 164
23, 8
21, 19
96, 113
296, 333
217, 191
20, 26
4, 8
12, 17
6, 17
4, 11
4, 6
5, 0
5, 5
7, 3
7, 6
5, 6
3, 5
2, 1
4, 2
3, 7
4, 2
5, 1
5, 5
2, 5
4, 3
7, 7
7, 4
4, 3
0, 5
0, 3
5, 3
2, 2
4, 1
3, 3
5, 1
15, 1
11, 4
5, 6
1, 3
1, 3
2, 3
1, 3
3, 4
5, 2
1, 1
2, 1
4, 2
3, 4
2, 0
2, 2
0, 1
1, 3
3, 1
2, 2
5, 8
3, 9
7, 5
2, 0
3, 2
1, 1
0, 1
1, 2
1, 0
1, 1
0, 1
2, 1
2, 3
0, 1
2, 0
0, 1
1, 0
1, 1
4, 2
0, 1
1, 1
1, 1
0, 0
0, 0
3, 0
1, 1
1, 1
0, 0
0, 0
2, 1
0, 2
0, 0
0, 0
0, 2
0, 1
0, 0
0, 0
1, 0
0, 0
0, 0
1, 0
0, 1
0, 1
0, 0
0, 0
1, 0
0, 0
0, 0
0, 0
0, 0
0, 0
0, 0
0, 0
0, 0
0, 0
0, 0
0, 0
0, 1
1, 0
0, 1
0, 0
0, 0
0, 0
0, 0
0, 0
0, 0
0, 0
0, 0
1, 0
0, 0
0, 0
0, 0
0, 0
0, 0
0, 0
0, 0
0, 0
0, 0
0, 0
0, 1
0, 0
0, 0
0, 0
0, 0
0, 0
0, 0
0, 0
0, 0
0, 0
0, 0
0, 0
0, 0
0, 0
0, 0
0, 0
0, 0
0, 0
0, 0
0, 0
0, 0
0, 0
0, 0
0, 0
0, 0
0, 0
0, 0
1, 0
0, 0
0, 0
0, 0
0, 0
0, 0
0, 0
0, 0
0, 0
0, 0
0, 0
0, 0
0, 0
0, 0
0, 0
0, 0
0, 0
0, 0
0, 0
0, 0
0, 0
0, 0
0, 0
0, 0
0, 0
0, 0
0, 0
0, 0
0, 0
0, 0
0, 0
0, 0
0, 0
0, 0
0, 0
0, 0
0, 0
0, 0
0, 0
0, 0
0, 0
0, 0
0, 0
0, 0
0, 0
0, 0
0, 0
0, 0
0, 0
0, 0
0, 0
0, 0
0, 0
0, 0
0, 0
0, 0
0, 0
0, 0
0, 0
0, 0
0, 0
0, 0
0, 0
0, 0
0, 0
0, 0
0, 0
0, 0
0, 0
0, 0
0, 0
0, 0
0, 0
#ENDOFDATA     end of spectrum data

File: ps__0852shot_2431.msa
#FORMAT      : EMSA/MAS spectral data file
#VERSION     : TC202v2.0 PIXL
#TITLE       : N/A
#DATE        :       Date in the format DD-MMM-YYYY, for example 07-JUL-2010
#TIME        :             The time of day at which the spectrum was recorded, in 24-hour format
#OWNER       : PIXL Flight Model       (PIXL will use this to indicate which instrument took the data.)
#NPOINTS     : 4096     Number of data points in the spectrum (This can be zero for configuration only files)
#NCOLUMNS    : 2     Number of data columns in the spectrum (This can be zero for configuration only files)
#XUNITS      : eV
#YUNITS      : COUNTS
#DATATYPE    : YY
#XPERCHAN    : 7.862, 7.881   eV per channel (separate by commas if more than one detector)
#OFFSET      : 18.5, -22.4         eV of first channel  (separate by commas if more than one detector
#SIGNALTYPE  : XRF
#YP_TEMP     : 2.524
#LIVETIME    : 8.54777, 8.56048   seconds (separate by commas if more than one detector)
#REALTIME    : 10, 10.0   seconds (separate by commas if more than one detector)
#SPECTRUM    : start of spectrum data
0, 0
0, 0
0, 0
0, 0
0, 0
0, 0
0, 0
0, 0
0, 0
1, 0
3, 2
36, 32
56, 26
6, 8
5, 7
119, 78
528, 426
140, 82
5, 8
1, 3
1, 1
17, 6
10, 4
16, 11
66, 57
43, 28
33, 27
14, 11
5, 5
3, 6
6, 2
4, 3
7, 5
100, 76
176, 143
27, 17
19, 13
21, 22
8, 9
3, 4
4, 18
15, 78
13, 49
9, 10
7, 1
7, 2
9, 6
11, 5
10, 15
33, 35
26, 21
15, 11
8, 11
46, 32
80, 56
26, 27
34, 29
465, 466
2253, 2023
1503, 1199
193, 142
43, 18
34, 20
108, 103
328, 289
229, 160
39, 25
8, 11
20, 32
11, 55
9, 27
5, 6
5, 3
6, 5
9, 3
6, 3
4, 4
4, 8
4, 3
7, 8
3, 4
4, 4
4, 6
6, 2
3, 4
6, 2
4, 1
9, 4
5, 5
5, 6
6, 5
7, 0
1, 2
4, 1
4, 2
4, 4
10, 5
13, 3
11, 4
11, 5
5, 3
2, 4
1, 2
4, 2
0, 3
7, 1
2, 2
2, 0
1, 4
5, 4
3, 2
1, 2
0, 2
3, 2
4, 1
1, 4
3, 4
2, 2
1, 1
2, 5
0, 1
2, 1
1, 1
3, 3
2, 3
0, 2
2, 0
4, 1
1, 0
0, 1
0, 0
3, 0
0, 2
1, 0
0, 0
2, 1
0, 0
2, 1
1, 0
0, 0
1, 1
1, 1
2, 1
0, 1
2, 0
0, 0
1, 1
0, 0
0, 0
0, 0
1, 0
0, 0
1, 0
0, 0
0, 0
0, 0
0, 0
0, 1
0, 0
0, 1
0, 0
0, 0
0, 0
0, 0
0, 0
0, 0
0, 1
1, 0
0, 1
1, 0
1, 0
0, 0
0, 0
0, 0
2, 0
1, 0
0, 0
1, 1
0, 0
0, 0
0, 0
0, 0
0, 0
1, 0
0, 1
0, 0
1, 0
0, 0
0, 0
0, 0
0, 0
0, 0
0, 0
0, 0
0, 0
0, 0
0, 0
0, 0
0, 0
0, 0
0, 0
0, 0
0, 0
0, 0
0, 0
0, 0
0, 0
0, 0
0, 0
0, 0
0, 0
0, 0
0, 0
0, 0
0, 0
0, 0
0, 0
0, 0
0, 0
0, 0
0, 0
0, 0
0, 0
0, 0
0, 0
0, 0
0, 0
0, 0
0, 0
0, 0
0, 0
0, 0
0, 0
0, 0
0, 0
0, 0
0, 0
0, 0
0, 0
0, 0
0, 0
0, 0
0, 0
0, 0
0, 0
0, 0
0, 0
0, 0
0, 0
0, 0
0, 0
0, 0
0, 0
0, 0
0, 0
0, 0
0, 0
0, 0
0, 0
0, 0
0, 0
0, 0
0, 0
0, 0
0, 0
0, 0
0, 0
0, 0
0, 0
0, 0
0, 0
0, 0
0, 0
0, 0
0, 0
0, 0
0, 0
0, 0
0, 0
0, 0
0, 0
0, 0
0, 0
0, 0
0, 0
0, 0
0, 0
0, 0
0, 0
0, 0
0, 0
0, 0
0, 0
0, 0
#ENDOFDATA     end of spectrum data

File: ps__0852shot_2432.msa
#FORMAT      : EMSA/MAS spectral data file
#VERSION     : TC202v2.0 PIXL
#TITLE       : N/A
#DATE        :       Date in the format DD-MMM-YYYY, for example 07-JUL-2010
#TIME        :             The time of day at which the spectrum was recorded, in 24-hour format
#OWNER       : PIXL Flight Model       (PIXL will use this to indicate which instrument took the data.)
#NPOINTS     : 4096     Number of data points in the spectrum (This can be zero for configuration only files)
#NCOLUMNS    : 2     Number of data columns in the spectrum (This can be zero for configuration only files)
#XUNITS      : eV
#YUNITS      : COUNTS
#DATATYPE    : YY
#XPERCHAN    : 7.862, 7.881   eV per channel (separate by commas if more than one detector)
#OFFSET      : 18.5, -22.4         eV of first channel  (separate by commas if more than one detector
#SIGNALTYPE  : XRF
#YP_TEMP     : 2.107
#LIVETIME    : 8.54465, 8.58152   seconds (separate by commas if more than one detector)
#REALTIME    : 10, 10.0   seconds (separate by commas if more than one detector)
#SPECTRUM    : start of spectrum data
0, 0
0, 0
0, 0
0, 0
0, 0
0, 0
0, 0
0, 0
3, 2
2, 0
3, 1
46, 36
43, 48
8, 1
7, 5
101, 70
448, 336
118, 76
9, 6
1, 0
5, 4
38, 33
23, 10
13, 12
73, 48
61, 50
27, 37
15, 20
5, 9
3, 4
6, 2
6, 1
2, 2
35, 27
59, 36
18, 4
8, 3
16, 18
1, 26
6, 18
6, 5
8, 11
12, 27
22, 17
16, 4
10, 3
7, 3
3, 6
6, 13
18, 19
26, 6
14, 3
17, 27
36, 39
83, 44
27, 16
41, 50
484, 466
2218, 1895
1697, 1128
226, 133
83, 15
80, 15
133, 105
356, 327
226, 158
43, 25
14, 9
14, 11
13, 10
3, 4
1, 3
4, 0
1, 3
5, 4
5, 7
4, 6
5, 5
5, 4
10, 10
3, 2
4, 5
3, 4
6, 2
4, 6
4, 17
3, 7
1, 5
10, 1
15, 1
32, 3
9, 2
5, 4
5, 0
2, 4
3, 1
3, 0
1, 1
3, 2
6, 2
7, 2
4, 0
5, 2
4, 2
1, 3
2, 2
3, 0
4, 1
3, 3
2, 3
1, 2
2, 1
4, 2
7, 4
2, 2
1, 4
8, 3
2, 0
0, 1
2, 1
0, 0
3, 1
0, 4
2, 1
1, 0
1, 1
1, 4
0, 0
0, 2
2, 2
2, 0
6, 0
1, 0
2, 1
0, 0
0, 0
0, 0
2, 0
0, 0
0, 0
1, 1
1, 0
2, 0
1, 0
2, 1
0, 2
0, 0
0, 0
0, 0
2, 0
1, 1
1, 1
0, 0
1, 0
0, 2
0, 0
1, 0
0, 0
0, 0
2, 0
0, 0
0, 0
0, 0
0, 1
0, 1
1, 0
0, 2
0, 0
0, 0
0, 0
0, 0
0, 0
0, 0
0, 0
0, 0
0, 0
0, 0
0, 0
0, 0
0, 0
0, 0
0, 0
1, 1
0, 0
0, 0
1, 0
0, 0
0, 0
0, 0
1, 0
0, 0
0, 0
0, 0
0, 0
0, 0
1, 0
0, 0
0, 0
0, 0
0, 0
0, 0
0, 0
0, 0
0, 1
0, 0
0, 0
0, 0
0, 0
0, 0
0, 0
0, 0
0, 0
0, 0
0, 0
0, 0
0, 0
0, 0
0, 0
0, 0
0, 0
0, 0
0, 0
0, 0
0, 0
0, 0
0, 0
0, 0
0, 0
0, 0
0, 0
0, 0
0, 0
0, 0
0, 0
0, 0
0, 0
0, 0
0, 0
0, 0
0, 0
0, 0
0, 0
0, 0
0, 0
0, 0
0, 0
0, 0
0, 0
0, 0
0, 0
0, 0
0, 0
0, 0
0, 0
0, 0
0, 0
0, 0
0, 0
0, 0
0, 0
0, 0
0, 0
0, 0
0, 0
0, 0
0, 0
0, 0
0, 0
0, 0
0, 0
0, 0
0, 0
0, 0
0, 0
0, 0
0, 0
0, 0
0, 0
0, 0
0, 0
0, 0
0, 0
0, 0
0, 0
0, 0
0, 0
0, 0
0, 0
0, 0
0, 0
0, 0
0, 0
0, 0
0, 0
#ENDOFDATA     end of spectrum data

File: ps__0852shot_2433.msa
#FORMAT      : EMSA/MAS spectral data file
#VERSION     : TC202v2.0 PIXL
#TITLE       : N/A
#DATE        :       Date in the format DD-MMM-YYYY, for example 07-JUL-2010
#TIME        :             The time of day at which the spectrum was recorded, in 24-hour format
#OWNER       : PIXL Flight Model       (PIXL will use this to indicate which instrument took the data.)
#NPOINTS     : 4096     Number of data points in the spectrum (This can be zero for configuration only files)
#NCOLUMNS    : 2     Number of data columns in the spectrum (This can be zero for configuration only files)
#XUNITS      : eV
#YUNITS      : COUNTS
#DATATYPE    : YY
#XPERCHAN    : 7.862, 7.881   eV per channel (separate by commas if more than one detector)
#OFFSET      : 18.5, -22.4         eV of first channel  (separate by commas if more than one detector
#SIGNALTYPE  : XRF
#YP_TEMP     : 2.267
#LIVETIME    : 8.55818, 8.5628   seconds (separate by commas if more than one detector)
#REALTIME    : 10, 10.0   seconds (separate by commas if more than one detector)
#SPECTRUM    : start of spectrum data
0, 0
0, 0
0, 0
0, 0
0, 0
0, 0
0, 0
0, 0
1, 1
0, 0
2, 3
47, 31
65, 61
5, 6
5, 3
100, 104
466, 377
109, 100
7, 5
1, 0
4, 3
12, 20
9, 5
8, 2
35, 36
22, 32
18, 37
8, 17
11, 3
2, 4
1, 1
1, 1
5, 2
22, 34
62, 53
10, 9
9, 5
12, 28
4, 26
6, 9
3, 3
6, 15
20, 28
34, 32
45, 8
13, 8
5, 6
4, 4
10, 6
10, 12
9, 14
4, 8
7, 7
49, 37
58, 54
30, 17
36, 25
510, 504
2214, 2099
1634, 1266
234, 131
124, 18
109, 17
102, 98
322, 356
237, 209
21, 45
11, 18
11, 14
7, 3
1, 1
2, 8
3, 2
2, 5
4, 2
8, 4
11, 7
6, 7
1, 8
5, 4
3, 4
3, 4
1, 6
2, 3
9, 12
3, 28
3, 14
3, 5
7, 2
17, 4
33, 2
17, 1
2, 2
1, 1
4, 2
1, 3
2, 3
0, 2
2, 2
2, 1
3, 3
2, 1
5, 2
0, 3
2, 2
4, 3
5, 4
1, 3
2, 3
1, 0
2, 1
1, 3
0, 3
1, 2
2, 0
2, 1
5, 3
0, 2
2, 1
2, 5
2, 0
1, 5
2, 0
0, 2
0, 1
0, 2
0, 2
2, 0
1, 0
1, 0
0, 0
6, 2
2, 0
3, 0
1, 0
2, 2
0, 0
1, 0
2, 2
0, 3
0, 1
0, 0
0, 0
0, 0
1, 0
0, 0
2, 1
0, 0
0, 0
0, 1
0, 2
0, 0
0, 0
2, 1
0, 0
1, 0
0, 0
0, 0
0, 0
0, 0
0, 0
0, 1
1, 0
1, 0
1, 0
2, 0
0, 1
0, 0
0, 0
0, 0
0, 0
0, 0
0, 0
1, 0
0, 0
0, 0
0, 0
0, 0
0, 0
0, 0
0, 0
0, 0
1, 0
0, 0
0, 0
1, 0
1, 0
0, 0
0, 0
1, 0
0, 0
0, 0
1, 0
0, 0
0, 0
0, 0
0, 0
0, 0
0, 0
0, 0
0, 0
0, 0
0, 0
0, 0
0, 0
0, 1
0, 0
0, 0
0, 0
0, 0
0, 0
0, 0
0, 0
0, 0
0, 0
0, 0
0, 0
0, 0
0, 0
0, 0
0, 0
0, 0
0, 0
0, 0
0, 0
0, 0
0, 0
0, 0
0, 0
0, 0
0, 0
0, 0
0, 0
0, 0
0, 0
0, 0
0, 0
0, 0
0, 0
0, 0
0, 0
0, 0
0, 0
0, 0
0, 0
0, 0
0, 0
0, 0
0, 0
0, 0
0, 0
0, 0
0, 0
0, 0
0, 0
0, 0
0, 0
0, 0
0, 0
0, 0
0, 0
0, 0
0, 0
0, 0
0, 0
0, 0
0, 0
0, 0
0, 0
0, 0
0, 0
0, 0
0, 0
0, 0
0, 0
0, 0
0, 0
0, 0
0, 0
0, 0
0, 0
0, 0
0, 0
0, 0
0, 0
0, 0
0, 0
0, 0
0, 0
0, 0
0, 0
0, 0
0, 0
0, 0
#ENDOFDATA     end of spectrum data

File: ps__0852shot_2434.msa
#FORMAT      : EMSA/MAS spectral data file
#VERSION     : TC202v2.0 PIXL
#TITLE       : N/A
#DATE        :       Date in the format DD-MMM-YYYY, for example 07-JUL-2010
#TIME        :             The time of day at which the spectrum was recorded, in 24-hour format
#OWNER       : PIXL Flight Model       (PIXL will use this to indicate which instrument took the data.)
#NPOINTS     : 4096     Number of data points in the spectrum (This can be zero for configuration only files)
#NCOLUMNS    : 2     Number of data columns in the spectrum (This can be zero for configuration only files)
#XUNITS      : eV
#YUNITS      : COUNTS
#DATATYPE    : YY
#XPERCHAN    : 7.862, 7.881   eV per channel (separate by commas if more than one detector)
#OFFSET      : 18.5, -22.4         eV of first channel  (separate by commas if more than one detector
#SIGNALTYPE  : XRF
#YP_TEMP     : 2.364
#LIVETIME    : 8.56158, 8.55658   seconds (separate by commas if more than one detector)
#REALTIME    : 10, 10.0   seconds (separate by commas if more than one detector)
#SPECTRUM    : start of spectrum data
0, 0
0, 0
0, 0
0, 0
0, 0
0, 0
0, 0
0, 0
1, 0
1, 0
1, 1
52, 59
73, 45
4, 5
4, 3
100, 95
455, 406
104, 101
7, 4
0, 1
1, 2
9, 5
1, 3
3, 5
17, 23
25, 32
15, 10
10, 10
6, 2
0, 3
0, 2
2, 1
3, 2
39, 25
31, 34
7, 10
7, 7
6, 9
8, 21
5, 7
3, 1
6, 11
30, 31
55, 42
60, 8
19, 7
7, 5
9, 3
11, 7
13, 10
18, 10
12, 1
15, 10
39, 48
70, 68
26, 23
26, 47
433, 551
2169, 2243
1658, 1429
204, 151
102, 15
93, 22
103, 145
323, 336
230, 184
25, 30
7, 12
8, 15
4, 6
4, 5
0, 3
1, 5
4, 4
9, 5
5, 6
7, 7
4, 3
6, 5
1, 3
3, 7
1, 3
3, 6
2, 6
5, 13
2, 22
5, 9
7, 6
6, 1
17, 6
19, 2
9, 2
4, 1
4, 1
2, 8
2, 4
3, 4
2, 6
1, 4
3, 3
1, 1
4, 1
2, 4
3, 0
1, 1
2, 0
1, 1
1, 2
1, 1
3, 4
2, 2
1, 4
1, 2
0, 1
2, 0
4, 1
9, 3
3, 5
3, 0
0, 0
4, 0
4, 1
1, 2
1, 1
1, 0
1, 2
1, 0
2, 0
1, 1
0, 2
1, 0
0, 0
1, 1
0, 0
2, 3
0, 0
0, 0
0, 1
0, 0
0, 3
0, 1
1, 1
0, 1
0, 1
0, 0
0, 0
0, 1
1, 1
1, 0
0, 0
0, 1
0, 0
0, 0
0, 0
0, 0
0, 0
0, 1
1, 0
0, 0
0, 1
2, 1
2, 0
0, 0
0, 1
0, 0
1, 0
0, 0
0, 0
1, 1
0, 0
1, 0
0, 0
1, 0
0, 1
0, 0
0, 0
1, 0
0, 0
0, 1
0, 0
0, 0
0, 0
0, 0
0, 0
0, 0
0, 0
0, 0
0, 0
0, 0
0, 0
0, 0
0, 0
0, 0
0, 0
0, 0
0, 0
0, 0
0, 0
0, 0
0, 0
0, 0
0, 0
0, 0
0, 0
0, 0
0, 0
0, 0
0, 0
0, 0
0, 0
0, 0
0, 0
0, 0
0, 0
0, 0
0, 0
0, 0
0, 0
0, 0
0, 0
0, 0
0, 0
0, 0
0, 0
0, 0
0, 0
0, 0
0, 0
0, 0
0, 0
0, 0
0, 0
0, 0
0, 0
0, 0
0, 0
0, 0
0, 0
0, 0
0, 0
0, 0
0, 0
0, 0
0, 0
0, 0
0, 0
0, 0
0, 0
0, 0
0, 0
0, 0
0, 0
0, 0
0, 0
0, 0
0, 0
0, 0
0, 0
0, 0
0, 0
0, 0
0, 0
0, 0
0, 0
0, 0
0, 0
0, 0
0, 0
0, 0
0, 0
0, 0
0, 0
0, 0
0, 0
0, 0
0, 0
0, 0
0, 0
0, 0
0, 0
0, 0
0, 0
0, 0
0, 0
0, 0
0, 0
0, 0
0, 0
0, 0
0, 0
0, 0
0, 0
0, 0
0, 0
#ENDOFDATA     end of spectrum data

File: ps__0852shot_2435.msa
#FORMAT      : EMSA/MAS spectral data file
#VERSION     : TC202v2.0 PIXL
#TITLE       : N/A
#DATE        :       Date in the format DD-MMM-YYYY, for example 07-JUL-2010
#TIME        :             The time of day at which the spectrum was recorded, in 24-hour format
#OWNER       : PIXL Flight Model       (PIXL will use this to indicate which instrument took the data.)
#NPOINTS     : 4096     Number of data points in the spectrum (This can be zero for configuration only files)
#NCOLUMNS    : 2     Number of data columns in the spectrum (This can be zero for configuration only files)
#XUNITS      : eV
#YUNITS      : COUNTS
#DATATYPE    : YY
#XPERCHAN    : 7.862, 7.881   eV per channel (separate by commas if more than one detector)
#OFFSET      : 18.5, -22.4         eV of first channel  (separate by commas if more than one detector
#SIGNALTYPE  : XRF
#YP_TEMP     : 2.203
#LIVETIME    : 8.5606, 8.53793   seconds (separate by commas if more than one detector)
#REALTIME    : 10, 10.0   seconds (separate by commas if more than one detector)
#SPECTRUM    : start of spectrum data
0, 0
0, 0
0, 0
0, 0
0, 0
0, 0
0, 0
0, 0
1, 1
0, 2
3, 3
39, 40
57, 54
6, 3
5, 6
101, 119
482, 448
115, 104
10, 5
4, 3
3, 8
22, 20
7, 12
11, 10
26, 38
26, 28
24, 14
12, 9
2, 3
1, 4
2, 3
3, 2
6, 9
103, 99
170, 155
22, 13
20, 21
22, 26
11, 3
6, 3
6, 3
11, 17
21, 32
28, 29
40, 14
11, 9
9, 3
4, 4
5, 5
26, 18
15, 18
8, 10
9, 16
47, 55
75, 64
18, 20
34, 29
421, 511
1976, 2188
1446, 1295
173, 131
76, 18
66, 20
96, 101
305, 330
221, 212
31, 12
13, 12
22, 16
14, 9
4, 4
3, 10
1, 7
4, 6
4, 3
10, 8
10, 5
8, 4
7, 7
3, 6
7, 3
1, 9
3, 3
1, 9
1, 17
5, 27
7, 9
6, 4
6, 1
10, 2
10, 3
6, 4
5, 1
1, 4
0, 2
3, 2
1, 1
2, 2
2, 3
2, 7
1, 4
2, 1
2, 3
4, 2
7, 1
3, 5
2, 1
2, 1
3, 4
1, 4
2, 3
2, 2
0, 2
0, 2
4, 5
4, 0
4, 2
3, 4
1, 0
3, 2
0, 0
3, 2
3, 1
4, 0
1, 0
0, 1
1, 0
0, 0
2, 1
1, 0
1, 1
0, 1
1, 0
1, 1
1, 0
0, 2
1, 2
1, 2
0, 1
1, 1
0, 0
2, 1
2, 1
1, 0
0, 1
0, 0
0, 0
1, 1
0, 0
0, 1
1, 0
0, 0
1, 2
1, 0
1, 1
0, 0
0, 0
2, 0
0, 0
0, 1
0, 0
0, 0
1, 0
0, 1
0, 0
1, 0
2, 0
0, 0
0, 0
0, 0
0, 0
0, 0
0, 1
0, 0
0, 0
0, 0
0, 1
0, 0
0, 0
0, 0
0, 0
1, 1
0, 0
1, 0
0, 1
1, 0
0, 0
0, 0
0, 0
0, 1
0, 2
0, 0
0, 0
0, 0
0, 0
0, 0
0, 0
1, 0
0, 0
0, 0
0, 0
0, 0
0, 0
0, 0
0, 0
0, 0
0, 0
0, 1
0, 0
0, 0
0, 0
0, 0
0, 0
0, 0
0, 0
0, 0
0, 0
0, 1
0, 0
0, 0
0, 0
0, 0
0, 0
0, 0
0, 0
0, 0
0, 0
0, 0
0, 0
0, 0
0, 0
0, 0
0, 0
0, 0
0, 0
0, 0
0, 0
0, 0
0, 0
0, 0
0, 0
0, 0
0, 0
0, 0
0, 0
0, 0
0, 0
0, 0
0, 0
0, 0
0, 0
0, 0
0, 0
0, 0
0, 0
0, 0
0, 0
0, 0
0, 0
0, 0
0, 0
0, 0
0, 0
0, 0
0, 0
0, 0
0, 0
0, 0
0, 0
0, 0
0, 0
0, 0
0, 0
0, 0
0, 0
0, 0
0, 0
0, 0
0, 0
0, 0
0, 0
0, 0
0, 0
0, 0
0, 0
0, 0
0, 0
0, 0
0, 0
0, 0
0, 0
0, 0
0, 0
0, 0
#ENDOFDATA     end of spectrum data

File: ps__0852shot_2436.msa
#FORMAT      : EMSA/MAS spectral data file
#VERSION     : TC202v2.0 PIXL
#TITLE       : N/A
#DATE        :       Date in the format DD-MMM-YYYY, for example 07-JUL-2010
#TIME        :             The time of day at which the spectrum was recorded, in 24-hour format
#OWNER       : PIXL Flight Model       (PIXL will use this to indicate which instrument took the data.)
#NPOINTS     : 4096     Number of data points in the spectrum (This can be zero for configuration only files)
#NCOLUMNS    : 2     Number of data columns in the spectrum (This can be zero for configuration only files)
#XUNITS      : eV
#YUNITS      : COUNTS
#DATATYPE    : YY
#XPERCHAN    : 7.862, 7.881   eV per channel (separate by commas if more than one detector)
#OFFSET      : 18.5, -22.4         eV of first channel  (separate by commas if more than one detector
#SIGNALTYPE  : XRF
#YP_TEMP     : 2.3
#LIVETIME    : 8.55626, 8.54332   seconds (separate by commas if more than one detector)
#REALTIME    : 10, 10.0   seconds (separate by commas if more than one detector)
#SPECTRUM    : start of spectrum data
0, 0
0, 0
0, 0
0, 0
0, 0
0, 0
0, 1
0, 0
0, 1
3, 2
3, 6
32, 39
63, 34
7, 3
7, 4
129, 102
586, 448
122, 118
11, 11
1, 1
2, 0
6, 9
6, 12
11, 11
39, 52
48, 39
14, 22
10, 15
3, 6
4, 1
4, 3
1, 4
10, 13
127, 144
238, 225
47, 43
31, 24
51, 27
12, 7
8, 6
2, 5
15, 10
17, 17
12, 21
3, 29
9, 18
14, 3
11, 3
12, 12
34, 23
31, 17
25, 9
12, 13
44, 40
78, 52
90, 23
63, 32
418, 495
1807, 1951
1368, 1110
152, 109
6, 7
36, 26
100, 112
276, 279
184, 176
25, 24
15, 7
17, 21
12, 4
12, 4
5, 0
4, 2
2, 3
7, 5
14, 3
8, 3
4, 3
2, 4
8, 5
11, 4
6, 4
1, 4
4, 4
1, 2
3, 1
1, 7
9, 4
7, 5
3, 0
2, 5
3, 5
4, 8
4, 11
2, 5
4, 3
2, 0
2, 3
3, 1
4, 5
1, 2
8, 0
3, 4
2, 2
2, 5
2, 0
2, 2
1, 3
3, 0
1, 1
4, 3
4, 2
2, 1
0, 3
3, 1
2, 5
3, 5
1, 3
3, 1
2, 3
1, 3
2, 1
1, 1
0, 0
0, 1
1, 1
1, 2
2, 0
0, 0
0, 0
2, 2
3, 1
2, 2
3, 2
1, 0
1, 2
0, 1
0, 0
0, 1
0, 0
0, 0
0, 3
1, 2
0, 0
0, 0
0, 0
0, 0
0, 0
0, 0
1, 1
0, 0
0, 0
0, 0
0, 0
0, 0
0, 1
0, 3
0, 0
0, 0
0, 0
0, 1
0, 0
0, 0
1, 0
0, 0
0, 0
0, 0
0, 2
0, 0
0, 0
1, 0
0, 1
1, 0
1, 1
1, 0
0, 0
0, 1
0, 0
0, 0
0, 0
0, 0
1, 0
0, 0
0, 0
0, 0
1, 0
0, 0
0, 1
0, 0
0, 0
0, 0
0, 0
0, 0
0, 0
1, 1
0, 1
0, 0
0, 0
0, 0
0, 0
0, 0
0, 0
0, 0
0, 0
0, 0
0, 0
0, 0
0, 0
0, 0
0, 0
0, 0
0, 0
0, 0
0, 0
0, 0
0, 0
0, 0
0, 0
0, 0
0, 0
0, 0
0, 0
0, 0
0, 0
0, 0
0, 0
0, 0
0, 0
0, 0
0, 0
0, 0
0, 0
0, 0
0, 0
0, 0
0, 0
0, 0
0, 0
0, 0
0, 0
0, 0
0, 0
0, 0
0, 0
0, 0
0, 0
0, 0
0, 0
0, 0
0, 0
0, 0
0, 0
0, 0
0, 0
0, 0
0, 0
0, 0
0, 0
0, 0
0, 0
0, 0
0, 0
0, 0
0, 0
0, 0
0, 0
0, 0
0, 0
0, 0
0, 0
0, 0
0, 0
0, 0
0, 0
0, 0
0, 0
0, 0
0, 0
0, 0
0, 0
0, 0
0, 0
0, 0
0, 0
0, 0
0, 0
0, 0
0, 0
0, 0
0, 0
0, 0
0, 0
0, 0
0, 0
#ENDOFDATA     end of spectrum data

File: ps__0852shot_2437.msa
#FORMAT      : EMSA/MAS spectral data file
#VERSION     : TC202v2.0 PIXL
#TITLE       : N/A
#DATE        :       Date in the format DD-MMM-YYYY, for example 07-JUL-2010
#TIME        :             The time of day at which the spectrum was recorded, in 24-hour format
#OWNER       : PIXL Flight Model       (PIXL will use this to indicate which instrument took the data.)
#NPOINTS     : 4096     Number of data points in the spectrum (This can be zero for configuration only files)
#NCOLUMNS    : 2     Number of data columns in the spectrum (This can be zero for configuration only files)
#XUNITS      : eV
#YUNITS      : COUNTS
#DATATYPE    : YY
#XPERCHAN    : 7.862, 7.881   eV per channel (separate by commas if more than one detector)
#OFFSET      : 18.5, -22.4         eV of first channel  (separate by commas if more than one detector
#SIGNALTYPE  : XRF
#YP_TEMP     : 2.3
#LIVETIME    : 8.56045, 8.5533   seconds (separate by commas if more than one detector)
#REALTIME    : 10, 10.0   seconds (separate by commas if more than one detector)
#SPECTRUM    : start of spectrum data
0, 0
0, 0
0, 0
0, 0
0, 0
0, 0
0, 0
0, 0
0, 0
3, 3
2, 3
42, 42
54, 60
2, 1
4, 7
107, 103
532, 412
93, 88
2, 7
2, 3
1, 0
5, 2
1, 7
9, 9
30, 50
46, 76
22, 26
15, 19
7, 5
3, 3
4, 0
0, 2
2, 2
34, 25
49, 50
14, 12
10, 6
23, 10
34, 2
10, 1
5, 3
8, 6
16, 22
11, 34
5, 40
8, 8
7, 8
6, 3
11, 7
21, 13
42, 11
56, 7
14, 16
38, 43
85, 44
126, 24
104, 42
516, 547
2131, 2173
1715, 1296
208, 136
18, 11
35, 26
127, 126
358, 338
243, 192
32, 18
14, 3
14, 14
10, 4
3, 4
5, 2
3, 4
3, 4
8, 8
25, 4
26, 9
8, 4
8, 5
2, 6
3, 4
2, 3
2, 1
4, 1
1, 5
5, 7
3, 2
6, 1
3, 4
2, 5
10, 1
2, 4
7, 7
7, 11
1, 6
4, 5
3, 3
2, 2
2, 2
4, 6
8, 4
5, 4
2, 3
0, 2
1, 0
2, 1
5, 2
2, 4
3, 1
0, 0
0, 0
0, 0
0, 0
3, 1
4, 0
1, 0
5, 3
5, 4
2, 3
2, 1
1, 1
4, 2
4, 0
2, 2
5, 0
1, 0
0, 1
1, 1
3, 1
1, 0
1, 2
0, 1
1, 0
0, 1
1, 1
1, 0
0, 0
1, 0
3, 0
1, 0
1, 0
0, 1
0, 3
0, 1
1, 1
1, 0
1, 1
0, 3
0, 1
1, 0
0, 1
0, 0
1, 1
0, 0
0, 1
2, 0
1, 0
0, 0
1, 1
1, 0
0, 0
0, 0
1, 0
0, 0
0, 0
0, 0
0, 0
0, 0
0, 0
0, 0
2, 0
0, 0
2, 0
1, 0
0, 1
0, 1
0, 0
0, 0
0, 1
0, 1
0, 0
1, 0
0, 0
0, 0
0, 0
0, 0
1, 0
0, 0
0, 0
0, 0
0, 1
0, 0
0, 0
0, 3
0, 1
0, 0
0, 0
0, 0
0, 0
0, 0
0, 0
0, 0
0, 0
0, 0
0, 0
0, 0
0, 0
0, 0
0, 0
0, 0
0, 0
0, 0
0, 0
0, 0
0, 0
0, 0
0, 0
0, 0
0, 0
0, 0
0, 0
0, 0
0, 0
0, 0
0, 0
0, 0
0, 0
0, 0
0, 0
0, 0
0, 0
0, 0
0, 0
0, 0
0, 0
0, 0
0, 0
0, 0
0, 0
0, 0
0, 0
0, 0
0, 0
0, 0
0, 0
0, 0
0, 0
0, 0
0, 0
0, 0
0, 0
0, 0
0, 0
0, 0
0, 0
0, 0
0, 0
0, 0
0, 0
0, 0
0, 0
0, 0
0, 0
0, 0
0, 0
0, 0
0, 0
0, 0
0, 0
0, 0
0, 0
0, 0
0, 0
0, 0
0, 0
0, 0
0, 0
0, 0
0, 0
0, 0
0, 0
0, 0
0, 0
0, 0
0, 0
0, 0
0, 0
0, 0
0, 0
0, 0
0, 0
0, 0
0, 0
0, 0
#ENDOFDATA     end of spectrum data