Folder: data-repository/host_upload/06-09-2024/ps_0852/dump3

Note: host_upload/readME.txt
10-30-2023:
(description: )

11-13-2023:
(description: )

12-01-2023:
(description: )

12-28-2023:
(description: BHVO-2 all sols upload)

File: ps__0852shot_2000.msa
#FORMAT      : EMSA/MAS spectral data file
#VERSION     : TC202v2.0 PIXL
#TITLE       : N/A
#DATE        :       Date in the format DD-MMM-YYYY, for example 07-JUL-2010
#TIME        :             The time of day at which the spectrum was recorded, in 24-hour format
#OWNER       : PIXL Flight Model       (PIXL will use this to indicate which instrument took the data.)
#NPOINTS     : 4096     Number of data points in the spectrum (This can be zero for configuration only files)
#NCOLUMNS    : 2     Number of data columns in the spectrum (This can be zero for configuration only files)
#XUNITS      : eV
#YUNITS      : COUNTS
#DATATYPE    : YY
#XPERCHAN    : 7.862, 7.881   eV per channel (separate by commas if more than one detector)
#OFFSET      : 18.5, -22.4         eV of first channel  (separate by commas if more than one detector
#SIGNALTYPE  : XRF
#YP_TEMP     : 2.396
#LIVETIME    : 8.54756, 8.35674   seconds (separate by commas if more than one detector)
#REALTIME    : 10, 10.0   seconds (separate by commas if more than one detector)
#SPECTRUM    : start of spectrum data
0, 0
0, 0
0, 0
0, 0
0, 0
0, 0
0, 0
0, 0
1, 1
0, 2
1, 4
34, 45
56, 50
9, 4
2, 4
66, 92
325, 411
95, 96
8, 4
1, 0
7, 6
24, 30
16, 14
5, 10
17, 47
35, 77
23, 17
10, 14
7, 6
2, 7
1, 5
0, 4
4, 9
11, 15
12, 12
12, 7
6, 8
7, 7
6, 13
5, 8
4, 8
7, 23
11, 13
4, 19
8, 37
5, 22
9, 4
10, 8
12, 11
18, 21
17, 12
10, 13
5, 8
34, 45
49, 64
28, 28
34, 53
366, 640
1677, 2361
1244, 1425
165, 151
17, 17
17, 16
81, 138
248, 375
177, 206
29, 19
3, 15
7, 25
6, 9
3, 8
4, 7
5, 5
4, 10
3, 15
2, 7
6, 10
2, 7
5, 7
6, 4
4, 6
4, 2
2, 4
4, 3
3, 3
5, 5
6, 7
7, 5
3, 2
3, 3
5, 4
5, 5
6, 4
5, 2
2, 13
5, 12
2, 4
2, 6
2, 1
1, 3
1, 1
0, 3
0, 2
2, 3
3, 0
1, 3
3, 0
1, 3
2, 2
2, 3
2, 1
1, 0
1, 3
1, 2
5, 2
3, 4
1, 5
1, 2
1, 2
1, 0
0, 2
0, 2
0, 1
0, 1
2, 0
0, 3
3, 1
1, 2
0, 1
1, 2
1, 0
1, 3
0, 1
0, 0
4, 0
1, 1
1, 3
2, 0
0, 0
1, 0
1, 0
0, 0
1, 0
0, 0
0, 0
0, 0
0, 0
0, 1
0, 0
0, 0
1, 1
0, 0
0, 0
1, 0
0, 0
0, 0
0, 1
0, 0
0, 0
1, 0
0, 0
2, 0
2, 0
0, 0
0, 1
0, 1
0, 0
0, 0
0, 2
0, 0
0, 0
0, 0
0, 0
1, 0
0, 0
0, 0
0, 0
0, 1
0, 0
0, 0
0, 0
0, 0
0, 0
1, 0
0, 0
0, 0
0, 0
0, 0
0, 0
2, 0
0, 0
0, 0
0, 0
0, 0
0, 0
0, 0
0, 0
1, 0
0, 0
0, 0
0, 0
0, 0
0, 0
0, 0
0, 1
0, 0
0, 0
0, 0
0, 0
1, 0
0, 0
0, 0
0, 0
0, 0
0, 0
0, 0
0, 0
0, 0
0, 0
0, 0
0, 0
0, 0
0, 0
0, 0
0, 0
0, 0
0, 0
0, 0
0, 0
0, 0
0, 0
0, 0
0, 0
0, 0
0, 0
0, 0
0, 0
0, 0
0, 0
0, 0
0, 0
0, 0
0, 0
0, 0
0, 0
0, 0
0, 0
0, 0
0, 0
0, 0
0, 0
0, 0
0, 0
0, 0
0, 0
0, 0
0, 0
0, 0
0, 0
0, 0
0, 0
0, 0
0, 0
0, 0
0, 0
0, 0
0, 0
0, 0
0, 0
0, 0
0, 0
0, 0
0, 0
0, 0
0, 0
0, 0
0, 0
0, 0
0, 0
0, 0
0, 0
0, 0
0, 0
0, 0
0, 0
0, 0
0, 0
0, 0
0, 0
0, 0
0, 0
0, 0
0, 0
0, 0
#ENDOFDATA     end of spectrum data

File: ps__0852shot_2001.msa
#FORMAT      : EMSA/MAS spectral data file
#VERSION     : TC202v2.0 PIXL
#TITLE       : N/A
#DATE        :       Date in the format DD-MMM-YYYY, for example 07-JUL-2010
#TIME        :             The time of day at which the spectrum was recorded, in 24-hour format
#OWNER       : PIXL Flight Model       (PIXL will use this to indicate which instrument took the data.)
#NPOINTS     : 4096     Number of data points in the spectrum (This can be zero for configuration only files)
#NCOLUMNS    : 2     Number of data columns in the spectrum (This can be zero for configuration only files)
#XUNITS      : eV
#YUNITS      : COUNTS
#DATATYPE    : YY
#XPERCHAN    : 7.862, 7.881   eV per channel (separate by commas if more than one detector)
#OFFSET      : 18.5, -22.4         eV of first channel  (separate by commas if more than one detector
#SIGNALTYPE  : XRF
#YP_TEMP     : 2.396
#LIVETIME    : 8.55877, 8.56066   seconds (separate by commas if more than one detector)
#REALTIME    : 10, 10.0   seconds (separate by commas if more than one detector)
#SPECTRUM    : start of spectrum data
0, 0
0, 0
0, 0
0, 0
0, 0
0, 0
0, 0
1, 0
0, 2
2, 0
3, 4
39, 57
45, 45
4, 6
6, 3
65, 114
363, 422
70, 90
6, 4
3, 2
2, 2
9, 6
1, 8
2, 5
16, 21
33, 36
20, 25
12, 16
3, 7
2, 5
1, 5
1, 3
2, 0
17, 5
20, 25
5, 6
4, 6
9, 2
5, 8
6, 4
3, 4
7, 10
12, 15
13, 23
4, 52
7, 29
12, 4
5, 7
11, 12
18, 14
9, 9
7, 9
13, 17
34, 45
50, 58
14, 24
38, 42
404, 650
1708, 2374
1298, 1442
191, 132
14, 20
16, 19
91, 124
268, 364
189, 203
26, 18
6, 9
10, 18
8, 11
2, 5
3, 2
3, 5
2, 15
2, 14
5, 9
9, 7
4, 4
5, 3
5, 4
4, 3
2, 6
3, 3
1, 1
2, 2
5, 1
4, 2
4, 2
1, 4
4, 3
2, 4
2, 5
8, 3
7, 5
3, 7
4, 5
3, 4
2, 1
3, 1
2, 0
1, 4
1, 3
5, 0
2, 4
1, 2
2, 5
0, 1
0, 2
0, 3
1, 1
1, 3
5, 2
2, 0
4, 3
0, 3
4, 7
6, 8
2, 3
0, 2
1, 2
1, 1
0, 1
2, 2
2, 2
0, 1
1, 1
1, 1
2, 0
0, 4
0, 1
1, 1
0, 0
2, 0
0, 2
0, 1
0, 0
0, 0
1, 1
0, 0
1, 0
0, 1
1, 0
0, 0
0, 2
0, 0
1, 1
1, 0
0, 2
0, 1
0, 0
0, 1
0, 0
0, 0
0, 0
0, 0
1, 1
0, 1
0, 0
1, 0
1, 1
0, 0
0, 1
0, 1
0, 1
1, 0
0, 0
1, 1
1, 0
0, 1
0, 1
0, 0
1, 0
1, 0
0, 0
0, 0
0, 0
0, 1
0, 0
0, 0
0, 0
0, 0
0, 0
0, 0
0, 1
0, 0
0, 0
0, 0
0, 0
0, 0
0, 0
0, 0
0, 1
0, 1
0, 0
0, 0
0, 0
0, 0
0, 0
0, 0
0, 0
0, 0
0, 0
0, 0
0, 0
0, 0
0, 1
0, 0
0, 0
0, 0
1, 0
0, 0
0, 0
0, 0
0, 0
0, 0
0, 0
0, 0
0, 0
0, 0
0, 0
0, 0
0, 0
0, 0
0, 0
0, 0
0, 0
0, 0
0, 0
0, 0
0, 0
0, 0
0, 0
0, 0
0, 0
0, 0
0, 0
0, 0
0, 0
0, 0
0, 0
0, 0
0, 0
0, 0
0, 0
0, 0
0, 0
0, 0
0, 0
0, 0
0, 0
0, 0
0, 0
0, 0
0, 0
0, 0
0, 0
0, 0
0, 0
0, 0
0, 0
0, 0
0, 0
0, 0
0, 0
0, 0
0, 0
0, 0
0, 0
0, 0
0, 0
0, 0
0, 0
0, 0
0, 0
0, 0
0, 0
0, 0
0, 0
0, 0
0, 0
0, 0
0, 0
0, 0
0, 0
0, 0
0, 0
0, 0
0, 0
0, 0
0, 0
0, 0
0, 0
0, 0
0, 0
#ENDOFDATA     end of spectrum data

File: ps__0852shot_2002.msa
#FORMAT      : EMSA/MAS spectral data file
#VERSION     : TC202v2.0 PIXL
#TITLE       : N/A
#DATE        :       Date in the format DD-MMM-YYYY, for example 07-JUL-2010
#TIME        :             The time of day at which the spectrum was recorded, in 24-hour format
#OWNER       : PIXL Flight Model       (PIXL will use this to indicate which instrument took the data.)
#NPOINTS     : 4096     Number of data points in the spectrum (This can be zero for configuration only files)
#NCOLUMNS    : 2     Number of data columns in the spectrum (This can be zero for configuration only files)
#XUNITS      : eV
#YUNITS      : COUNTS
#DATATYPE    : YY
#XPERCHAN    : 7.862, 7.881   eV per channel (separate by commas if more than one detector)
#OFFSET      : 18.5, -22.4         eV of first channel  (separate by commas if more than one detector
#SIGNALTYPE  : XRF
#YP_TEMP     : 2.364
#LIVETIME    : 8.57503, 8.55323   seconds (separate by commas if more than one detector)
#REALTIME    : 10, 10.0   seconds (separate by commas if more than one detector)
#SPECTRUM    : start of spectrum data
0, 0
0, 0
0, 0
0, 0
0, 0
0, 0
0, 0
0, 0
2, 1
0, 1
1, 4
34, 52
58, 60
4, 3
5, 5
78, 90
374, 425
110, 100
1, 1
2, 0
2, 1
1, 7
0, 5
5, 3
20, 18
16, 36
20, 29
15, 12
7, 8
2, 9
3, 6
1, 4
2, 1
10, 13
17, 19
4, 3
5, 5
5, 7
3, 4
1, 3
3, 3
9, 10
12, 10
8, 43
7, 114
8, 61
22, 6
13, 4
11, 6
13, 14
14, 11
8, 13
12, 12
43, 55
43, 66
23, 13
42, 43
424, 614
1828, 2406
1299, 1403
176, 161
20, 20
16, 19
77, 134
305, 359
165, 229
26, 20
6, 9
11, 14
11, 3
9, 2
4, 4
2, 10
3, 26
4, 27
4, 6
3, 3
2, 4
2, 5
7, 4
3, 3
2, 6
1, 4
5, 3
5, 0
4, 0
5, 6
2, 3
5, 3
5, 3
2, 3
5, 4
2, 2
3, 13
3, 19
3, 6
1, 1
3, 1
4, 1
3, 2
2, 7
0, 3
1, 2
4, 1
5, 2
2, 2
3, 2
0, 1
1, 3
2, 6
3, 2
2, 1
3, 3
3, 2
0, 2
3, 3
3, 6
1, 2
1, 3
3, 1
2, 0
0, 3
2, 1
0, 1
1, 2
4, 2
2, 0
2, 3
0, 1
0, 0
2, 3
0, 2
0, 0
0, 1
0, 1
1, 1
1, 2
1, 1
0, 0
1, 0
1, 0
1, 0
0, 2
0, 0
0, 1
0, 2
0, 0
0, 0
0, 0
0, 2
0, 1
1, 0
0, 1
1, 1
0, 0
0, 0
0, 0
0, 0
0, 1
0, 0
0, 0
0, 0
0, 0
0, 0
0, 0
0, 0
0, 1
1, 0
0, 1
0, 0
0, 1
0, 0
0, 0
0, 0
0, 0
1, 0
1, 0
0, 0
1, 1
1, 1
0, 0
0, 0
0, 0
0, 1
0, 0
0, 0
0, 0
0, 0
0, 0
0, 0
0, 2
0, 0
0, 0
1, 0
0, 0
0, 0
0, 0
0, 0
0, 0
0, 0
0, 0
0, 0
0, 0
0, 0
0, 0
0, 0
0, 0
0, 0
0, 0
0, 0
0, 0
0, 0
0, 0
0, 0
0, 0
0, 0
0, 0
0, 0
0, 0
0, 0
0, 0
0, 0
0, 0
0, 0
0, 0
0, 0
0, 0
0, 0
0, 0
0, 0
0, 0
0, 0
0, 0
0, 0
0, 0
0, 0
0, 0
0, 0
0, 0
0, 0
0, 0
0, 0
0, 0
0, 0
0, 0
0, 0
0, 0
0, 0
0, 0
0, 0
0, 0
0, 0
0, 0
0, 0
0, 0
0, 0
0, 0
0, 0
0, 0
0, 0
0, 0
0, 0
0, 0
0, 0
0, 0
0, 0
0, 0
0, 0
0, 0
0, 0
0, 0
0, 0
0, 0
0, 0
0, 0
0, 0
0, 0
0, 0
0, 0
0, 0
0, 0
0, 0
0, 0
0, 0
0, 0
0, 0
0, 0
0, 0
0, 0
0, 0
0, 0
0, 0
0, 0
0, 0
#ENDOFDATA     end of spectrum data

File: ps__0852shot_2003.msa
#FORMAT      : EMSA/MAS spectral data file
#VERSION     : TC202v2.0 PIXL
#TITLE       : N/A
#DATE        :       Date in the format DD-MMM-YYYY, for example 07-JUL-2010
#TIME        :             The time of day at which the spectrum was recorded, in 24-hour format
#OWNER       : PIXL Flight Model       (PIXL will use this to indicate which instrument took the data.)
#NPOINTS     : 4096     Number of data points in the spectrum (This can be zero for configuration only files)
#NCOLUMNS    : 2     Number of data columns in the spectrum (This can be zero for configuration only files)
#XUNITS      : eV
#YUNITS      : COUNTS
#DATATYPE    : YY
#XPERCHAN    : 7.862, 7.881   eV per channel (separate by commas if more than one detector)
#OFFSET      : 18.5, -22.4         eV of first channel  (separate by commas if more than one detector
#SIGNALTYPE  : XRF
#YP_TEMP     : 2.235
#LIVETIME    : 8.55289, 8.53437   seconds (separate by commas if more than one detector)
#REALTIME    : 10, 10.0   seconds (separate by commas if more than one detector)
#SPECTRUM    : start of spectrum data
0, 0
0, 0
0, 0
0, 0
0, 0
0, 0
0, 0
0, 0
1, 2
0, 1
5, 1
57, 38
59, 59
5, 6
4, 5
84, 113
412, 417
81, 97
4, 4
1, 2
1, 2
7, 5
4, 5
6, 8
21, 34
34, 46
26, 20
12, 6
4, 5
2, 8
1, 6
2, 3
1, 3
10, 36
23, 32
8, 10
11, 10
8, 5
2, 5
4, 18
3, 6
9, 12
12, 23
5, 37
8, 59
11, 32
29, 5
8, 3
12, 9
23, 18
19, 16
15, 12
15, 10
35, 52
58, 64
31, 23
44, 38
480, 602
2054, 2285
1484, 1370
201, 124
16, 11
19, 29
87, 133
303, 347
230, 179
33, 26
8, 7
13, 21
13, 5
10, 3
1, 3
5, 3
4, 10
4, 12
13, 5
9, 5
9, 2
7, 4
4, 2
3, 9
6, 3
2, 7
4, 5
5, 4
2, 1
5, 3
3, 4
3, 4
3, 3
5, 2
3, 3
5, 4
3, 6
1, 12
3, 11
1, 2
5, 3
4, 4
6, 4
1, 4
3, 5
3, 4
2, 3
2, 2
1, 1
2, 4
0, 5
2, 2
1, 1
4, 2
2, 3
1, 5
1, 0
3, 2
5, 3
5, 2
1, 1
1, 3
1, 5
3, 2
2, 1
4, 4
3, 2
3, 1
0, 0
4, 1
1, 3
0, 1
1, 0
0, 2
0, 1
2, 1
0, 2
0, 0
1, 0
2, 2
2, 1
1, 0
0, 0
1, 2
2, 1
0, 0
0, 0
0, 1
0, 0
0, 0
0, 0
0, 1
1, 0
0, 1
0, 0
0, 0
0, 1
0, 2
0, 0
1, 1
1, 0
0, 0
1, 0
0, 1
0, 1
0, 1
0, 0
3, 0
1, 0
0, 0
0, 1
0, 0
0, 0
1, 0
0, 0
0, 0
1, 0
0, 1
0, 0
0, 0
0, 0
0, 1
0, 0
0, 0
0, 0
0, 0
0, 0
1, 0
0, 0
0, 0
0, 0
0, 0
0, 1
0, 0
0, 0
0, 0
0, 0
0, 0
1, 0
0, 0
0, 0
0, 0
1, 0
0, 0
0, 0
0, 0
0, 0
0, 0
0, 0
0, 0
0, 0
0, 1
0, 0
0, 0
0, 0
0, 0
0, 0
0, 0
0, 0
0, 0
0, 0
0, 0
0, 0
0, 0
0, 0
0, 0
0, 0
0, 0
0, 0
0, 0
0, 0
0, 0
0, 0
0, 0
0, 0
0, 0
0, 0
0, 0
0, 0
0, 0
0, 0
0, 0
0, 0
0, 0
0, 0
0, 0
0, 0
0, 0
0, 0
0, 0
0, 0
0, 0
0, 0
0, 0
0, 0
0, 0
0, 0
0, 0
0, 0
0, 0
0, 0
0, 0
0, 0
0, 0
0, 0
0, 0
0, 0
0, 0
0, 0
0, 0
0, 0
0, 0
0, 0
0, 0
0, 0
0, 0
0, 0
0, 0
0, 0
0, 0
0, 0
0, 0
0, 0
0, 0
0, 0
0, 0
0, 0
0, 0
0, 0
0, 0
0, 0
0, 0
0, 0
0, 0
0, 0
0, 0
0, 0
#ENDOFDATA     end of spectrum data

File: ps__0852shot_2004.msa
#FORMAT      : EMSA/MAS spectral data file
#VERSION     : TC202v2.0 PIXL
#TITLE       : N/A
#DATE        :       Date in the format DD-MMM-YYYY, for example 07-JUL-2010
#TIME        :             The time of day at which the spectrum was recorded, in 24-hour format
#OWNER       : PIXL Flight Model       (PIXL will use this to indicate which instrument took the data.)
#NPOINTS     : 4096     Number of data points in the spectrum (This can be zero for configuration only files)
#NCOLUMNS    : 2     Number of data columns in the spectrum (This can be zero for configuration only files)
#XUNITS      : eV
#YUNITS      : COUNTS
#DATATYPE    : YY
#XPERCHAN    : 7.862, 7.881   eV per channel (separate by commas if more than one detector)
#OFFSET      : 18.5, -22.4         eV of first channel  (separate by commas if more than one detector
#SIGNALTYPE  : XRF
#YP_TEMP     : 2.3
#LIVETIME    : 8.53689, 8.5309   seconds (separate by commas if more than one detector)
#REALTIME    : 10, 10.0   seconds (separate by commas if more than one detector)
#SPECTRUM    : start of spectrum data
0, 0
0, 0
0, 0
0, 0
0, 0
0, 0
0, 0
2, 0
2, 1
0, 1
1, 1
47, 38
64, 54
7, 4
2, 7
93, 102
410, 442
114, 96
8, 8
0, 1
2, 3
14, 9
9, 5
12, 10
36, 46
39, 34
13, 22
9, 18
10, 3
3, 4
1, 4
5, 0
2, 2
36, 51
47, 51
10, 6
22, 10
18, 15
8, 9
5, 11
2, 9
9, 10
9, 15
14, 20
5, 16
16, 11
20, 13
12, 10
8, 12
22, 22
9, 15
5, 9
11, 18
38, 51
52, 76
28, 23
40, 40
438, 599
1993, 2168
1468, 1277
193, 160
23, 11
16, 19
107, 115
288, 310
195, 182
33, 32
9, 12
28, 10
23, 3
11, 6
5, 0
5, 3
5, 3
4, 3
4, 7
6, 6
10, 2
5, 4
7, 1
6, 4
5, 2
2, 6
3, 5
3, 2
3, 2
2, 4
2, 5
3, 8
3, 6
2, 5
6, 5
3, 1
2, 7
3, 4
2, 4
3, 2
4, 4
5, 4
3, 4
8, 7
3, 6
3, 2
3, 2
6, 2
1, 1
1, 2
1, 2
2, 0
0, 3
3, 0
3, 0
4, 3
3, 2
1, 1
2, 2
7, 5
2, 1
2, 0
2, 1
0, 0
0, 0
1, 1
3, 1
2, 0
1, 0
0, 1
0, 4
0, 2
2, 0
0, 0
0, 0
0, 1
0, 0
0, 2
1, 2
0, 1
1, 2
1, 2
1, 1
1, 0
1, 0
2, 0
0, 1
0, 0
0, 1
1, 0
0, 0
1, 0
0, 0
1, 0
1, 1
0, 0
0, 0
0, 1
0, 0
0, 0
1, 0
1, 0
0, 0
0, 0
1, 1
0, 0
0, 0
0, 0
0, 0
1, 0
0, 1
0, 0
1, 0
1, 0
2, 0
1, 1
1, 0
0, 2
0, 0
0, 0
0, 0
0, 0
0, 0
0, 0
0, 0
0, 0
0, 0
0, 0
0, 0
1, 0
0, 0
0, 0
0, 0
0, 0
0, 1
0, 0
0, 0
0, 1
0, 0
0, 0
0, 0
0, 0
0, 0
0, 0
0, 0
0, 0
0, 0
0, 0
0, 0
0, 0
0, 0
0, 0
0, 0
0, 0
0, 0
0, 0
0, 0
0, 0
0, 0
0, 0
0, 0
0, 0
0, 0
0, 0
0, 0
0, 0
0, 1
0, 0
0, 0
0, 0
0, 0
0, 0
0, 0
0, 0
0, 0
0, 0
0, 0
0, 0
0, 0
0, 0
0, 0
0, 0
0, 0
0, 0
0, 0
0, 0
0, 0
0, 0
0, 0
0, 0
0, 0
0, 0
0, 0
0, 0
0, 0
0, 0
0, 0
0, 0
0, 0
0, 0
0, 0
0, 0
0, 0
0, 0
0, 0
0, 0
0, 0
0, 0
0, 0
0, 0
0, 0
0, 0
0, 0
0, 0
0, 0
0, 0
0, 0
0, 0
0, 0
0, 0
0, 0
0, 0
0, 0
0, 0
0, 0
0, 0
0, 0
0, 0
0, 0
0, 0
0, 0
0, 0
0, 0
0, 0
0, 0
0, 0
0, 0
#ENDOFDATA     end of spectrum data

File: ps__0852shot_2005.msa
#FORMAT      : EMSA/MAS spectral data file
#VERSION     : TC202v2.0 PIXL
#TITLE       : N/A
#DATE        :       Date in the format DD-MMM-YYYY, for example 07-JUL-2010
#TIME        :             The time of day at which the spectrum was recorded, in 24-hour format
#OWNER       : PIXL Flight Model       (PIXL will use this to indicate which instrument took the data.)
#NPOINTS     : 4096     Number of data points in the spectrum (This can be zero for configuration only files)
#NCOLUMNS    : 2     Number of data columns in the spectrum (This can be zero for configuration only files)
#XUNITS      : eV
#YUNITS      : COUNTS
#DATATYPE    : YY
#XPERCHAN    : 7.862, 7.881   eV per channel (separate by commas if more than one detector)
#OFFSET      : 18.5, -22.4         eV of first channel  (separate by commas if more than one detector
#SIGNALTYPE  : XRF
#YP_TEMP     : 2.492
#LIVETIME    : 8.53377, 8.52464   seconds (separate by commas if more than one detector)
#REALTIME    : 10, 10.0   seconds (separate by commas if more than one detector)
#SPECTRUM    : start of spectrum data
0, 0
0, 0
0, 0
0, 0
0, 0
0, 0
0, 0
0, 0
0, 2
3, 1
3, 7
43, 39
52, 61
4, 8
1, 4
111, 104
430, 378
132, 101
6, 7
0, 0
2, 2
11, 11
5, 2
13, 10
59, 50
61, 59
27, 32
15, 23
4, 6
1, 3
2, 4
2, 7
9, 6
9, 14
14, 17
4, 6
9, 7
6, 6
6, 4
4, 8
11, 3
14, 2
21, 16
14, 10
8, 8
10, 6
17, 6
10, 7
7, 8
15, 11
15, 31
7, 43
10, 15
39, 48
52, 58
23, 19
33, 37
485, 612
2291, 2226
1635, 1322
238, 139
27, 17
27, 26
105, 113
327, 337
273, 172
46, 25
16, 12
19, 8
16, 8
6, 6
7, 5
9, 6
8, 4
4, 7
7, 8
6, 4
11, 5
13, 3
6, 3
5, 4
3, 3
4, 3
10, 7
7, 5
5, 4
7, 3
2, 6
3, 7
3, 3
2, 4
3, 3
3, 4
1, 3
7, 3
5, 3
3, 1
1, 2
2, 3
2, 4
4, 1
2, 5
2, 1
1, 6
1, 1
3, 2
4, 3
1, 2
0, 2
2, 3
3, 1
3, 2
3, 2
6, 4
3, 3
3, 5
7, 8
3, 1
3, 2
2, 2
1, 6
6, 0
1, 2
0, 3
4, 1
0, 1
1, 0
1, 0
1, 1
2, 1
2, 2
2, 1
2, 0
0, 2
0, 1
0, 2
1, 0
0, 2
1, 1
0, 0
0, 0
3, 0
1, 1
2, 0
0, 0
0, 0
0, 0
0, 0
1, 0
0, 0
0, 1
0, 1
0, 0
2, 0
1, 2
1, 1
2, 1
0, 1
0, 0
1, 0
1, 0
1, 0
0, 0
0, 0
0, 0
0, 0
0, 0
0, 0
0, 0
0, 0
0, 0
0, 0
1, 0
1, 0
1, 0
0, 0
0, 0
0, 0
1, 0
1, 0
0, 0
1, 1
0, 0
0, 0
0, 0
0, 0
1, 0
0, 0
0, 0
0, 0
0, 0
0, 0
0, 0
0, 0
0, 0
0, 0
0, 0
0, 0
0, 0
0, 0
0, 0
0, 0
0, 0
0, 0
0, 0
0, 0
0, 0
0, 0
0, 0
0, 0
0, 0
0, 0
0, 0
0, 0
0, 0
0, 0
0, 0
0, 0
0, 0
0, 0
0, 0
0, 0
0, 0
0, 0
0, 0
0, 0
0, 0
0, 0
0, 0
0, 0
0, 0
0, 0
0, 0
0, 0
0, 0
0, 0
0, 0
0, 0
0, 0
0, 0
0, 0
0, 0
0, 0
0, 0
0, 0
0, 0
0, 0
0, 0
0, 0
0, 0
0, 0
0, 0
0, 0
0, 0
0, 0
0, 0
0, 0
0, 0
0, 0
0, 0
0, 0
0, 0
0, 0
0, 0
0, 0
0, 0
0, 0
0, 0
0, 0
0, 0
0, 0
0, 0
0, 0
0, 0
0, 0
0, 0
0, 0
0, 0
0, 0
0, 0
0, 0
0, 0
0, 0
0, 0
0, 0
0, 0
0, 0
0, 0
0, 0
0, 0
0, 0
0, 0
0, 0
0, 0
#ENDOFDATA     end of spectrum data

File: ps__0852shot_2006.msa
#FORMAT      : EMSA/MAS spectral data file
#VERSION     : TC202v2.0 PIXL
#TITLE       : N/A
#DATE        :       Date in the format DD-MMM-YYYY, for example 07-JUL-2010
#TIME        :             The time of day at which the spectrum was recorded, in 24-hour format
#OWNER       : PIXL Flight Model       (PIXL will use this to indicate which instrument took the data.)
#NPOINTS     : 4096     Number of data points in the spectrum (This can be zero for configuration only files)
#NCOLUMNS    : 2     Number of data columns in the spectrum (This can be zero for configuration only files)
#XUNITS      : eV
#YUNITS      : COUNTS
#DATATYPE    : YY
#XPERCHAN    : 7.862, 7.881   eV per channel (separate by commas if more than one detector)
#OFFSET      : 18.5, -22.4         eV of first channel  (separate by commas if more than one detector
#SIGNALTYPE  : XRF
#YP_TEMP     : 2.332
#LIVETIME    : 8.54545, 8.53255   seconds (separate by commas if more than one detector)
#REALTIME    : 10, 10.0   seconds (separate by commas if more than one detector)
#SPECTRUM    : start of spectrum data
0, 0
0, 0
0, 0
0, 0
0, 0
0, 0
0, 0
0, 1
0, 1
4, 2
4, 1
39, 47
67, 46
10, 6
2, 5
78, 89
388, 437
109, 103
14, 11
7, 3
3, 1
11, 8
7, 8
18, 12
108, 59
169, 68
46, 44
17, 20
3, 6
3, 4
2, 2
1, 5
5, 3
17, 26
15, 30
15, 8
7, 4
11, 9
13, 2
8, 4
9, 9
9, 15
22, 26
11, 16
10, 6
12, 13
13, 7
5, 11
13, 17
18, 21
16, 29
14, 23
13, 15
34, 34
67, 81
12, 31
34, 54
450, 612
2064, 2305
1539, 1508
218, 170
40, 22
22, 28
94, 128
331, 379
234, 179
35, 27
8, 14
18, 13
11, 13
2, 3
6, 3
7, 6
8, 5
9, 5
2, 3
2, 7
7, 5
3, 4
5, 2
2, 3
7, 5
3, 4
5, 2
5, 5
5, 5
2, 4
5, 3
3, 8
10, 6
2, 3
3, 0
11, 5
4, 1
7, 4
4, 2
2, 6
3, 5
1, 6
2, 10
3, 2
3, 2
3, 2
4, 1
0, 3
1, 2
3, 2
3, 1
1, 4
2, 1
3, 1
0, 3
1, 3
2, 3
1, 2
3, 2
2, 4
3, 3
1, 1
1, 4
2, 1
2, 4
1, 0
1, 6
3, 2
1, 0
0, 0
0, 1
0, 1
3, 1
0, 1
0, 0
1, 3
0, 0
1, 1
1, 0
2, 0
1, 2
0, 1
0, 2
0, 2
0, 0
0, 1
0, 2
0, 1
1, 2
1, 0
0, 1
0, 0
0, 0
1, 1
0, 0
1, 1
1, 0
0, 1
1, 1
0, 0
1, 1
0, 1
0, 0
1, 0
0, 0
1, 0
0, 0
0, 0
0, 0
2, 0
0, 1
1, 1
0, 0
1, 1
0, 1
0, 0
1, 1
0, 0
0, 0
0, 1
0, 0
0, 0
0, 0
1, 1
0, 0
0, 1
1, 0
1, 0
0, 0
0, 0
0, 0
1, 0
0, 0
1, 0
0, 0
0, 0
0, 0
0, 0
0, 0
1, 0
0, 0
0, 0
0, 0
0, 0
0, 0
0, 0
0, 0
0, 0
0, 0
0, 0
0, 0
0, 0
0, 0
0, 0
0, 0
0, 0
0, 0
0, 1
0, 0
0, 0
0, 0
0, 0
0, 0
0, 0
0, 0
0, 0
0, 0
0, 0
0, 0
0, 0
0, 0
0, 0
0, 0
0, 0
0, 0
0, 0
0, 0
0, 0
0, 0
0, 0
0, 0
0, 0
0, 0
0, 0
0, 0
0, 0
0, 0
0, 0
0, 0
0, 0
0, 0
0, 0
0, 0
0, 0
0, 0
0, 0
0, 0
0, 0
0, 0
0, 0
0, 0
0, 0
0, 0
0, 0
0, 0
0, 0
0, 0
0, 0
0, 0
0, 0
0, 0
0, 0
0, 0
0, 0
0, 0
0, 0
0, 0
0, 0
0, 0
0, 0
0, 0
0, 0
0, 0
0, 0
0, 0
0, 0
0, 0
0, 0
0, 0
0, 0
0, 0
0, 0
0, 0
0, 0
0, 0
0, 0
0, 0
#ENDOFDATA     end of spectrum data

File: ps__0852shot_2007.msa
#FORMAT      : EMSA/MAS spectral data file
#VERSION     : TC202v2.0 PIXL
#TITLE       : N/A
#DATE        :       Date in the format DD-MMM-YYYY, for example 07-JUL-2010
#TIME        :             The time of day at which the spectrum was recorded, in 24-hour format
#OWNER       : PIXL Flight Model       (PIXL will use this to indicate which instrument took the data.)
#NPOINTS     : 4096     Number of data points in the spectrum (This can be zero for configuration only files)
#NCOLUMNS    : 2     Number of data columns in the spectrum (This can be zero for configuration only files)
#XUNITS      : eV
#YUNITS      : COUNTS
#DATATYPE    : YY
#XPERCHAN    : 7.862, 7.881   eV per channel (separate by commas if more than one detector)
#OFFSET      : 18.5, -22.4         eV of first channel  (separate by commas if more than one detector
#SIGNALTYPE  : XRF
#YP_TEMP     : 2.364
#LIVETIME    : 8.56995, 8.55802   seconds (separate by commas if more than one detector)
#REALTIME    : 10, 10.0   seconds (separate by commas if more than one detector)
#SPECTRUM    : start of spectrum data
0, 0
0, 0
0, 0
0, 0
0, 0
0, 0
0, 0
0, 0
1, 3
2, 1
2, 0
35, 37
56, 61
6, 7
7, 12
83, 122
363, 459
91, 88
9, 10
8, 4
2, 2
5, 9
6, 2
10, 10
47, 58
45, 53
19, 26
13, 19
7, 4
5, 2
3, 5
4, 2
1, 2
19, 19
7, 19
4, 5
3, 6
10, 3
9, 8
16, 3
8, 5
15, 10
18, 18
14, 28
10, 27
15, 10
5, 16
11, 10
13, 6
18, 22
21, 20
48, 15
33, 6
52, 41
55, 55
19, 21
40, 37
412, 645
1904, 2363
1435, 1601
185, 180
16, 17
19, 32
88, 135
328, 360
198, 188
35, 25
9, 13
12, 15
15, 10
7, 4
6, 0
5, 6
2, 3
7, 5
9, 6
17, 5
10, 9
7, 13
6, 6
4, 8
3, 6
4, 4
3, 5
6, 6
2, 1
0, 3
1, 6
3, 4
2, 3
4, 1
4, 8
3, 6
4, 4
7, 8
4, 3
1, 1
1, 5
2, 5
4, 3
3, 0
2, 5
4, 0
2, 1
0, 4
2, 2
4, 5
2, 1
3, 2
0, 1
1, 0
1, 2
0, 2
2, 1
4, 3
1, 3
4, 5
3, 4
2, 7
4, 4
0, 1
3, 3
1, 2
1, 1
1, 0
1, 0
0, 2
1, 2
1, 1
0, 0
1, 5
3, 1
0, 2
2, 3
2, 2
0, 0
0, 0
0, 2
0, 0
0, 0
1, 0
0, 0
0, 0
0, 0
3, 0
2, 0
1, 0
2, 0
1, 0
0, 0
0, 0
1, 2
0, 0
0, 0
0, 0
0, 0
0, 0
0, 0
0, 1
0, 0
0, 0
1, 0
0, 0
0, 0
1, 0
0, 0
0, 0
1, 0
2, 0
0, 2
0, 0
0, 0
0, 0
0, 1
0, 0
0, 0
0, 0
0, 0
0, 0
0, 0
0, 0
1, 1
0, 0
0, 0
0, 0
0, 0
0, 0
0, 0
0, 0
0, 0
0, 0
0, 0
1, 0
0, 0
0, 0
0, 0
0, 1
0, 0
0, 0
0, 0
0, 0
0, 0
1, 0
0, 0
0, 0
0, 0
0, 0
0, 0
0, 0
0, 0
0, 0
0, 0
0, 0
0, 0
0, 0
0, 0
0, 0
0, 0
0, 0
0, 0
0, 0
0, 0
0, 0
0, 1
0, 0
0, 0
0, 0
0, 0
0, 0
0, 0
1, 0
0, 0
0, 0
0, 0
0, 0
0, 0
0, 0
0, 0
0, 0
0, 0
0, 0
0, 0
0, 0
0, 0
0, 0
0, 0
0, 0
0, 0
0, 0
0, 0
0, 0
0, 0
0, 0
0, 0
0, 0
0, 0
0, 0
0, 0
0, 0
0, 0
0, 0
0, 0
0, 0
0, 0
0, 0
0, 0
0, 0
0, 0
0, 0
0, 0
0, 0
0, 0
0, 0
0, 0
0, 0
0, 0
0, 0
0, 0
0, 0
0, 0
0, 0
0, 0
0, 0
0, 0
0, 0
0, 0
0, 0
0, 0
0, 0
0, 0
0, 0
0, 0
0, 0
0, 0
#ENDOFDATA     end of spectrum data

File: ps__0852shot_2008.msa
#FORMAT      : EMSA/MAS spectral data file
#VERSION     : TC202v2.0 PIXL
#TITLE       : N/A
#DATE        :       Date in the format DD-MMM-YYYY, for example 07-JUL-2010
#TIME        :             The time of day at which the spectrum was recorded, in 24-hour format
#OWNER       : PIXL Flight Model       (PIXL will use this to indicate which instrument took the data.)
#NPOINTS     : 4096     Number of data points in the spectrum (This can be zero for configuration only files)
#NCOLUMNS    : 2     Number of data columns in the spectrum (This can be zero for configuration only files)
#XUNITS      : eV
#YUNITS      : COUNTS
#DATATYPE    : YY
#XPERCHAN    : 7.862, 7.881   eV per channel (separate by commas if more than one detector)
#OFFSET      : 18.5, -22.4         eV of first channel  (separate by commas if more than one detector
#SIGNALTYPE  : XRF
#YP_TEMP     : 2.235
#LIVETIME    : 8.61065, 8.53428   seconds (separate by commas if more than one detector)
#REALTIME    : 10, 10.0   seconds (separate by commas if more than one detector)
#SPECTRUM    : start of spectrum data
0, 0
0, 0
0, 0
0, 0
0, 0
0, 0
0, 0
0, 0
1, 0
1, 0
1, 1
38, 38
50, 60
3, 8
5, 5
117, 87
367, 425
115, 75
5, 5
1, 0
1, 5
2, 6
3, 2
6, 7
28, 45
36, 33
32, 19
29, 10
7, 5
2, 1
6, 2
3, 3
4, 8
12, 12
19, 18
5, 1
2, 4
6, 4
32, 4
14, 3
19, 3
12, 9
6, 6
4, 38
6, 23
9, 15
5, 9
3, 10
4, 7
11, 16
25, 11
47, 3
53, 8
66, 42
69, 57
21, 16
42, 31
497, 630
2123, 2247
1571, 1340
227, 133
24, 19
22, 24
105, 130
343, 372
223, 208
36, 22
3, 9
17, 13
6, 4
5, 4
5, 2
1, 5
7, 5
4, 4
17, 8
34, 5
8, 24
7, 17
1, 10
4, 7
7, 4
5, 3
5, 3
3, 2
3, 5
4, 3
6, 5
3, 6
2, 1
2, 5
1, 3
5, 7
2, 11
2, 9
3, 4
1, 2
3, 7
2, 1
2, 0
1, 0
4, 1
5, 1
4, 4
3, 2
4, 1
3, 1
5, 3
1, 4
4, 3
0, 1
1, 1
2, 2
3, 3
0, 2
4, 2
5, 3
5, 6
1, 3
2, 0
2, 0
0, 1
2, 2
2, 0
4, 1
3, 1
0, 0
1, 1
0, 1
0, 1
1, 1
2, 1
0, 1
1, 0
0, 0
2, 2
0, 1
0, 0
1, 1
0, 0
0, 0
1, 2
0, 0
0, 1
2, 1
1, 0
0, 1
4, 1
0, 1
0, 0
1, 1
0, 1
0, 1
0, 0
0, 0
1, 0
0, 0
0, 0
0, 0
1, 0
0, 0
0, 2
0, 0
0, 0
0, 0
0, 0
0, 1
0, 0
0, 0
1, 0
1, 0
1, 0
0, 1
1, 0
0, 0
0, 0
0, 0
0, 0
0, 0
0, 0
0, 0
0, 1
1, 0
0, 0
0, 0
0, 0
0, 0
0, 0
1, 1
0, 0
0, 1
0, 0
0, 0
0, 0
0, 0
0, 0
0, 0
0, 0
0, 0
0, 0
0, 0
0, 0
0, 0
0, 0
0, 0
0, 1
0, 0
0, 0
0, 0
0, 0
0, 0
0, 0
0, 0
0, 0
0, 0
0, 0
0, 0
0, 0
0, 0
0, 0
0, 0
0, 0
0, 0
0, 0
0, 0
0, 0
0, 0
0, 0
0, 0
0, 0
0, 0
0, 0
0, 0
0, 0
0, 0
0, 0
0, 0
0, 0
0, 0
0, 0
0, 0
0, 0
0, 0
0, 0
0, 0
0, 0
0, 0
0, 0
0, 0
0, 0
0, 0
0, 0
0, 0
0, 0
0, 0
0, 0
0, 0
0, 0
0, 0
0, 0
0, 0
0, 0
0, 0
0, 0
0, 0
0, 0
0, 0
0, 0
0, 0
0, 0
0, 0
0, 0
0, 0
0, 0
0, 0
0, 0
0, 0
0, 0
0, 0
0, 0
0, 0
0, 0
0, 0
0, 0
0, 0
0, 0
0, 0
0, 0
0, 0
0, 0
0, 0
0, 0
0, 0
0, 0
#ENDOFDATA     end of spectrum data