Folder: data-repository/host_upload/06-09-2024/ps_0852/dump3 (part 18)

File: ps__0852shot_2155.msa
#FORMAT      : EMSA/MAS spectral data file
#VERSION     : TC202v2.0 PIXL
#TITLE       : N/A
#DATE        :       Date in the format DD-MMM-YYYY, for example 07-JUL-2010
#TIME        :             The time of day at which the spectrum was recorded, in 24-hour format
#OWNER       : PIXL Flight Model       (PIXL will use this to indicate which instrument took the data.)
#NPOINTS     : 4096     Number of data points in the spectrum (This can be zero for configuration only files)
#NCOLUMNS    : 2     Number of data columns in the spectrum (This can be zero for configuration only files)
#XUNITS      : eV
#YUNITS      : COUNTS
#DATATYPE    : YY
#XPERCHAN    : 7.862, 7.881   eV per channel (separate by commas if more than one detector)
#OFFSET      : 18.5, -22.4         eV of first channel  (separate by commas if more than one detector
#SIGNALTYPE  : XRF
#YP_TEMP     : 2.46
#LIVETIME    : 8.5727, 8.5894   seconds (separate by commas if more than one detector)
#REALTIME    : 10, 10.0   seconds (separate by commas if more than one detector)
#SPECTRUM    : start of spectrum data
0, 0
0, 0
0, 0
0, 0
0, 0
0, 0
0, 0
0, 2
0, 2
0, 2
5, 4
42, 36
65, 66
3, 5
4, 2
96, 101
415, 411
100, 86
4, 3
1, 2
11, 9
59, 58
22, 33
14, 6
33, 28
33, 35
17, 13
16, 15
5, 8
4, 2
7, 3
6, 1
34, 2
67, 6
17, 16
5, 5
3, 6
3, 11
5, 6
3, 4
5, 3
19, 11
10, 21
15, 30
7, 21
13, 4
8, 4
8, 6
35, 9
58, 8
32, 15
15, 29
13, 33
42, 46
76, 60
49, 23
98, 28
497, 601
2152, 2266
1537, 1347
215, 151
15, 16
13, 17
104, 129
328, 374
229, 232
39, 29
7, 12
10, 12
3, 9
1, 7
7, 3
7, 4
6, 2
5, 8
4, 5
16, 1
22, 1
12, 5
6, 5
4, 3
6, 2
3, 3
0, 4
2, 10
4, 8
5, 4
4, 8
1, 5
5, 2
5, 4
6, 1
6, 6
3, 3
3, 2
8, 4
4, 4
3, 2
7, 3
3, 3
2, 3
0, 1
0, 3
3, 2
2, 2
1, 4
3, 2
3, 2
0, 5
2, 0
5, 0
2, 2
4, 2
0, 1
3, 1
2, 4
5, 6
4, 5
0, 3
3, 2
3, 2
3, 1
2, 0
4, 2
1, 1
1, 4
0, 3
1, 1
0, 2
0, 0
0, 1
2, 2
0, 0
1, 2
1, 0
1, 0
0, 1
0, 4
1, 0
0, 0
0, 0
0, 2
1, 2
1, 2
0, 1
0, 1
3, 0
2, 0
0, 1
1, 2
0, 0
2, 1
0, 0
1, 1
0, 0
0, 1
0, 1
0, 0
0, 0
0, 0
0, 0
0, 0
0, 0
0, 0
0, 0
0, 0
0, 0
0, 1
0, 0
0, 0
0, 0
0, 0
0, 1
2, 0
0, 0
0, 0
0, 0
0, 1
0, 0
0, 1
0, 0
0, 1
0, 0
0, 0
1, 0
0, 0
1, 0
0, 0
0, 0
0, 0
0, 0
0, 0
0, 0
0, 0
0, 0
0, 0
0, 0
0, 0
0, 0
0, 0
1, 0
0, 0
0, 0
0, 0
1, 0
0, 0
0, 0
0, 0
0, 0
0, 0
0, 0
0, 0
0, 0
0, 0
0, 0
0, 0
0, 0
0, 0
0, 0
0, 0
0, 0
0, 0
0, 0
0, 0
0, 0
0, 0
0, 0
0, 0
0, 0
0, 0
0, 0
0, 0
0, 0
0, 0
0, 0
0, 0
0, 0
0, 0
0, 0
0, 0
0, 0
0, 0
0, 0
0, 0
0, 0
0, 0
0, 0
0, 0
0, 0
0, 0
0, 0
0, 0
0, 0
0, 0
0, 0
0, 0
0, 0
0, 0
0, 0
0, 0
0, 0
0, 0
0, 0
0, 0
0, 0
0, 0
0, 0
0, 0
0, 0
0, 0
0, 0
0, 0
0, 0
0, 0
0, 0
0, 0
0, 0
0, 0
0, 0
0, 0
0, 0
0, 0
0, 0
0, 0
0, 0
0, 0
0, 0
0, 0
0, 0
0, 0
0, 0
0, 0
0, 0
0, 0
#ENDOFDATA     end of spectrum data

File: ps__0852shot_2156.msa
#FORMAT      : EMSA/MAS spectral data file
#VERSION     : TC202v2.0 PIXL
#TITLE       : N/A
#DATE        :       Date in the format DD-MMM-YYYY, for example 07-JUL-2010
#TIME        :             The time of day at which the spectrum was recorded, in 24-hour format
#OWNER       : PIXL Flight Model       (PIXL will use this to indicate which instrument took the data.)
#NPOINTS     : 4096     Number of data points in the spectrum (This can be zero for configuration only files)
#NCOLUMNS    : 2     Number of data columns in the spectrum (This can be zero for configuration only files)
#XUNITS      : eV
#YUNITS      : COUNTS
#DATATYPE    : YY
#XPERCHAN    : 7.862, 7.881   eV per channel (separate by commas if more than one detector)
#OFFSET      : 18.5, -22.4         eV of first channel  (separate by commas if more than one detector
#SIGNALTYPE  : XRF
#YP_TEMP     : 2.46
#LIVETIME    : 8.54641, 8.59883   seconds (separate by commas if more than one detector)
#REALTIME    : 10, 10.0   seconds (separate by commas if more than one detector)
#SPECTRUM    : start of spectrum data
0, 0
0, 0
0, 0
0, 0
0, 0
0, 0
0, 0
0, 0
1, 2
1, 1
2, 0
37, 43
44, 50
3, 7
5, 2
91, 97
309, 388
83, 101
6, 5
4, 6
26, 36
158, 159
67, 64
14, 21
41, 46
41, 46
22, 29
11, 16
9, 5
1, 3
6, 9
1, 6
3, 3
17, 8
10, 12
5, 4
4, 3
2, 4
9, 6
2, 7
2, 7
7, 11
11, 15
8, 35
8, 30
6, 6
6, 7
4, 6
12, 8
27, 10
15, 17
7, 23
12, 37
41, 55
63, 64
58, 22
120, 37
539, 660
1972, 2463
1534, 1462
204, 170
14, 14
19, 28
96, 124
323, 360
236, 221
21, 35
18, 6
23, 18
33, 3
24, 3
10, 1
8, 0
4, 1
0, 8
7, 11
21, 2
19, 7
6, 4
3, 3
1, 0
4, 6
2, 3
3, 9
4, 5
2, 5
2, 3
3, 1
7, 1
0, 3
2, 3
5, 1
0, 3
3, 26
2, 23
5, 9
3, 4
3, 2
2, 0
6, 1
4, 1
2, 2
5, 2
2, 1
2, 2
2, 4
2, 2
0, 2
1, 3
0, 1
1, 3
4, 1
1, 0
4, 2
2, 3
0, 3
6, 7
0, 8
0, 2
1, 0
0, 0
0, 2
2, 2
2, 2
1, 3
0, 0
4, 0
0, 0
1, 1
1, 0
3, 3
2, 0
2, 2
1, 2
1, 0
1, 0
2, 0
1, 2
0, 0
1, 2
0, 1
1, 0
0, 0
1, 1
1, 3
0, 0
0, 1
2, 1
0, 1
0, 2
0, 0
2, 0
2, 2
1, 0
1, 2
0, 0
0, 0
0, 0
0, 0
0, 0
0, 0
0, 0
0, 0
0, 1
1, 0
1, 2
0, 0
0, 0
0, 0
0, 0
0, 0
1, 0
0, 0
1, 0
0, 0
0, 0
0, 1
0, 0
1, 0
1, 0
0, 0
0, 0
0, 0
0, 0
0, 0
0, 0
0, 0
0, 0
0, 0
0, 0
0, 0
1, 0
0, 0
0, 0
0, 0
0, 0
0, 0
0, 1
0, 0
0, 0
0, 0
0, 0
0, 0
0, 0
0, 0
0, 0
0, 0
0, 0
0, 0
0, 0
0, 0
0, 0
0, 0
0, 0
0, 0
0, 0
0, 0
0, 0
0, 0
0, 0
0, 0
0, 0
0, 0
0, 0
0, 0
0, 0
0, 0
0, 0
0, 0
0, 0
0, 0
0, 0
0, 0
0, 0
0, 0
0, 0
0, 0
0, 0
0, 0
0, 0
0, 0
0, 0
0, 0
0, 0
0, 0
0, 0
0, 0
0, 0
0, 0
0, 0
0, 0
0, 0
0, 0
0, 0
0, 0
0, 0
0, 0
0, 0
0, 0
0, 0
0, 0
0, 0
0, 0
0, 0
0, 0
0, 0
0, 0
0, 0
0, 0
0, 0
0, 0
0, 0
0, 0
0, 0
0, 0
0, 0
0, 0
0, 0
0, 0
0, 0
0, 0
0, 0
0, 0
0, 0
0, 0
0, 0
0, 0
0, 0
0, 0
0, 0
0, 0
0, 0
0, 0
0, 0
#ENDOFDATA     end of spectrum data

File: ps__0852shot_2157.msa
#FORMAT      : EMSA/MAS spectral data file
#VERSION     : TC202v2.0 PIXL
#TITLE       : N/A
#DATE        :       Date in the format DD-MMM-YYYY, for example 07-JUL-2010
#TIME        :             The time of day at which the spectrum was recorded, in 24-hour format
#OWNER       : PIXL Flight Model       (PIXL will use this to indicate which instrument took the data.)
#NPOINTS     : 4096     Number of data points in the spectrum (This can be zero for configuration only files)
#NCOLUMNS    : 2     Number of data columns in the spectrum (This can be zero for configuration only files)
#XUNITS      : eV
#YUNITS      : COUNTS
#DATATYPE    : YY
#XPERCHAN    : 7.862, 7.881   eV per channel (separate by commas if more than one detector)
#OFFSET      : 18.5, -22.4         eV of first channel  (separate by commas if more than one detector
#SIGNALTYPE  : XRF
#YP_TEMP     : 2.396
#LIVETIME    : 8.5629, 8.35974   seconds (separate by commas if more than one detector)
#REALTIME    : 10, 10.0   seconds (separate by commas if more than one detector)
#SPECTRUM    : start of spectrum data
0, 0
0, 0
0, 0
0, 0
0, 0
0, 0
0, 0
0, 0
1, 0
3, 2
1, 4
36, 47
29, 58
3, 6
5, 8
61, 112
301, 382
82, 96
3, 12
3, 0
43, 41
220, 246
95, 85
27, 27
48, 62
44, 59
26, 20
11, 17
4, 5
4, 5
4, 6
3, 2
3, 7
35, 42
50, 75
9, 13
9, 10
9, 10
5, 9
4, 3
5, 12
13, 14
10, 32
10, 30
5, 14
11, 29
3, 19
9, 10
10, 12
21, 26
21, 14
9, 5
13, 16
35, 44
55, 57
25, 17
30, 42
410, 566
1886, 2361
1537, 1436
223, 163
13, 23
21, 21
94, 121
325, 341
233, 214
32, 31
11, 13
19, 20
29, 8
17, 3
3, 0
4, 7
6, 2
7, 5
4, 2
7, 4
3, 6
4, 11
2, 5
3, 3
3, 3
1, 8
1, 3
2, 6
3, 2
2, 4
1, 2
5, 7
4, 5
4, 10
3, 5
3, 7
3, 22
4, 26
1, 10
3, 1
4, 2
10, 3
5, 4
3, 4
3, 2
4, 3
3, 1
1, 2
1, 2
1, 2
3, 3
0, 1
5, 4
2, 2
1, 1
2, 2
2, 2
1, 3
1, 5
1, 10
2, 1
0, 4
2, 2
0, 1
1, 4
2, 2
3, 0
0, 2
1, 2
1, 1
3, 2
2, 2
0, 2
1, 1
0, 3
0, 1
0, 1
2, 1
1, 1
1, 0
2, 0
1, 0
1, 0
2, 0
1, 0
0, 2
0, 0
1, 0
0, 0
1, 0
0, 0
1, 0
0, 0
0, 0
0, 0
0, 0
0, 0
0, 0
1, 0
3, 0
0, 0
1, 0
1, 0
0, 0
1, 0
0, 0
0, 1
0, 0
0, 0
0, 0
0, 1
0, 1
0, 1
0, 0
1, 1
0, 0
0, 0
0, 0
0, 0
0, 0
0, 0
0, 0
2, 1
0, 0
0, 0
0, 1
0, 0
0, 1
0, 0
0, 0
1, 0
0, 0
0, 0
0, 0
0, 0
0, 0
0, 0
0, 0
0, 0
0, 0
0, 0
0, 0
0, 0
0, 0
0, 0
0, 0
0, 0
0, 0
0, 0
0, 0
0, 0
0, 0
0, 0
0, 0
0, 0
0, 0
0, 0
0, 0
0, 0
0, 0
0, 0
0, 0
0, 0
0, 0
0, 0
0, 0
0, 0
0, 0
0, 0
0, 0
0, 0
0, 0
0, 0
0, 0
0, 0
0, 0
0, 0
0, 0
0, 0
0, 0
0, 0
0, 0
0, 0
0, 0
0, 0
0, 0
0, 0
0, 0
0, 0
0, 0
0, 0
0, 0
0, 0
0, 0
0, 0
0, 0
0, 0
0, 0
0, 0
0, 0
0, 0
0, 0
0, 0
0, 0
0, 0
0, 0
0, 0
0, 0
0, 0
0, 0
0, 0
0, 0
0, 0
0, 0
0, 0
0, 0
0, 0
0, 0
0, 0
0, 0
0, 0
0, 0
0, 0
0, 0
0, 0
0, 0
0, 0
0, 0
0, 0
0, 0
0, 0
0, 0
0, 0
0, 0
0, 0
0, 0
0, 0
#ENDOFDATA     end of spectrum data

File: ps__0852shot_2158.msa
#FORMAT      : EMSA/MAS spectral data file
#VERSION     : TC202v2.0 PIXL
#TITLE       : N/A
#DATE        :       Date in the format DD-MMM-YYYY, for example 07-JUL-2010
#TIME        :             The time of day at which the spectrum was recorded, in 24-hour format
#OWNER       : PIXL Flight Model       (PIXL will use this to indicate which instrument took the data.)
#NPOINTS     : 4096     Number of data points in the spectrum (This can be zero for configuration only files)
#NCOLUMNS    : 2     Number of data columns in the spectrum (This can be zero for configuration only files)
#XUNITS      : eV
#YUNITS      : COUNTS
#DATATYPE    : YY
#XPERCHAN    : 7.862, 7.881   eV per channel (separate by commas if more than one detector)
#OFFSET      : 18.5, -22.4         eV of first channel  (separate by commas if more than one detector
#SIGNALTYPE  : XRF
#YP_TEMP     : 2.428
#LIVETIME    : 8.57589, 8.55216   seconds (separate by commas if more than one detector)
#REALTIME    : 10, 10.0   seconds (separate by commas if more than one detector)
#SPECTRUM    : start of spectrum data
0, 0
0, 0
0, 0
0, 0
0, 0
0, 0
0, 0
0, 1
0, 2
3, 2
3, 0
36, 27
46, 59
8, 6
5, 5
70, 87
325, 380
85, 88
4, 4
1, 1
49, 56
209, 305
114, 128
24, 56
44, 57
52, 55
25, 31
22, 13
9, 8
5, 2
4, 2
1, 1
7, 9
69, 71
105, 113
21, 22
12, 14
14, 20
8, 6
2, 3
4, 3
10, 18
13, 26
7, 13
9, 14
5, 53
6, 55
5, 15
11, 10
21, 25
27, 26
10, 9
14, 11
32, 52
61, 59
18, 22
28, 31
412, 600
1858, 2326
1405, 1400
225, 152
18, 23
15, 29
100, 115
279, 319
176, 196
27, 28
8, 14
10, 28
7, 15
8, 4
5, 7
3, 6
6, 11
5, 5
0, 6
3, 4
6, 7
5, 2
7, 3
2, 6
2, 5
4, 5
3, 13
4, 7
0, 4
3, 5
2, 4
4, 6
2, 7
3, 9
2, 7
5, 4
3, 3
4, 4
3, 6
3, 4
1, 1
6, 4
10, 1
5, 4
4, 3
1, 3
3, 0
4, 2
1, 4
1, 1
2, 1
3, 3
0, 0
2, 3
0, 4
2, 3
1, 4
3, 5
3, 3
2, 3
2, 3
0, 1
4, 2
3, 0
1, 0
1, 2
1, 2
1, 1
0, 2
2, 2
1, 1
0, 1
2, 1
2, 1
2, 2
0, 0
2, 0
1, 2
0, 2
0, 0
0, 0
1, 1
0, 0
0, 1
0, 0
1, 2
1, 0
1, 0
0, 0
2, 0
1, 1
0, 1
0, 1
0, 1
0, 0
0, 1
0, 0
2, 1
0, 0
0, 0
1, 0
0, 0
0, 2
0, 0
1, 0
0, 0
1, 0
0, 0
0, 0
0, 0
0, 1
0, 1
0, 0
0, 0
0, 0
0, 0
0, 0
0, 0
1, 1
0, 0
0, 0
0, 0
1, 0
0, 0
0, 0
0, 0
0, 0
0, 0
0, 0
0, 0
0, 0
0, 0
0, 0
0, 0
0, 0
0, 0
0, 0
0, 0
0, 0
0, 0
0, 0
0, 0
0, 0
0, 1
0, 0
0, 0
0, 0
0, 0
0, 0
0, 0
0, 0
0, 0
0, 0
0, 0
0, 0
0, 0
0, 0
0, 0
0, 0
0, 0
0, 0
0, 0
0, 0
0, 0
0, 0
0, 0
0, 0
0, 0
0, 0
0, 0
0, 0
0, 0
0, 0
0, 0
0, 0
0, 0
0, 0
0, 0
0, 0
0, 0
0, 0
0, 0
0, 0
0, 0
0, 0
0, 0
0, 0
0, 0
0, 0
0, 0
0, 0
0, 0
0, 0
0, 0
0, 0
0, 0
0, 0
0, 0
0, 0
0, 0
0, 0
0, 0
0, 0
0, 0
0, 0
0, 0
0, 0
0, 0
0, 0
0, 0
0, 0
0, 0
0, 0
0, 0
0, 0
0, 0
0, 0
0, 0
0, 0
0, 0
0, 0
0, 0
0, 0
0, 0
0, 0
0, 0
0, 0
0, 0
0, 0
0, 0
0, 0
0, 0
0, 0
0, 0
0, 0
0, 0
0, 0
#ENDOFDATA     end of spectrum data

File: ps__0852shot_2159.msa
#FORMAT      : EMSA/MAS spectral data file
#VERSION     : TC202v2.0 PIXL
#TITLE       : N/A
#DATE        :       Date in the format DD-MMM-YYYY, for example 07-JUL-2010
#TIME        :             The time of day at which the spectrum was recorded, in 24-hour format
#OWNER       : PIXL Flight Model       (PIXL will use this to indicate which instrument took the data.)
#NPOINTS     : 4096     Number of data points in the spectrum (This can be zero for configuration only files)
#NCOLUMNS    : 2     Number of data columns in the spectrum (This can be zero for configuration only files)
#XUNITS      : eV
#YUNITS      : COUNTS
#DATATYPE    : YY
#XPERCHAN    : 7.862, 7.881   eV per channel (separate by commas if more than one detector)
#OFFSET      : 18.5, -22.4         eV of first channel  (separate by commas if more than one detector
#SIGNALTYPE  : XRF
#YP_TEMP     : 2.364
#LIVETIME    : 8.55954, 8.55638   seconds (separate by commas if more than one detector)
#REALTIME    : 10, 10.0   seconds (separate by commas if more than one detector)
#SPECTRUM    : start of spectrum data
0, 0
0, 0
0, 0
0, 0
0, 0
0, 0
0, 0
0, 1
1, 0
1, 4
2, 2
31, 46
39, 53
5, 4
4, 8
87, 86
376, 397
93, 83
10, 8
4, 2
31, 27
161, 199
64, 86
18, 48
51, 69
66, 55
26, 23
11, 12
6, 7
3, 4
7, 1
0, 4
6, 3
17, 17
27, 34
3, 7
11, 11
12, 2
6, 0
6, 5
1, 6
12, 7
14, 10
11, 13
5, 9
8, 16
6, 33
5, 8
12, 9
12, 20
7, 14
8, 8
15, 8
52, 50
73, 70
24, 25
32, 37
491, 566
2237, 2184
1732, 1377
213, 127
20, 14
11, 25
98, 109
323, 349
230, 181
31, 22
7, 9
13, 19
12, 4
13, 1
8, 8
12, 9
2, 7
4, 6
6, 21
9, 12
5, 3
5, 2
11, 3
11, 5
2, 2
3, 6
3, 2
1, 11
4, 3
3, 4
3, 1
7, 6
4, 5
5, 3
6, 4
2, 2
4, 2
8, 1
4, 3
3, 1
3, 3
5, 1
2, 1
3, 2
2, 0
2, 3
2, 2
5, 3
3, 4
1, 3
1, 4
4, 5
0, 5
5, 3
1, 1
4, 0
1, 1
1, 0
4, 6
3, 4
4, 3
4, 3
1, 0
1, 2
1, 2
6, 4
2, 2
2, 2
0, 0
0, 2
1, 0
0, 1
1, 0
2, 0
2, 1
0, 0
2, 0
1, 0
2, 0
0, 0
1, 1
1, 1
1, 2
1, 0
1, 1
0, 0
1, 0
0, 0
0, 1
0, 2
0, 0
1, 0
0, 2
1, 0
0, 0
0, 1
0, 1
0, 0
0, 1
0, 0
0, 0
0, 0
1, 1
0, 0
0, 1
0, 0
1, 0
0, 1
0, 1
1, 0
0, 0
0, 0
0, 2
0, 0
0, 0
1, 1
0, 0
1, 0
0, 0
0, 0
0, 0
1, 0
1, 1
1, 0
0, 0
0, 0
0, 1
0, 0
0, 1
0, 0
0, 0
0, 1
0, 0
0, 1
0, 0
1, 0
0, 0
1, 0
0, 0
0, 0
0, 0
0, 0
0, 0
0, 0
0, 0
0, 0
0, 0
0, 0
0, 0
0, 0
0, 0
0, 0
0, 0
0, 0
0, 0
0, 0
0, 0
0, 0
0, 0
0, 0
0, 0
0, 0
0, 0
0, 0
0, 0
0, 0
0, 0
0, 0
0, 0
0, 0
0, 0
0, 0
0, 0
0, 0
0, 0
0, 0
0, 0
0, 0
0, 0
0, 0
0, 0
0, 0
0, 0
0, 0
0, 0
0, 0
0, 0
0, 0
0, 0
0, 0
0, 0
0, 0
0, 0
0, 0
0, 0
0, 0
0, 0
0, 0
0, 0
0, 0
0, 0
0, 0
0, 0
0, 0
0, 0
0, 0
0, 0
0, 0
0, 0
0, 0
0, 0
0, 0
0, 0
0, 0
0, 0
0, 0
0, 0
0, 0
0, 0
0, 0
0, 0
0, 0
0, 0
0, 0
0, 0
0, 0
0, 0
0, 0
0, 0
0, 0
0, 0
0, 0
0, 0
0, 0
0, 0
0, 0
0, 0
#ENDOFDATA     end of spectrum data

File: ps__0852shot_2160.msa
#FORMAT      : EMSA/MAS spectral data file
#VERSION     : TC202v2.0 PIXL
#TITLE       : N/A
#DATE        :       Date in the format DD-MMM-YYYY, for example 07-JUL-2010
#TIME        :             The time of day at which the spectrum was recorded, in 24-hour format
#OWNER       : PIXL Flight Model       (PIXL will use this to indicate which instrument took the data.)
#NPOINTS     : 4096     Number of data points in the spectrum (This can be zero for configuration only files)
#NCOLUMNS    : 2     Number of data columns in the spectrum (This can be zero for configuration only files)
#XUNITS      : eV
#YUNITS      : COUNTS
#DATATYPE    : YY
#XPERCHAN    : 7.862, 7.881   eV per channel (separate by commas if more than one detector)
#OFFSET      : 18.5, -22.4         eV of first channel  (separate by commas if more than one detector
#SIGNALTYPE  : XRF
#YP_TEMP     : 2.428
#LIVETIME    : 8.55416, 8.55175   seconds (separate by commas if more than one detector)
#REALTIME    : 10, 10.0   seconds (separate by commas if more than one detector)
#SPECTRUM    : start of spectrum data
0, 0
0, 0
0, 0
0, 0
0, 0
0, 0
0, 0
0, 1
0, 0
1, 0
2, 1
44, 31
53, 52
8, 10
3, 8
77, 104
361, 407
94, 102
3, 9
2, 2
29, 35
145, 183
68, 69
29, 31
79, 94
52, 64
27, 23
17, 19
7, 13
2, 4
3, 2
2, 2
2, 2
4, 11
20, 13
4, 2
3, 2
5, 10
1, 16
3, 5
5, 7
9, 12
16, 9
13, 14
8, 5
1, 7
5, 11
8, 6
4, 11
21, 15
14, 25
19, 10
8, 19
34, 52
44, 83
19, 25
20, 32
449, 599
1971, 2369
1491, 1444
180, 141
18, 11
21, 26
98, 116
321, 377
228, 196
43, 29
8, 12
19, 10
24, 5
20, 5
11, 1
8, 6
2, 6
9, 12
8, 12
5, 21
1, 9
6, 3
10, 3
4, 7
7, 2
3, 3
3, 2
6, 5
5, 13
4, 2
8, 1
1, 3
3, 5
1, 7
6, 6
4, 1
6, 4
3, 3
1, 0
3, 4
0, 3
2, 5
2, 4
3, 5
2, 1
3, 5
2, 0
2, 4
4, 2
3, 2
1, 0
2, 4
7, 3
1, 4
3, 2
0, 0
1, 1
1, 4
2, 1
5, 6
3, 3
3, 4
3, 3
1, 0
2, 3
2, 2
1, 1
0, 1
0, 0
1, 1
2, 1
1, 1
1, 1
0, 0
0, 1
1, 2
1, 0
0, 1
1, 1
0, 0
1, 1
1, 0
3, 0
1, 0
1, 1
1, 1
0, 0
1, 0
1, 0
0, 0
0, 1
0, 0
0, 0
0, 0
0, 0
0, 1
0, 0
0, 0
1, 0
1, 0
1, 0
0, 0
0, 1
0, 0
0, 0
1, 0
1, 0
0, 0
0, 0
0, 0
0, 1
0, 0
0, 0
1, 0
0, 0
0, 0
0, 1
0, 0
0, 0
0, 0
0, 1
0, 0
0, 0
0, 0
0, 0
0, 0
0, 0
0, 0
0, 0
0, 0
0, 0
0, 0
0, 0
0, 0
0, 0
0, 1
0, 0
0, 0
0, 0
0, 0
0, 0
0, 0
0, 0
0, 0
0, 0
0, 0
0, 0
0, 1
0, 0
0, 0
0, 0
0, 0
0, 1
0, 0
0, 0
0, 0
0, 0
0, 0
0, 0
0, 0
0, 0
0, 0
0, 0
0, 0
0, 0
0, 0
0, 0
0, 0
0, 0
0, 0
0, 0
0, 0
0, 0
0, 0
0, 0
0, 0
0, 0
0, 0
0, 0
0, 0
0, 0
0, 0
0, 0
0, 0
0, 0
0, 0
0, 0
0, 0
0, 0
0, 0
0, 0
0, 0
0, 0
0, 0
0, 0
0, 0
0, 0
0, 0
0, 0
0, 0
0, 0
0, 0
0, 0
0, 0
0, 0
0, 0
0, 0
0, 0
0, 0
0, 0
0, 0
0, 0
0, 0
0, 0
0, 0
0, 0
0, 0
0, 0
0, 0
0, 0
0, 0
0, 0
0, 0
0, 0
0, 0
0, 0
0, 0
0, 0
0, 0
0, 0
0, 0
0, 0
0, 0
0, 0
0, 0
0, 0
0, 0
#ENDOFDATA     end of spectrum data

File: ps__0852shot_2161.msa
#FORMAT      : EMSA/MAS spectral data file
#VERSION     : TC202v2.0 PIXL
#TITLE       : N/A
#DATE        :       Date in the format DD-MMM-YYYY, for example 07-JUL-2010
#TIME        :             The time of day at which the spectrum was recorded, in 24-hour format
#OWNER       : PIXL Flight Model       (PIXL will use this to indicate which instrument took the data.)
#NPOINTS     : 4096     Number of data points in the spectrum (This can be zero for configuration only files)
#NCOLUMNS    : 2     Number of data columns in the spectrum (This can be zero for configuration only files)
#XUNITS      : eV
#YUNITS      : COUNTS
#DATATYPE    : YY
#XPERCHAN    : 7.862, 7.881   eV per channel (separate by commas if more than one detector)
#OFFSET      : 18.5, -22.4         eV of first channel  (separate by commas if more than one detector
#SIGNALTYPE  : XRF
#YP_TEMP     : 2.332
#LIVETIME    : 8.56087, 8.55625   seconds (separate by commas if more than one detector)
#REALTIME    : 10, 10.0   seconds (separate by commas if more than one detector)
#SPECTRUM    : start of spectrum data
0, 0
0, 0
0, 0
0, 0
0, 0
0, 0
0, 0
0, 0
0, 1
0, 4
2, 1
37, 36
39, 40
6, 7
5, 7
48, 71
260, 290
63, 92
7, 5
8, 2
48, 62
336, 378
156, 164
61, 53
101, 133
97, 92
41, 49
14, 22
11, 7
8, 6
4, 11
3, 2
1, 5
19, 19
38, 28
10, 12
4, 10
8, 10
5, 18
2, 8
6, 5
8, 13
9, 18
12, 7
6, 9
6, 29
8, 22
7, 6
9, 13
30, 14
49, 35
37, 17
11, 21
37, 54
60, 67
21, 19
26, 34
429, 607
2049, 2336
1504, 1551
185, 164
21, 22
29, 22
103, 132
328, 379
244, 196
34, 21
10, 9
14, 10
51, 5
40, 2
14, 7
6, 4
6, 5
7, 9
2, 2
0, 5
6, 6
6, 3
5, 4
6, 4
7, 7
7, 3
4, 9
3, 9
4, 10
3, 5
5, 7
7, 4
3, 9
4, 15
6, 12
7, 1
2, 3
3, 7
2, 6
2, 3
0, 3
1, 6
3, 3
7, 1
7, 0
5, 2
2, 1
2, 4
2, 4
3, 5
1, 0
3, 2
2, 2
2, 0
3, 0
3, 0
2, 2
1, 0
4, 1
4, 2
1, 4
3, 3
1, 2
0, 2
1, 5
1, 1
1, 1
0, 4
0, 0
0, 2
1, 3
0, 2
1, 0
2, 0
0, 1
2, 2
0, 0
0, 0
2, 1
2, 0
0, 0
2, 0
1, 0
0, 3
0, 1
0, 0
0, 0
0, 0
0, 1
0, 0
1, 0
0, 0
1, 0
0, 2
0, 1
0, 0
0, 0
2, 0
1, 0
0, 0
0, 0
0, 0
1, 1
1, 0
0, 0
0, 0
0, 2
0, 0
0, 0
0, 0
0, 0
0, 0
0, 1
1, 0
0, 0
0, 0
1, 1
1, 1
0, 0
0, 0
0, 0
0, 1
0, 0
0, 0
1, 0
0, 0
0, 0
0, 0
0, 0
0, 0
0, 0
0, 1
0, 0
2, 0
0, 0
0, 0
0, 0
0, 0
0, 0
0, 0
0, 0
0, 0
0, 0
0, 0
0, 0
0, 0
0, 0
0, 0
0, 0
0, 0
0, 0
0, 0
0, 0
0, 0
0, 0
0, 0
0, 0
0, 0
0, 0
0, 0
0, 0
0, 0
0, 0
0, 0
0, 0
0, 0
0, 0
0, 0
0, 0
0, 0
0, 0
0, 0
0, 0
1, 0
0, 0
0, 0
0, 0
0, 0
0, 0
0, 0
0, 0
0, 0
0, 0
0, 0
0, 0
0, 0
0, 0
0, 0
0, 0
0, 0
0, 0
0, 0
0, 0
0, 0
0, 0
0, 0
0, 0
0, 0
0, 0
0, 0
0, 0
0, 0
0, 0
0, 0
0, 0
0, 0
0, 0
0, 0
0, 0
0, 0
0, 0
0, 0
0, 0
0, 0
0, 0
0, 0
0, 0
0, 0
0, 0
0, 0
0, 0
0, 0
0, 0
0, 0
0, 0
0, 0
0, 0
0, 0
0, 0
0, 0
0, 0
0, 0
0, 0
0, 0
0, 0
0, 0
0, 0
#ENDOFDATA     end of spectrum data

File: ps__0852shot_2162.msa
#FORMAT      : EMSA/MAS spectral data file
#VERSION     : TC202v2.0 PIXL
#TITLE       : N/A
#DATE        :       Date in the format DD-MMM-YYYY, for example 07-JUL-2010
#TIME        :             The time of day at which the spectrum was recorded, in 24-hour format
#OWNER       : PIXL Flight Model       (PIXL will use this to indicate which instrument took the data.)
#NPOINTS     : 4096     Number of data points in the spectrum (This can be zero for configuration only files)
#NCOLUMNS    : 2     Number of data columns in the spectrum (This can be zero for configuration only files)
#XUNITS      : eV
#YUNITS      : COUNTS
#DATATYPE    : YY
#XPERCHAN    : 7.862, 7.881   eV per channel (separate by commas if more than one detector)
#OFFSET      : 18.5, -22.4         eV of first channel  (separate by commas if more than one detector
#SIGNALTYPE  : XRF
#YP_TEMP     : 2.556
#LIVETIME    : 8.56956, 8.54737   seconds (separate by commas if more than one detector)
#REALTIME    : 10, 10.0   seconds (separate by commas if more than one detector)
#SPECTRUM    : start of spectrum data
0, 0
0, 0
0, 0
0, 0
0, 0
0, 0
0, 0
0, 0
2, 2
2, 1
3, 4
31, 31
39, 47
6, 4
7, 7
60, 68
274, 301
64, 72
4, 9
3, 7
80, 75
473, 454
189, 181
38, 44
106, 133
91, 82
33, 35
22, 21
14, 6
9, 3
11, 16
10, 16
7, 4
26, 15
26, 28
9, 4
6, 8
6, 4
7, 5
6, 3
6, 4
10, 6
17, 14
15, 8
8, 10
6, 29
8, 17
6, 14
6, 15
23, 31
53, 30
44, 24
9, 10
39, 45
51, 54
20, 18
26, 38
425, 624
2051, 2308
1538, 1345
202, 144
23, 15
22, 25
108, 118
313, 365
208, 205
36, 16
9, 9
28, 19
55, 9
50, 6
22, 4
6, 6
8, 5
6, 4
7, 6
11, 3
1, 0
9, 5
3, 5
7, 4
11, 4
8, 2
3, 1
5, 4
1, 17
2, 3
5, 5
5, 1
10, 9
5, 21
6, 11
5, 3
3, 3
1, 2
4, 2
1, 3
3, 2
4, 3
4, 3
6, 1
4, 5
5, 2
0, 1
3, 2
0, 2
2, 2
2, 3
1, 3
0, 2
2, 0
3, 2
4, 3
0, 0
2, 4
7, 1
5, 4
1, 3
0, 0
1, 2
2, 1
3, 0
5, 4
1, 1
1, 0
3, 1
3, 1
1, 2
0, 1
1, 2
3, 4
0, 0
0, 2
0, 1
0, 0
2, 0
0, 1
0, 2
1, 0
1, 0
1, 0
0, 0
0, 0
1, 0
0, 0
1, 0
1, 0
0, 0
0, 1
0, 0
0, 0
0, 0
1, 0
1, 0
1, 2
1, 0
1, 0
0, 0
0, 1
0, 0
1, 0
0, 0
0, 0
1, 0
0, 0
0, 1
0, 1
1, 0
0, 0
0, 1
1, 0
1, 0
0, 0
0, 0
0, 0
1, 1
0, 0
0, 0
0, 0
0, 0
0, 0
0, 0
0, 1
0, 0
1, 0
0, 0
0, 0
0, 0
0, 0
0, 0
0, 0
0, 0
0, 0
0, 1
0, 0
1, 0
0, 0
0, 0
0, 0
0, 0
0, 0
0, 0
0, 0
0, 0
0, 0
0, 0
0, 0
0, 0
0, 0
0, 0
0, 0
0, 0
0, 0
0, 0
0, 0
0, 0
0, 0
0, 0
0, 0
0, 0
0, 0
0, 0
0, 0
0, 0
0, 0
0, 0
0, 0
0, 0
0, 0
0, 0
0, 0
0, 0
0, 0
0, 0
0, 0
0, 0
0, 0
0, 0
0, 0
0, 0
0, 0
0, 0
0, 0
0, 0
0, 0
0, 0
0, 0
0, 0
0, 0
0, 0
0, 0
0, 0
0, 0
0, 0
0, 0
0, 0
0, 0
0, 0
0, 0
0, 0
0, 0
0, 0
0, 0
0, 0
0, 0
0, 0
0, 0
0, 0
0, 0
0, 0
0, 0
0, 0
0, 0
0, 0
0, 0
0, 0
0, 0
0, 0
0, 0
0, 0
0, 0
0, 0
0, 0
0, 0
0, 0
0, 0
0, 0
0, 0
0, 0
0, 0
0, 0
0, 0
0, 0
0, 0
#ENDOFDATA     end of spectrum data

File: ps__0852shot_2163.msa
#FORMAT      : EMSA/MAS spectral data file
#VERSION     : TC202v2.0 PIXL
#TITLE       : N/A
#DATE        :       Date in the format DD-MMM-YYYY, for example 07-JUL-2010
#TIME        :             The time of day at which the spectrum was recorded, in 24-hour format
#OWNER       : PIXL Flight Model       (PIXL will use this to indicate which instrument took the data.)
#NPOINTS     : 4096     Number of data points in the spectrum (This can be zero for configuration only files)
#NCOLUMNS    : 2     Number of data columns in the spectrum (This can be zero for configuration only files)
#XUNITS      : eV
#YUNITS      : COUNTS
#DATATYPE    : YY
#XPERCHAN    : 7.862, 7.881   eV per channel (separate by commas if more than one detector)
#OFFSET      : 18.5, -22.4         eV of first channel  (separate by commas if more than one detector
#SIGNALTYPE  : XRF
#YP_TEMP     : 2.396
#LIVETIME    : 8.5612, 8.56614   seconds (separate by commas if more than one detector)
#REALTIME    : 10, 10.0   seconds (separate by commas if more than one detector)
#SPECTRUM    : start of spectrum data
0, 0
0, 0
0, 0
0, 0
0, 0
0, 0
0, 0
0, 0
2, 0
2, 4
2, 3
36, 44
51, 47
4, 4
1, 5
78, 69
284, 350
82, 80
7, 6
3, 3
61, 74
369, 357
132, 144
56, 64
131, 142
57, 81
39, 36
13, 13
9, 4
8, 11
22, 26
14, 18
3, 3
11, 13
20, 13
3, 2
5, 4
5, 8
2, 2
5, 4
6, 6
6, 12
16, 22
14, 12
7, 11
6, 41
5, 23
3, 4
7, 7
23, 17
63, 32
45, 22
12, 12
47, 51
55, 59
25, 22
34, 43
422, 602
2028, 2371
1462, 1419
194, 148
13, 15
17, 23
85, 119
279, 358
208, 185
33, 31
12, 10
20, 8
51, 2
38, 2
11, 2
8, 4
8, 4
8, 4
1, 7
5, 5
2, 3
5, 4
4, 2
4, 7
9, 7
9, 2
6, 9
8, 2
3, 7
3, 3
9, 3
9, 7
6, 8
2, 9
6, 13
4, 6
5, 4
4, 8
2, 4
2, 6
1, 6
6, 3
7, 3
6, 2
12, 2
3, 2
1, 2
2, 0
2, 1
0, 2
0, 1
1, 2
3, 2
3, 1
2, 1
0, 1
3, 1
2, 5
3, 5
2, 4
2, 2
3, 2
2, 1
1, 2
0, 2
2, 3
2, 1
1, 1
0, 0
0, 1
3, 3
0, 0
0, 1
1, 2
0, 0
1, 1
0, 1
0, 2
0, 0
1, 1
0, 0
0, 2
1, 0
1, 0
0, 0
1, 0
0, 0
1, 1
0, 1
1, 0
0, 1
0, 0
0, 0
0, 0
1, 0
2, 0
0, 0
0, 1
0, 0
0, 1
0, 1
1, 0
0, 0
0, 0
0, 0
1, 0
0, 0
0, 0
0, 1
0, 0
0, 0
0, 0
0, 1
0, 1
0, 0
0, 0
0, 0
0, 0
0, 0
0, 0
0, 0
0, 0
0, 0
0, 0
0, 1
0, 0
1, 1
0, 0
0, 0
0, 0
0, 0
0, 0
0, 0
1, 0
0, 0
0, 1
0, 0
0, 0
0, 0
0, 0
0, 0
0, 0
0, 0
0, 0
0, 0
0, 0
0, 0
0, 0
0, 0
0, 0
0, 0
0, 0
0, 0
0, 0
0, 0
0, 0
0, 0
0, 0
0, 0
0, 0
0, 0
0, 0
0, 0
0, 0
0, 0
0, 0
0, 0
0, 0
0, 0
0, 0
0, 0
0, 0
0, 0
0, 0
0, 0
0, 0
0, 0
0, 0
0, 0
0, 0
0, 0
0, 0
0, 0
0, 0
0, 0
0, 0
0, 0
0, 0
0, 0
0, 0
0, 0
0, 0
0, 0
0, 0
0, 0
0, 0
0, 0
0, 0
0, 0
0, 0
0, 0
0, 0
0, 0
0, 0
0, 0
0, 0
0, 0
0, 0
0, 0
0, 0
0, 0
0, 0
0, 0
0, 0
0, 0
0, 0
0, 0
0, 0
0, 0
0, 0
0, 0
0, 0
0, 0
0, 0
0, 0
0, 0
0, 0
0, 0
0, 0
0, 0
0, 0
0, 0
0, 0
0, 0
0, 0
0, 0
0, 0
#ENDOFDATA     end of spectrum data