Folder: data-repository/host_upload/06-09-2024/ps_0852/dump3 (part 15)

File: ps__0852shot_2128.msa
#FORMAT      : EMSA/MAS spectral data file
#VERSION     : TC202v2.0 PIXL
#TITLE       : N/A
#DATE        :       Date in the format DD-MMM-YYYY, for example 07-JUL-2010
#TIME        :             The time of day at which the spectrum was recorded, in 24-hour format
#OWNER       : PIXL Flight Model       (PIXL will use this to indicate which instrument took the data.)
#NPOINTS     : 4096     Number of data points in the spectrum (This can be zero for configuration only files)
#NCOLUMNS    : 2     Number of data columns in the spectrum (This can be zero for configuration only files)
#XUNITS      : eV
#YUNITS      : COUNTS
#DATATYPE    : YY
#XPERCHAN    : 7.862, 7.881   eV per channel (separate by commas if more than one detector)
#OFFSET      : 18.5, -22.4         eV of first channel  (separate by commas if more than one detector
#SIGNALTYPE  : XRF
#YP_TEMP     : 2.267
#LIVETIME    : 8.56734, 8.54912   seconds (separate by commas if more than one detector)
#REALTIME    : 10, 10.0   seconds (separate by commas if more than one detector)
#SPECTRUM    : start of spectrum data
0, 0
0, 0
0, 0
0, 0
0, 0
0, 0
0, 0
0, 0
0, 1
2, 0
4, 1
43, 40
51, 55
6, 8
4, 11
99, 93
440, 434
124, 104
9, 0
4, 0
4, 5
4, 6
7, 4
9, 16
34, 32
37, 38
44, 8
20, 9
8, 3
5, 4
3, 3
4, 3
7, 11
69, 73
101, 73
23, 16
12, 15
21, 14
5, 5
1, 1
6, 4
14, 10
16, 11
11, 7
8, 7
16, 9
14, 26
9, 41
14, 17
21, 21
15, 18
11, 6
15, 10
41, 44
52, 61
41, 24
43, 36
457, 541
2050, 2014
1499, 1253
184, 137
35, 16
30, 27
103, 109
302, 277
190, 170
23, 20
6, 11
14, 7
12, 6
7, 5
1, 9
5, 9
9, 8
3, 6
8, 3
12, 5
16, 8
7, 3
4, 7
3, 3
4, 5
4, 3
1, 8
6, 3
3, 6
2, 4
5, 6
4, 11
2, 5
1, 1
13, 1
17, 1
15, 2
14, 1
7, 4
3, 4
5, 3
3, 3
2, 2
3, 7
1, 7
3, 4
0, 3
1, 3
2, 2
1, 2
1, 3
0, 1
3, 0
3, 1
0, 5
3, 3
0, 4
1, 1
2, 4
3, 1
6, 2
2, 2
3, 1
0, 1
1, 1
3, 1
1, 3
3, 2
0, 4
2, 1
1, 1
2, 1
0, 2
0, 0
0, 3
2, 1
0, 2
0, 0
3, 0
0, 0
0, 3
0, 1
1, 0
0, 1
0, 0
0, 0
0, 0
0, 0
0, 1
0, 0
1, 2
0, 2
1, 0
0, 0
0, 0
1, 0
0, 0
0, 0
0, 1
0, 0
2, 1
1, 0
0, 0
0, 0
1, 0
1, 1
0, 0
0, 0
0, 0
0, 1
1, 0
1, 0
0, 0
1, 0
1, 0
0, 1
0, 0
1, 0
0, 0
0, 0
0, 0
0, 0
0, 0
0, 0
0, 0
0, 0
2, 0
0, 1
1, 0
0, 1
0, 0
0, 0
0, 0
0, 0
0, 0
0, 0
0, 0
0, 0
0, 0
0, 0
0, 0
0, 0
0, 0
0, 0
0, 0
0, 0
0, 0
0, 0
0, 0
0, 0
0, 0
0, 0
0, 0
0, 0
0, 0
0, 0
0, 0
0, 0
0, 0
0, 0
0, 0
0, 0
0, 0
0, 0
0, 0
0, 0
0, 0
0, 0
0, 0
0, 0
0, 0
0, 0
0, 0
0, 0
0, 0
0, 0
0, 0
0, 0
0, 0
0, 0
0, 0
0, 0
0, 0
0, 0
0, 0
0, 0
0, 0
0, 0
0, 0
0, 0
0, 0
0, 0
0, 0
0, 0
0, 0
0, 0
0, 0
0, 0
0, 0
0, 0
0, 0
0, 0
0, 0
0, 0
0, 0
0, 0
0, 0
0, 0
0, 0
0, 0
0, 0
0, 0
0, 0
0, 0
0, 0
0, 0
0, 0
0, 0
0, 0
0, 0
0, 0
0, 0
0, 0
0, 0
0, 0
0, 0
0, 0
0, 0
0, 0
0, 0
0, 0
0, 0
0, 0
0, 0
0, 0
0, 0
0, 0
#ENDOFDATA     end of spectrum data

File: ps__0852shot_2129.msa
#FORMAT      : EMSA/MAS spectral data file
#VERSION     : TC202v2.0 PIXL
#TITLE       : N/A
#DATE        :       Date in the format DD-MMM-YYYY, for example 07-JUL-2010
#TIME        :             The time of day at which the spectrum was recorded, in 24-hour format
#OWNER       : PIXL Flight Model       (PIXL will use this to indicate which instrument took the data.)
#NPOINTS     : 4096     Number of data points in the spectrum (This can be zero for configuration only files)
#NCOLUMNS    : 2     Number of data columns in the spectrum (This can be zero for configuration only files)
#XUNITS      : eV
#YUNITS      : COUNTS
#DATATYPE    : YY
#XPERCHAN    : 7.862, 7.881   eV per channel (separate by commas if more than one detector)
#OFFSET      : 18.5, -22.4         eV of first channel  (separate by commas if more than one detector
#SIGNALTYPE  : XRF
#YP_TEMP     : 2.46
#LIVETIME    : 8.56787, 8.54167   seconds (separate by commas if more than one detector)
#REALTIME    : 10, 10.0   seconds (separate by commas if more than one detector)
#SPECTRUM    : start of spectrum data
0, 0
0, 0
0, 0
0, 0
0, 0
0, 0
0, 0
0, 0
1, 0
0, 0
3, 2
40, 36
56, 61
14, 2
4, 2
96, 124
416, 442
124, 102
8, 3
2, 2
0, 1
6, 8
5, 2
7, 13
42, 47
42, 41
25, 26
9, 9
8, 7
3, 3
2, 2
0, 2
9, 3
29, 21
47, 25
9, 3
12, 7
6, 5
11, 3
5, 3
0, 4
12, 11
15, 22
11, 15
11, 6
10, 16
8, 55
5, 102
7, 34
19, 16
16, 16
16, 10
6, 18
32, 38
51, 58
22, 31
32, 44
487, 602
2063, 2421
1476, 1369
204, 135
25, 19
39, 29
123, 119
257, 338
219, 242
22, 58
3, 13
14, 19
5, 29
3, 12
7, 6
4, 4
7, 4
7, 3
2, 4
12, 2
8, 2
4, 3
5, 0
3, 3
4, 5
5, 3
8, 3
1, 5
3, 6
1, 9
4, 8
6, 6
3, 2
2, 2
1, 2
2, 12
1, 4
3, 7
1, 1
7, 5
1, 2
3, 0
2, 3
1, 0
3, 1
1, 4
3, 4
2, 5
2, 1
1, 1
0, 2
1, 0
1, 2
1, 1
2, 2
1, 1
3, 0
0, 3
1, 6
2, 5
5, 3
0, 0
1, 1
1, 2
0, 2
5, 2
1, 0
0, 2
0, 1
0, 1
0, 0
2, 2
0, 3
1, 1
0, 1
2, 1
0, 2
1, 0
0, 0
0, 0
0, 1
1, 0
0, 0
0, 1
1, 2
1, 2
0, 0
1, 0
1, 1
0, 0
0, 0
1, 0
2, 2
0, 0
1, 0
0, 0
2, 0
0, 0
0, 0
0, 0
1, 0
0, 1
0, 1
0, 0
0, 1
1, 0
0, 0
0, 0
0, 0
0, 0
0, 0
1, 0
0, 0
0, 1
0, 1
0, 0
0, 0
1, 1
0, 0
0, 0
0, 0
0, 0
1, 0
0, 0
0, 0
0, 0
0, 0
0, 0
0, 0
1, 0
0, 0
0, 0
0, 0
0, 0
0, 0
0, 1
0, 0
0, 0
0, 0
0, 0
0, 0
0, 0
0, 0
0, 0
0, 0
0, 0
0, 0
0, 0
0, 0
0, 0
0, 0
0, 0
0, 0
0, 0
0, 0
0, 0
0, 0
0, 0
0, 0
0, 0
0, 0
0, 0
0, 0
0, 0
0, 0
0, 0
0, 0
0, 0
0, 0
0, 0
0, 0
0, 0
0, 0
0, 0
0, 0
0, 0
0, 0
0, 0
0, 0
0, 0
0, 0
0, 0
0, 0
0, 0
0, 0
1, 0
0, 0
0, 0
0, 0
0, 0
0, 0
0, 0
0, 0
0, 0
0, 0
0, 0
0, 0
0, 0
0, 0
0, 0
0, 0
0, 0
0, 0
0, 0
0, 0
0, 0
0, 0
0, 0
0, 0
0, 0
0, 0
0, 0
0, 0
0, 0
0, 0
0, 0
0, 0
0, 0
0, 0
0, 0
0, 0
0, 0
0, 0
0, 0
0, 0
0, 0
0, 0
0, 0
0, 0
0, 0
0, 0
0, 0
0, 0
0, 0
0, 0
0, 0
0, 0
#ENDOFDATA     end of spectrum data

File: ps__0852shot_2130.msa
#FORMAT      : EMSA/MAS spectral data file
#VERSION     : TC202v2.0 PIXL
#TITLE       : N/A
#DATE        :       Date in the format DD-MMM-YYYY, for example 07-JUL-2010
#TIME        :             The time of day at which the spectrum was recorded, in 24-hour format
#OWNER       : PIXL Flight Model       (PIXL will use this to indicate which instrument took the data.)
#NPOINTS     : 4096     Number of data points in the spectrum (This can be zero for configuration only files)
#NCOLUMNS    : 2     Number of data columns in the spectrum (This can be zero for configuration only files)
#XUNITS      : eV
#YUNITS      : COUNTS
#DATATYPE    : YY
#XPERCHAN    : 7.862, 7.881   eV per channel (separate by commas if more than one detector)
#OFFSET      : 18.5, -22.4         eV of first channel  (separate by commas if more than one detector
#SIGNALTYPE  : XRF
#YP_TEMP     : 2.524
#LIVETIME    : 8.55953, 8.36774   seconds (separate by commas if more than one detector)
#REALTIME    : 10, 10.0   seconds (separate by commas if more than one detector)
#SPECTRUM    : start of spectrum data
0, 0
0, 0
0, 0
0, 0
0, 0
0, 0
0, 0
0, 0
1, 1
1, 1
3, 1
45, 35
50, 63
7, 5
3, 2
102, 98
421, 402
110, 114
11, 5
5, 1
3, 5
21, 14
12, 5
9, 7
44, 39
33, 39
24, 18
9, 14
2, 5
4, 0
1, 2
5, 2
15, 7
83, 68
129, 112
18, 17
12, 18
20, 16
18, 4
15, 5
4, 3
11, 5
15, 9
14, 7
20, 8
16, 13
3, 66
7, 106
3, 31
18, 21
15, 26
11, 6
7, 7
43, 43
54, 73
23, 31
27, 74
471, 551
1936, 2114
1494, 1298
185, 131
43, 14
37, 25
142, 135
338, 340
225, 262
30, 45
6, 17
12, 40
7, 17
3, 18
2, 2
6, 6
7, 5
4, 5
2, 7
11, 7
5, 2
5, 5
6, 3
5, 5
5, 6
3, 3
1, 5
2, 4
4, 3
3, 4
0, 2
5, 6
2, 6
2, 4
4, 7
3, 7
2, 4
0, 4
3, 2
4, 3
4, 4
2, 2
2, 2
3, 2
4, 4
4, 3
1, 1
2, 0
2, 3
3, 5
3, 0
4, 2
2, 2
1, 2
2, 2
4, 1
5, 1
2, 2
3, 2
6, 9
5, 1
1, 2
1, 1
3, 1
2, 3
3, 2
1, 1
1, 1
2, 3
0, 1
1, 1
0, 2
0, 2
0, 4
2, 0
1, 1
0, 0
0, 0
0, 5
0, 0
0, 0
2, 1
0, 0
1, 0
1, 1
2, 0
2, 0
0, 2
3, 0
0, 1
0, 0
0, 2
0, 1
0, 0
1, 0
0, 0
0, 2
1, 0
1, 0
0, 1
0, 1
1, 0
0, 0
0, 1
0, 0
0, 0
1, 0
1, 0
0, 1
0, 0
0, 0
0, 0
0, 3
0, 2
0, 1
0, 1
0, 0
0, 0
0, 1
0, 2
0, 0
0, 0
0, 0
0, 0
0, 0
0, 0
0, 0
0, 0
0, 0
0, 0
0, 0
0, 0
0, 0
0, 0
0, 0
1, 0
0, 0
0, 0
0, 0
0, 1
0, 0
0, 0
0, 0
0, 0
0, 0
0, 0
0, 0
0, 0
0, 0
0, 0
0, 0
0, 0
0, 0
0, 0
0, 0
0, 0
0, 0
0, 0
0, 0
0, 0
0, 0
0, 0
0, 0
0, 0
0, 0
0, 0
0, 0
0, 0
0, 0
0, 0
0, 0
0, 0
0, 0
0, 0
0, 0
0, 0
0, 0
0, 0
0, 0
0, 0
0, 0
0, 0
0, 0
0, 0
0, 0
0, 0
0, 0
0, 0
0, 0
0, 0
0, 0
0, 0
0, 0
0, 0
0, 0
0, 0
0, 0
0, 0
0, 0
0, 0
0, 0
0, 0
0, 0
0, 0
0, 0
0, 0
0, 0
0, 0
0, 0
0, 0
0, 0
0, 0
0, 0
0, 0
0, 0
0, 0
0, 0
0, 0
0, 0
0, 0
0, 0
0, 0
0, 0
0, 0
0, 0
0, 0
0, 0
0, 0
0, 0
0, 0
0, 0
0, 0
0, 0
0, 0
0, 0
0, 0
0, 0
#ENDOFDATA     end of spectrum data

File: ps__0852shot_2131.msa
#FORMAT      : EMSA/MAS spectral data file
#VERSION     : TC202v2.0 PIXL
#TITLE       : N/A
#DATE        :       Date in the format DD-MMM-YYYY, for example 07-JUL-2010
#TIME        :             The time of day at which the spectrum was recorded, in 24-hour format
#OWNER       : PIXL Flight Model       (PIXL will use this to indicate which instrument took the data.)
#NPOINTS     : 4096     Number of data points in the spectrum (This can be zero for configuration only files)
#NCOLUMNS    : 2     Number of data columns in the spectrum (This can be zero for configuration only files)
#XUNITS      : eV
#YUNITS      : COUNTS
#DATATYPE    : YY
#XPERCHAN    : 7.862, 7.881   eV per channel (separate by commas if more than one detector)
#OFFSET      : 18.5, -22.4         eV of first channel  (separate by commas if more than one detector
#SIGNALTYPE  : XRF
#YP_TEMP     : 2.492
#LIVETIME    : 8.58747, 8.56171   seconds (separate by commas if more than one detector)
#REALTIME    : 10, 10.0   seconds (separate by commas if more than one detector)
#SPECTRUM    : start of spectrum data
0, 0
0, 0
0, 0
0, 0
0, 0
0, 0
0, 0
0, 0
0, 2
1, 1
3, 3
44, 38
45, 44
4, 5
4, 4
101, 97
437, 374
121, 87
12, 8
2, 2
7, 9
33, 35
19, 21
10, 9
50, 49
60, 51
27, 21
14, 12
4, 5
5, 1
4, 1
11, 2
24, 6
76, 66
116, 113
20, 15
10, 13
16, 12
9, 11
6, 17
7, 8
10, 10
11, 11
20, 10
28, 4
9, 12
4, 15
8, 13
8, 15
27, 20
12, 12
4, 9
8, 10
28, 60
58, 77
21, 107
27, 85
470, 570
2051, 2083
1506, 1254
221, 126
18, 26
64, 37
229, 99
440, 306
244, 186
36, 20
5, 11
9, 16
7, 16
7, 1
5, 3
7, 2
8, 5
6, 4
7, 3
6, 7
2, 3
6, 6
7, 3
6, 1
6, 7
2, 3
2, 0
2, 4
11, 3
7, 2
8, 10
6, 1
3, 5
2, 11
4, 8
2, 3
3, 7
9, 4
7, 4
6, 0
1, 1
1, 3
1, 1
3, 1
0, 3
0, 4
5, 2
6, 6
7, 1
2, 3
4, 2
2, 3
3, 1
4, 1
1, 3
3, 3
4, 3
6, 3
6, 3
4, 6
4, 5
1, 5
2, 1
1, 2
0, 4
2, 1
3, 1
2, 1
1, 0
0, 2
1, 0
1, 2
1, 0
0, 0
0, 0
1, 1
0, 0
0, 1
0, 2
1, 0
2, 1
0, 3
0, 1
1, 0
0, 0
0, 0
1, 0
0, 0
1, 1
2, 1
0, 0
0, 0
0, 0
0, 0
0, 0
0, 0
0, 0
0, 0
0, 0
0, 0
0, 0
1, 0
0, 0
0, 1
0, 0
1, 0
0, 0
1, 1
0, 0
0, 0
1, 0
0, 0
2, 0
1, 0
0, 0
0, 0
0, 0
0, 2
0, 0
1, 0
0, 0
0, 1
1, 1
0, 0
1, 1
0, 0
0, 0
0, 1
0, 0
0, 0
0, 0
0, 0
0, 0
0, 0
0, 0
0, 0
0, 0
1, 0
0, 0
0, 0
0, 0
0, 0
0, 0
0, 0
0, 0
0, 0
0, 0
0, 0
0, 0
0, 0
1, 0
0, 0
0, 0
0, 0
0, 0
0, 0
0, 0
0, 0
0, 0
0, 0
0, 0
0, 0
0, 0
0, 0
0, 0
0, 0
0, 0
0, 0
0, 0
0, 0
0, 0
0, 0
0, 0
0, 0
0, 0
0, 0
0, 0
0, 0
0, 0
0, 0
0, 0
0, 0
0, 0
0, 0
0, 0
0, 0
0, 0
0, 0
0, 0
0, 0
0, 0
0, 0
0, 0
0, 0
0, 0
0, 0
0, 0
0, 0
0, 0
0, 0
0, 0
0, 0
0, 0
0, 0
0, 0
0, 0
0, 0
0, 0
0, 0
0, 0
0, 0
0, 0
0, 0
0, 0
0, 0
0, 0
0, 0
0, 0
0, 0
0, 0
0, 0
0, 0
0, 0
0, 0
0, 0
0, 0
0, 0
0, 0
0, 0
0, 0
0, 0
0, 0
0, 0
0, 0
0, 0
0, 0
0, 0
#ENDOFDATA     end of spectrum data

File: ps__0852shot_2132.msa
#FORMAT      : EMSA/MAS spectral data file
#VERSION     : TC202v2.0 PIXL
#TITLE       : N/A
#DATE        :       Date in the format DD-MMM-YYYY, for example 07-JUL-2010
#TIME        :             The time of day at which the spectrum was recorded, in 24-hour format
#OWNER       : PIXL Flight Model       (PIXL will use this to indicate which instrument took the data.)
#NPOINTS     : 4096     Number of data points in the spectrum (This can be zero for configuration only files)
#NCOLUMNS    : 2     Number of data columns in the spectrum (This can be zero for configuration only files)
#XUNITS      : eV
#YUNITS      : COUNTS
#DATATYPE    : YY
#XPERCHAN    : 7.862, 7.881   eV per channel (separate by commas if more than one detector)
#OFFSET      : 18.5, -22.4         eV of first channel  (separate by commas if more than one detector
#SIGNALTYPE  : XRF
#YP_TEMP     : 2.3
#LIVETIME    : 8.5695, 8.58503   seconds (separate by commas if more than one detector)
#REALTIME    : 10, 10.0   seconds (separate by commas if more than one detector)
#SPECTRUM    : start of spectrum data
0, 0
0, 0
0, 0
0, 0
0, 0
0, 0
0, 0
0, 0
6, 2
9, 2
2, 3
42, 40
55, 43
7, 6
2, 6
92, 96
431, 420
100, 92
5, 7
5, 3
5, 2
17, 26
10, 7
27, 23
343, 53
502, 76
60, 47
16, 11
4, 4
1, 0
3, 3
10, 2
10, 0
17, 6
21, 25
4, 12
11, 39
8, 46
4, 20
5, 10
2, 10
8, 11
9, 10
14, 17
18, 6
6, 7
9, 7
7, 12
6, 23
13, 24
12, 6
8, 6
4, 7
50, 45
47, 70
29, 74
29, 81
457, 614
2070, 2357
1621, 1405
173, 171
21, 53
48, 32
178, 124
377, 341
237, 212
25, 24
7, 10
15, 14
11, 7
0, 6
8, 9
8, 8
8, 2
1, 6
4, 6
6, 3
1, 4
2, 2
3, 5
3, 1
8, 4
4, 2
3, 2
2, 4
6, 5
5, 2
2, 2
8, 4
4, 2
1, 8
3, 8
6, 1
2, 0
3, 4
5, 6
2, 3
6, 4
2, 4
3, 3
2, 1
0, 1
1, 0
1, 2
3, 1
2, 0
3, 2
0, 0
2, 1
2, 2
2, 3
1, 1
0, 6
3, 1
0, 3
0, 4
10, 4
3, 3
0, 3
0, 1
1, 1
1, 3
3, 5
0, 1
2, 0
3, 2
0, 1
1, 1
1, 0
0, 0
1, 0
1, 0
0, 2
0, 0
2, 1
1, 1
1, 0
2, 0
1, 1
0, 1
1, 1
0, 0
0, 1
0, 0
0, 0
1, 1
1, 0
0, 1
2, 1
1, 0
0, 0
0, 1
0, 0
0, 0
0, 0
0, 2
0, 0
1, 1
0, 1
0, 0
0, 0
0, 0
1, 0
0, 0
0, 0
1, 0
0, 0
1, 0
0, 0
0, 0
0, 0
0, 0
0, 0
1, 0
0, 0
0, 1
0, 0
0, 1
0, 0
0, 0
0, 0
0, 1
0, 0
0, 0
0, 0
0, 1
0, 1
0, 0
0, 0
0, 0
0, 0
0, 0
0, 0
0, 0
0, 0
0, 0
0, 0
0, 0
0, 0
0, 0
0, 0
0, 0
0, 0
0, 0
0, 0
0, 0
0, 0
0, 0
0, 0
0, 0
0, 0
0, 0
0, 1
0, 0
0, 0
0, 0
0, 0
0, 0
0, 0
0, 0
0, 0
0, 0
0, 0
0, 0
0, 0
0, 0
0, 0
0, 0
0, 0
0, 0
0, 1
0, 0
0, 0
0, 0
0, 0
0, 0
0, 0
0, 0
0, 0
0, 0
0, 0
0, 0
0, 0
0, 0
0, 0
0, 0
0, 0
0, 0
0, 0
0, 0
0, 0
0, 0
0, 0
0, 0
0, 0
0, 0
0, 0
0, 0
0, 0
0, 0
0, 0
0, 0
0, 0
0, 0
0, 0
0, 0
0, 0
0, 0
0, 0
0, 0
0, 0
0, 0
0, 0
0, 0
0, 0
0, 0
0, 0
0, 0
0, 0
0, 0
0, 0
0, 0
0, 0
0, 0
0, 0
0, 0
0, 0
0, 0
0, 0
0, 0
0, 0
0, 0
0, 0
0, 0
#ENDOFDATA     end of spectrum data

File: ps__0852shot_2133.msa
#FORMAT      : EMSA/MAS spectral data file
#VERSION     : TC202v2.0 PIXL
#TITLE       : N/A
#DATE        :       Date in the format DD-MMM-YYYY, for example 07-JUL-2010
#TIME        :             The time of day at which the spectrum was recorded, in 24-hour format
#OWNER       : PIXL Flight Model       (PIXL will use this to indicate which instrument took the data.)
#NPOINTS     : 4096     Number of data points in the spectrum (This can be zero for configuration only files)
#NCOLUMNS    : 2     Number of data columns in the spectrum (This can be zero for configuration only files)
#XUNITS      : eV
#YUNITS      : COUNTS
#DATATYPE    : YY
#XPERCHAN    : 7.862, 7.881   eV per channel (separate by commas if more than one detector)
#OFFSET      : 18.5, -22.4         eV of first channel  (separate by commas if more than one detector
#SIGNALTYPE  : XRF
#YP_TEMP     : 2.3
#LIVETIME    : 8.59085, 8.54845   seconds (separate by commas if more than one detector)
#REALTIME    : 10, 10.0   seconds (separate by commas if more than one detector)
#SPECTRUM    : start of spectrum data
0, 0
0, 0
0, 0
0, 0
0, 0
0, 0
0, 0
0, 0
2, 1
8, 2
6, 3
46, 40
73, 55
9, 5
1, 5
99, 97
428, 404
113, 116
8, 7
2, 5
3, 4
6, 9
1, 2
38, 16
586, 47
785, 62
114, 34
22, 11
3, 2
3, 1
3, 3
1, 0
7, 6
14, 10
22, 17
2, 3
17, 55
6, 72
2, 8
10, 6
9, 5
7, 10
14, 7
8, 14
4, 4
4, 6
3, 5
5, 9
12, 25
19, 15
10, 6
8, 8
12, 7
33, 44
48, 66
12, 12
32, 39
473, 559
2215, 2204
1597, 1346
236, 146
42, 33
31, 38
96, 134
339, 380
215, 214
33, 20
2, 5
11, 10
12, 9
4, 3
3, 4
4, 7
10, 10
4, 4
6, 11
6, 4
2, 2
4, 4
6, 6
5, 4
5, 3
6, 2
4, 3
1, 5
3, 1
5, 2
0, 2
4, 2
1, 2
2, 4
3, 2
2, 1
3, 3
2, 4
7, 0
4, 6
4, 2
2, 6
6, 2
3, 3
3, 2
1, 0
1, 1
0, 1
2, 2
1, 1
2, 5
4, 2
0, 5
4, 7
0, 3
1, 0
0, 3
1, 2
4, 3
8, 5
6, 6
1, 0
4, 1
2, 0
1, 5
2, 3
2, 3
2, 0
1, 0
0, 0
1, 1
2, 1
0, 3
1, 1
0, 0
1, 2
1, 2
0, 2
1, 1
1, 0
1, 0
0, 1
0, 0
0, 0
0, 1
3, 0
1, 2
2, 2
1, 1
2, 0
0, 2
0, 1
1, 0
0, 1
0, 0
1, 2
0, 0
0, 0
1, 0
0, 0
0, 1
0, 1
1, 1
1, 0
0, 0
0, 0
0, 0
0, 1
0, 1
0, 2
0, 0
1, 1
0, 0
0, 0
1, 1
0, 0
0, 0
0, 0
0, 0
0, 1
0, 1
0, 1
0, 0
0, 0
0, 0
0, 0
0, 1
0, 0
0, 0
0, 0
0, 0
0, 0
0, 0
1, 0
0, 0
0, 0
0, 0
0, 0
0, 0
0, 0
0, 0
0, 0
0, 0
0, 0
0, 0
0, 0
0, 0
0, 0
0, 0
0, 0
0, 0
0, 0
0, 0
0, 0
0, 0
0, 0
0, 0
0, 0
0, 0
0, 0
0, 0
0, 0
0, 0
0, 0
0, 0
0, 0
0, 0
0, 0
0, 0
0, 0
0, 0
0, 0
0, 0
0, 0
0, 0
0, 0
0, 0
0, 0
0, 0
0, 0
0, 0
0, 0
0, 0
0, 0
0, 0
0, 0
0, 0
0, 0
0, 0
0, 0
0, 0
0, 0
0, 0
0, 0
0, 0
0, 0
0, 0
0, 0
0, 0
0, 0
0, 0
0, 0
0, 0
0, 0
0, 0
0, 0
0, 0
0, 0
0, 0
0, 0
0, 0
0, 0
0, 0
0, 0
0, 0
0, 0
0, 0
0, 0
0, 0
0, 0
0, 0
0, 0
0, 0
0, 0
0, 0
0, 0
0, 0
0, 0
0, 0
0, 0
0, 0
0, 0
0, 0
0, 0
0, 0
0, 0
0, 0
#ENDOFDATA     end of spectrum data

File: ps__0852shot_2134.msa
#FORMAT      : EMSA/MAS spectral data file
#VERSION     : TC202v2.0 PIXL
#TITLE       : N/A
#DATE        :       Date in the format DD-MMM-YYYY, for example 07-JUL-2010
#TIME        :             The time of day at which the spectrum was recorded, in 24-hour format
#OWNER       : PIXL Flight Model       (PIXL will use this to indicate which instrument took the data.)
#NPOINTS     : 4096     Number of data points in the spectrum (This can be zero for configuration only files)
#NCOLUMNS    : 2     Number of data columns in the spectrum (This can be zero for configuration only files)
#XUNITS      : eV
#YUNITS      : COUNTS
#DATATYPE    : YY
#XPERCHAN    : 7.862, 7.881   eV per channel (separate by commas if more than one detector)
#OFFSET      : 18.5, -22.4         eV of first channel  (separate by commas if more than one detector
#SIGNALTYPE  : XRF
#YP_TEMP     : 2.588
#LIVETIME    : 8.55951, 8.55712   seconds (separate by commas if more than one detector)
#REALTIME    : 10, 10.0   seconds (separate by commas if more than one detector)
#SPECTRUM    : start of spectrum data
0, 0
0, 0
0, 0
0, 0
0, 0
0, 0
0, 0
1, 0
0, 0
1, 1
4, 2
41, 34
80, 48
4, 4
7, 7
85, 84
431, 405
113, 95
7, 6
2, 3
2, 2
1, 9
5, 2
11, 10
126, 36
209, 50
81, 14
83, 21
9, 7
1, 1
1, 2
3, 5
2, 24
9, 39
19, 25
7, 9
9, 10
4, 26
2, 4
10, 10
4, 3
15, 18
22, 17
25, 25
5, 21
7, 7
7, 5
2, 8
11, 15
22, 15
18, 18
12, 6
23, 13
62, 55
70, 61
30, 47
26, 34
478, 629
2057, 2276
1608, 1308
209, 135
27, 12
30, 24
102, 135
310, 350
220, 219
50, 24
9, 7
14, 9
8, 6
4, 3
3, 6
6, 6
6, 4
5, 7
3, 5
6, 6
7, 6
4, 6
5, 4
2, 5
3, 4
4, 3
3, 4
9, 4
4, 1
4, 5
4, 3
3, 10
4, 2
7, 6
6, 5
6, 6
8, 4
3, 4
3, 3
4, 1
2, 5
1, 1
2, 6
2, 3
1, 4
2, 2
2, 0
3, 1
1, 2
2, 0
4, 3
1, 1
2, 3
1, 2
3, 2
1, 0
1, 1
1, 0
1, 1
2, 2
1, 1
4, 1
1, 3
0, 2
2, 1
3, 1
0, 0
2, 2
4, 2
3, 1
1, 2
0, 2
1, 0
1, 3
1, 1
1, 1
1, 2
0, 1
0, 1
0, 2
1, 0
0, 1
0, 0
0, 0
2, 0
3, 1
1, 1
1, 1
1, 2
0, 1
0, 0
0, 0
1, 0
0, 0
1, 1
0, 0
0, 1
0, 0
1, 0
1, 0
1, 0
0, 1
0, 0
0, 1
0, 1
0, 0
0, 1
1, 0
0, 1
0, 0
0, 1
0, 0
0, 0
0, 0
0, 0
0, 0
0, 0
1, 0
0, 0
0, 0
0, 0
0, 0
0, 0
1, 0
0, 0
0, 0
0, 0
0, 0
1, 0
0, 0
0, 0
0, 0
0, 0
0, 0
0, 0
0, 0
0, 0
0, 0
0, 1
0, 0
0, 0
0, 0
0, 0
0, 0
0, 0
0, 0
0, 0
0, 0
0, 0
0, 0
0, 0
0, 0
0, 0
0, 0
0, 0
0, 1
0, 0
0, 0
0, 0
0, 0
0, 0
0, 0
0, 0
0, 0
0, 0
0, 0
0, 0
0, 0
0, 0
0, 0
0, 0
0, 0
0, 0
0, 0
0, 0
0, 0
0, 0
0, 0
0, 0
0, 0
0, 0
0, 0
0, 0
0, 0
0, 0
0, 0
0, 0
0, 0
0, 0
0, 0
0, 0
0, 0
0, 0
0, 0
0, 0
0, 0
0, 0
0, 0
0, 0
0, 0
0, 0
0, 0
0, 0
0, 0
0, 0
0, 0
0, 0
0, 0
0, 0
0, 0
0, 0
0, 0
0, 0
0, 0
0, 0
0, 0
0, 0
0, 0
0, 0
0, 0
0, 0
0, 0
0, 0
0, 0
0, 0
0, 0
0, 0
0, 0
0, 0
0, 0
0, 0
0, 0
0, 0
0, 0
0, 0
0, 0
0, 0
#ENDOFDATA     end of spectrum data

File: ps__0852shot_2135.msa
#FORMAT      : EMSA/MAS spectral data file
#VERSION     : TC202v2.0 PIXL
#TITLE       : N/A
#DATE        :       Date in the format DD-MMM-YYYY, for example 07-JUL-2010
#TIME        :             The time of day at which the spectrum was recorded, in 24-hour format
#OWNER       : PIXL Flight Model       (PIXL will use this to indicate which instrument took the data.)
#NPOINTS     : 4096     Number of data points in the spectrum (This can be zero for configuration only files)
#NCOLUMNS    : 2     Number of data columns in the spectrum (This can be zero for configuration only files)
#XUNITS      : eV
#YUNITS      : COUNTS
#DATATYPE    : YY
#XPERCHAN    : 7.862, 7.881   eV per channel (separate by commas if more than one detector)
#OFFSET      : 18.5, -22.4         eV of first channel  (separate by commas if more than one detector
#SIGNALTYPE  : XRF
#YP_TEMP     : 2.396
#LIVETIME    : 8.5665, 8.55171   seconds (separate by commas if more than one detector)
#REALTIME    : 10, 10.0   seconds (separate by commas if more than one detector)
#SPECTRUM    : start of spectrum data
0, 0
0, 0
0, 0
0, 0
0, 0
0, 0
0, 0
0, 1
0, 0
0, 1
2, 3
53, 42
74, 46
8, 1
2, 3
111, 83
438, 383
126, 72
7, 4
2, 1
2, 0
4, 1
4, 4
11, 6
52, 36
66, 54
53, 22
48, 9
9, 6
3, 3
1, 1
3, 4
7, 9
12, 18
16, 16
5, 7
8, 9
9, 7
12, 4
7, 7
12, 7
26, 13
36, 22
19, 42
12, 23
6, 5
7, 11
8, 6
6, 18
14, 18
10, 16
12, 13
23, 17
71, 49
80, 62
27, 41
39, 35
490, 581
2280, 2209
1647, 1338
231, 146
31, 20
25, 19
100, 131
312, 368
207, 200
36, 24
16, 12
22, 14
13, 7
7, 6
7, 2
2, 3
5, 5
3, 9
9, 4
5, 10
6, 2
7, 7
4, 9
2, 4
5, 6
1, 6
5, 4
8, 4
4, 1
4, 3
8, 5
6, 3
3, 3
5, 2
6, 5
5, 4
2, 1
1, 0
4, 1
4, 3
2, 5
4, 3
5, 3
3, 1
3, 2
0, 3
2, 3
1, 4
4, 3
3, 4
3, 3
0, 5
4, 1
1, 1
3, 3
2, 1
1, 1
1, 3
5, 5
3, 3
6, 2
2, 2
4, 2
0, 1
1, 0
3, 1
4, 2
0, 1
0, 3
1, 4
2, 1
2, 2
1, 4
1, 0
2, 1
3, 2
0, 1
1, 2
0, 2
0, 1
0, 2
1, 0
2, 1
0, 0
0, 0
0, 0
1, 2
1, 0
0, 0
1, 1
0, 0
1, 0
2, 0
0, 0
1, 0
0, 0
0, 0
0, 0
0, 0
0, 1
1, 0
0, 0
1, 1
0, 0
0, 0
0, 0
1, 1
0, 0
1, 1
0, 1
0, 0
0, 0
0, 0
0, 0
0, 0
1, 0
0, 1
1, 0
0, 0
0, 1
0, 0
0, 0
0, 0
0, 0
0, 0
0, 1
0, 0
0, 0
0, 0
0, 0
0, 1
0, 0
0, 0
0, 0
0, 0
0, 0
0, 0
0, 0
0, 0
0, 0
0, 0
0, 0
0, 0
0, 0
0, 0
0, 1
0, 0
0, 0
0, 0
0, 0
0, 0
0, 0
0, 0
0, 0
0, 0
0, 0
0, 0
0, 0
0, 0
0, 0
0, 0
0, 0
0, 0
0, 0
0, 0
0, 0
0, 0
0, 0
0, 0
0, 0
0, 0
0, 0
0, 0
1, 0
0, 0
0, 0
0, 0
0, 0
0, 0
0, 0
0, 0
0, 0
0, 0
0, 0
0, 0
0, 0
0, 0
0, 0
0, 0
0, 0
0, 0
0, 0
0, 0
0, 0
0, 0
0, 0
0, 0
0, 0
0, 0
0, 0
0, 0
0, 0
0, 0
0, 0
0, 0
0, 0
0, 0
0, 0
0, 0
0, 0
0, 0
0, 0
0, 0
0, 0
0, 0
0, 0
0, 0
0, 0
0, 0
0, 0
0, 0
0, 0
0, 0
0, 0
0, 0
0, 0
0, 0
0, 0
0, 0
0, 0
0, 0
0, 0
0, 0
0, 0
0, 0
0, 0
0, 0
#ENDOFDATA     end of spectrum data

File: ps__0852shot_2136.msa
#FORMAT      : EMSA/MAS spectral data file
#VERSION     : TC202v2.0 PIXL
#TITLE       : N/A
#DATE        :       Date in the format DD-MMM-YYYY, for example 07-JUL-2010
#TIME        :             The time of day at which the spectrum was recorded, in 24-hour format
#OWNER       : PIXL Flight Model       (PIXL will use this to indicate which instrument took the data.)
#NPOINTS     : 4096     Number of data points in the spectrum (This can be zero for configuration only files)
#NCOLUMNS    : 2     Number of data columns in the spectrum (This can be zero for configuration only files)
#XUNITS      : eV
#YUNITS      : COUNTS
#DATATYPE    : YY
#XPERCHAN    : 7.862, 7.881   eV per channel (separate by commas if more than one detector)
#OFFSET      : 18.5, -22.4         eV of first channel  (separate by commas if more than one detector
#SIGNALTYPE  : XRF
#YP_TEMP     : 2.267
#LIVETIME    : 8.60153, 8.54392   seconds (separate by commas if more than one detector)
#REALTIME    : 10, 10.0   seconds (separate by commas if more than one detector)
#SPECTRUM    : start of spectrum data
0, 0
0, 0
0, 0
0, 0
0, 0
0, 0
0, 0
0, 0
1, 1
1, 1
4, 3
49, 43
76, 44
5, 7
3, 7
104, 81
411, 386
105, 108
6, 4
2, 0
0, 2
5, 6
2, 3
11, 6
59, 33
80, 27
73, 9
109, 6
14, 6
2, 4
3, 2
2, 4
2, 9
12, 17
21, 18
7, 5
9, 6
6, 11
9, 7
9, 9
10, 7
25, 8
54, 11
27, 17
14, 18
5, 5
6, 7
1, 7
10, 10
20, 15
14, 11
6, 5
21, 9
91, 69
89, 75
33, 62
34, 52
491, 640
2180, 2214
1650, 1336
189, 136
29, 16
24, 37
100, 129
315, 356
218, 181
36, 34
10, 8
13, 13
11, 6
3, 8
3, 4
4, 5
5, 2
6, 4
6, 7
5, 2
0, 3
4, 3
6, 8
3, 4
1, 2
6, 6
9, 3
8, 7
9, 7
6, 6
5, 6
3, 2
4, 5
4, 5
8, 5
1, 1
2, 1
7, 2
3, 3
2, 2
6, 6
5, 3
5, 3
2, 0
0, 1
5, 4
0, 3
2, 4
5, 2
0, 1
4, 4
1, 2
0, 2
2, 2
5, 3
1, 2
0, 0
2, 1
6, 2
6, 3
2, 3
2, 1
2, 0
5, 3
3, 0
2, 1
2, 3
1, 2
0, 2
2, 3
0, 2
0, 3
0, 0
0, 0
0, 1
0, 2
0, 0
0, 1
1, 0
1, 0
0, 0
1, 1
1, 0
0, 1
0, 1
0, 0
1, 0
0, 1
0, 1
0, 1
1, 0
1, 3
2, 0
1, 2
0, 0
0, 0
1, 0
0, 0
0, 1
0, 2
0, 2
0, 0
0, 0
0, 0
2, 0
0, 1
0, 0
0, 0
1, 0
0, 0
0, 0
2, 0
0, 0
0, 0
0, 0
0, 0
1, 0
0, 0
0, 0
0, 0
0, 1
0, 0
0, 0
0, 0
1, 0
0, 0
0, 0
0, 1
0, 0
0, 0
0, 0
0, 0
0, 0
0, 0
1, 0
0, 1
2, 0
0, 0
0, 0
0, 0
0, 0
0, 0
0, 0
0, 0
0, 0
0, 0
1, 0
0, 0
1, 0
0, 0
0, 0
0, 0
0, 0
0, 0
0, 0
0, 0
0, 0
0, 0
0, 0
0, 0
0, 0
0, 0
0, 0
0, 0
0, 0
0, 0
0, 0
0, 0
0, 0
0, 1
0, 0
0, 0
0, 0
0, 0
0, 0
0, 0
0, 0
0, 0
0, 0
0, 0
0, 0
0, 0
0, 0
0, 0
0, 0
0, 0
0, 0
0, 0
0, 0
0, 0
0, 0
0, 0
0, 0
0, 0
0, 0
0, 0
0, 0
0, 0
0, 0
0, 0
0, 0
0, 0
0, 0
0, 0
0, 0
0, 0
0, 0
0, 0
0, 0
0, 0
0, 0
0, 0
0, 0
0, 0
0, 0
0, 0
0, 0
0, 0
0, 0
0, 0
0, 0
0, 0
0, 0
0, 0
0, 0
0, 0
0, 0
0, 0
0, 0
0, 0
0, 0
0, 0
0, 0
0, 0
0, 0
0, 0
0, 0
#ENDOFDATA     end of spectrum data