Folder: data-repository/host_upload/06-09-2024/ps_0852/dump3 (part 38)

File: ps__0852shot_2337.msa
#FORMAT      : EMSA/MAS spectral data file
#VERSION     : TC202v2.0 PIXL
#TITLE       : N/A
#DATE        :       Date in the format DD-MMM-YYYY, for example 07-JUL-2010
#TIME        :             The time of day at which the spectrum was recorded, in 24-hour format
#OWNER       : PIXL Flight Model       (PIXL will use this to indicate which instrument took the data.)
#NPOINTS     : 4096     Number of data points in the spectrum (This can be zero for configuration only files)
#NCOLUMNS    : 2     Number of data columns in the spectrum (This can be zero for configuration only files)
#XUNITS      : eV
#YUNITS      : COUNTS
#DATATYPE    : YY
#XPERCHAN    : 7.862, 7.881   eV per channel (separate by commas if more than one detector)
#OFFSET      : 18.5, -22.4         eV of first channel  (separate by commas if more than one detector
#SIGNALTYPE  : XRF
#YP_TEMP     : 2.364
#LIVETIME    : 8.5694, 8.54634   seconds (separate by commas if more than one detector)
#REALTIME    : 10, 10.0   seconds (separate by commas if more than one detector)
#SPECTRUM    : start of spectrum data
0, 0
0, 0
0, 0
0, 0
0, 0
0, 0
0, 0
0, 1
0, 2
1, 3
3, 1
37, 36
55, 63
6, 0
7, 3
83, 63
340, 352
71, 82
6, 3
7, 11
73, 67
350, 394
137, 158
44, 40
71, 60
57, 63
26, 36
16, 12
2, 9
5, 5
13, 10
3, 6
7, 3
13, 10
23, 18
4, 1
2, 1
4, 3
9, 13
7, 10
4, 6
9, 23
15, 30
16, 12
8, 19
7, 66
3, 31
8, 12
8, 7
26, 7
16, 14
10, 7
8, 10
36, 52
67, 72
24, 29
25, 38
473, 622
2135, 2359
1655, 1375
253, 119
18, 13
23, 25
108, 103
342, 375
228, 205
27, 28
8, 18
20, 28
17, 10
20, 3
10, 1
7, 3
3, 5
4, 2
6, 17
6, 13
5, 6
3, 7
10, 4
5, 4
4, 3
2, 4
5, 6
5, 6
5, 4
1, 1
1, 1
8, 3
5, 9
3, 13
5, 6
4, 1
4, 6
3, 3
0, 2
4, 2
2, 4
4, 0
6, 2
2, 2
5, 0
3, 2
1, 5
4, 2
3, 3
1, 5
4, 3
1, 0
0, 2
0, 4
0, 2
3, 8
3, 2
4, 3
1, 3
1, 2
9, 1
0, 6
2, 1
0, 0
3, 3
3, 1
3, 3
2, 2
2, 3
1, 0
0, 1
0, 0
1, 0
0, 2
0, 1
1, 0
1, 1
0, 1
0, 0
0, 0
0, 1
2, 1
1, 0
0, 3
0, 0
0, 1
0, 0
1, 1
0, 0
1, 0
0, 1
0, 0
0, 0
1, 1
0, 0
0, 0
0, 0
0, 0
0, 0
1, 0
0, 0
0, 0
0, 0
0, 0
0, 0
2, 0
0, 0
0, 1
0, 1
0, 1
0, 0
1, 0
1, 0
0, 2
0, 0
0, 0
0, 1
0, 0
0, 0
0, 0
0, 0
0, 0
0, 0
0, 1
0, 1
0, 0
0, 0
0, 0
0, 0
0, 0
0, 1
0, 0
0, 0
0, 0
0, 0
0, 0
0, 0
0, 0
0, 0
0, 0
0, 0
0, 0
0, 0
0, 0
0, 0
0, 0
0, 0
0, 0
0, 0
0, 0
0, 0
0, 0
0, 0
0, 0
0, 0
0, 0
0, 0
0, 0
0, 0
0, 0
0, 0
0, 0
0, 0
0, 0
0, 0
0, 0
0, 0
0, 0
0, 0
0, 0
0, 0
0, 0
0, 0
0, 0
0, 0
0, 0
0, 0
0, 0
0, 0
0, 0
0, 0
0, 0
0, 0
0, 0
0, 0
0, 0
0, 0
0, 0
0, 0
0, 0
0, 0
0, 0
0, 0
0, 0
0, 0
0, 0
0, 0
0, 0
0, 0
0, 0
0, 0
0, 0
0, 0
0, 0
0, 0
0, 0
0, 0
0, 0
0, 0
0, 0
0, 0
0, 0
0, 0
0, 0
0, 0
0, 0
0, 0
0, 0
0, 0
0, 0
0, 0
0, 0
0, 0
0, 0
0, 0
0, 0
0, 0
0, 0
0, 0
0, 0
0, 0
0, 0
0, 0
0, 0
0, 0
0, 0
0, 0
#ENDOFDATA     end of spectrum data

File: ps__0852shot_2338.msa
#FORMAT      : EMSA/MAS spectral data file
#VERSION     : TC202v2.0 PIXL
#TITLE       : N/A
#DATE        :       Date in the format DD-MMM-YYYY, for example 07-JUL-2010
#TIME        :             The time of day at which the spectrum was recorded, in 24-hour format
#OWNER       : PIXL Flight Model       (PIXL will use this to indicate which instrument took the data.)
#NPOINTS     : 4096     Number of data points in the spectrum (This can be zero for configuration only files)
#NCOLUMNS    : 2     Number of data columns in the spectrum (This can be zero for configuration only files)
#XUNITS      : eV
#YUNITS      : COUNTS
#DATATYPE    : YY
#XPERCHAN    : 7.862, 7.881   eV per channel (separate by commas if more than one detector)
#OFFSET      : 18.5, -22.4         eV of first channel  (separate by commas if more than one detector
#SIGNALTYPE  : XRF
#YP_TEMP     : 2.332
#LIVETIME    : 8.56763, 8.54565   seconds (separate by commas if more than one detector)
#REALTIME    : 10, 10.0   seconds (separate by commas if more than one detector)
#SPECTRUM    : start of spectrum data
0, 0
0, 0
0, 0
0, 0
0, 0
0, 0
0, 0
0, 0
2, 1
3, 2
3, 3
34, 20
53, 47
5, 10
10, 12
95, 82
374, 349
82, 74
9, 5
5, 6
59, 66
313, 329
129, 141
40, 45
72, 100
57, 54
41, 39
18, 21
8, 3
4, 8
13, 14
3, 8
1, 5
8, 14
17, 16
4, 2
7, 5
4, 6
4, 9
4, 6
13, 18
10, 26
13, 30
8, 10
11, 7
9, 12
8, 12
8, 7
6, 6
9, 7
10, 13
8, 6
12, 16
37, 47
49, 60
20, 22
34, 33
474, 564
2234, 2299
1649, 1337
205, 124
16, 15
19, 32
88, 115
362, 354
214, 188
43, 22
8, 10
11, 10
19, 11
18, 2
23, 6
5, 6
4, 3
5, 10
6, 9
9, 13
1, 8
6, 2
6, 7
4, 3
8, 5
3, 3
5, 16
4, 7
2, 4
2, 3
4, 4
7, 5
0, 1
6, 1
3, 5
3, 0
3, 5
3, 5
4, 5
1, 2
0, 2
4, 5
2, 2
4, 1
2, 2
4, 1
3, 3
2, 2
1, 1
2, 1
2, 1
1, 2
3, 3
2, 2
0, 2
2, 2
2, 0
3, 2
3, 3
2, 3
3, 1
2, 4
0, 0
1, 1
1, 0
2, 1
1, 1
0, 2
0, 0
1, 0
0, 4
2, 0
0, 1
3, 1
0, 2
0, 1
1, 3
2, 3
1, 1
2, 2
2, 1
0, 1
0, 1
1, 0
0, 2
1, 0
2, 0
0, 1
0, 0
0, 2
1, 0
1, 1
0, 0
0, 0
1, 0
1, 0
0, 0
0, 0
1, 0
0, 0
1, 0
0, 0
0, 0
0, 0
0, 0
0, 0
0, 0
1, 0
0, 0
0, 0
0, 2
0, 0
0, 0
0, 1
1, 1
0, 0
0, 0
0, 0
0, 0
0, 0
0, 0
1, 0
1, 0
0, 0
0, 1
0, 0
1, 1
0, 1
0, 0
1, 0
0, 0
0, 1
0, 0
0, 0
0, 0
0, 1
0, 0
0, 0
0, 0
0, 0
0, 0
0, 1
0, 0
0, 0
1, 0
1, 0
0, 0
0, 0
0, 0
0, 0
0, 0
0, 0
0, 0
0, 0
0, 0
0, 0
0, 0
0, 0
0, 0
0, 0
0, 0
0, 0
0, 0
0, 0
0, 0
0, 0
0, 0
0, 0
0, 0
0, 0
0, 0
0, 0
0, 0
0, 0
0, 0
0, 0
0, 0
0, 0
0, 0
0, 0
0, 0
0, 0
0, 0
0, 0
0, 0
0, 0
0, 0
0, 0
0, 0
0, 0
0, 0
0, 0
0, 0
0, 0
0, 0
0, 0
0, 0
0, 0
0, 0
0, 0
0, 0
0, 0
0, 0
0, 0
0, 0
0, 0
0, 0
0, 0
0, 0
0, 0
0, 0
0, 0
0, 0
0, 0
0, 0
0, 0
0, 0
0, 0
0, 0
0, 0
0, 0
0, 0
0, 0
0, 0
0, 0
0, 0
0, 0
0, 0
0, 0
0, 0
0, 0
0, 0
0, 0
0, 0
0, 0
0, 0
0, 0
#ENDOFDATA     end of spectrum data

File: ps__0852shot_2339.msa
#FORMAT      : EMSA/MAS spectral data file
#VERSION     : TC202v2.0 PIXL
#TITLE       : N/A
#DATE        :       Date in the format DD-MMM-YYYY, for example 07-JUL-2010
#TIME        :             The time of day at which the spectrum was recorded, in 24-hour format
#OWNER       : PIXL Flight Model       (PIXL will use this to indicate which instrument took the data.)
#NPOINTS     : 4096     Number of data points in the spectrum (This can be zero for configuration only files)
#NCOLUMNS    : 2     Number of data columns in the spectrum (This can be zero for configuration only files)
#XUNITS      : eV
#YUNITS      : COUNTS
#DATATYPE    : YY
#XPERCHAN    : 7.862, 7.881   eV per channel (separate by commas if more than one detector)
#OFFSET      : 18.5, -22.4         eV of first channel  (separate by commas if more than one detector
#SIGNALTYPE  : XRF
#YP_TEMP     : 2.107
#LIVETIME    : 8.59626, 8.52732   seconds (separate by commas if more than one detector)
#REALTIME    : 10, 10.0   seconds (separate by commas if more than one detector)
#SPECTRUM    : start of spectrum data
0, 0
0, 0
0, 0
0, 0
0, 0
0, 0
0, 0
0, 1
1, 4
0, 4
5, 6
28, 26
28, 48
7, 3
6, 3
65, 44
222, 251
58, 62
5, 4
7, 9
98, 106
535, 663
227, 265
55, 66
92, 112
73, 100
37, 43
24, 23
8, 9
3, 6
13, 6
9, 7
3, 5
21, 11
22, 23
6, 10
6, 8
12, 7
3, 5
5, 5
5, 8
11, 8
13, 16
10, 15
7, 11
5, 19
8, 8
7, 8
7, 7
16, 21
34, 33
20, 16
11, 15
34, 33
67, 74
18, 29
39, 35
424, 662
2030, 2476
1488, 1472
155, 133
16, 20
19, 19
92, 148
341, 387
207, 213
41, 20
13, 18
17, 16
20, 12
19, 5
4, 8
6, 4
10, 8
10, 9
8, 9
3, 6
5, 6
3, 4
12, 6
5, 4
2, 2
8, 9
4, 14
2, 3
3, 8
1, 6
3, 3
4, 7
4, 3
4, 13
2, 4
8, 4
4, 8
5, 1
4, 5
1, 5
2, 1
0, 3
4, 2
5, 1
7, 5
2, 4
1, 3
8, 0
3, 2
3, 1
1, 1
1, 6
1, 1
5, 2
5, 3
0, 2
0, 1
4, 2
1, 3
4, 4
5, 1
0, 2
5, 3
1, 1
0, 0
2, 4
4, 3
0, 0
2, 2
2, 1
1, 2
0, 2
1, 2
0, 1
2, 1
1, 0
3, 0
0, 0
0, 0
0, 0
0, 0
0, 0
0, 1
0, 0
1, 0
0, 1
1, 0
1, 0
0, 1
1, 1
1, 1
0, 1
1, 1
0, 0
0, 0
0, 2
0, 0
1, 0
0, 0
0, 0
0, 0
0, 0
0, 1
0, 0
1, 0
0, 0
0, 0
0, 0
0, 1
0, 0
0, 1
0, 0
0, 0
0, 0
0, 0
0, 0
1, 0
0, 0
0, 0
1, 0
0, 0
1, 0
0, 0
0, 0
0, 0
0, 0
0, 0
0, 0
0, 1
0, 0
0, 0
0, 0
0, 0
0, 0
0, 0
0, 0
0, 0
0, 0
0, 0
0, 0
0, 0
0, 0
0, 0
0, 0
0, 0
0, 0
0, 0
0, 0
0, 0
0, 0
0, 0
0, 0
0, 0
0, 0
0, 0
0, 0
0, 0
0, 0
0, 0
0, 0
0, 0
0, 0
0, 0
0, 0
0, 0
0, 0
0, 0
0, 0
0, 0
0, 0
0, 0
0, 0
0, 0
0, 0
0, 0
0, 0
0, 0
0, 0
0, 0
0, 0
0, 0
0, 0
0, 0
0, 0
0, 0
0, 0
0, 0
0, 0
0, 0
0, 0
0, 0
0, 0
0, 0
0, 0
0, 0
0, 0
0, 0
0, 0
0, 0
0, 0
0, 0
0, 0
0, 0
0, 0
0, 0
0, 0
0, 0
0, 0
0, 0
0, 0
0, 0
0, 0
0, 0
0, 0
0, 0
0, 0
0, 0
0, 0
0, 0
0, 0
0, 0
0, 0
0, 0
0, 0
0, 0
0, 0
0, 0
0, 0
0, 0
0, 0
0, 0
0, 0
0, 0
0, 0
0, 0
0, 0
0, 0
#ENDOFDATA     end of spectrum data

File: ps__0852shot_2340.msa
#FORMAT      : EMSA/MAS spectral data file
#VERSION     : TC202v2.0 PIXL
#TITLE       : N/A
#DATE        :       Date in the format DD-MMM-YYYY, for example 07-JUL-2010
#TIME        :             The time of day at which the spectrum was recorded, in 24-hour format
#OWNER       : PIXL Flight Model       (PIXL will use this to indicate which instrument took the data.)
#NPOINTS     : 4096     Number of data points in the spectrum (This can be zero for configuration only files)
#NCOLUMNS    : 2     Number of data columns in the spectrum (This can be zero for configuration only files)
#XUNITS      : eV
#YUNITS      : COUNTS
#DATATYPE    : YY
#XPERCHAN    : 7.862, 7.881   eV per channel (separate by commas if more than one detector)
#OFFSET      : 18.5, -22.4         eV of first channel  (separate by commas if more than one detector
#SIGNALTYPE  : XRF
#YP_TEMP     : 2.171
#LIVETIME    : 8.60598, 8.53759   seconds (separate by commas if more than one detector)
#REALTIME    : 10, 10.0   seconds (separate by commas if more than one detector)
#SPECTRUM    : start of spectrum data
0, 0
0, 0
0, 0
0, 0
0, 0
0, 0
0, 0
0, 0
3, 1
3, 4
7, 3
40, 30
53, 33
3, 5
7, 5
38, 56
203, 229
55, 64
8, 3
8, 8
111, 127
749, 769
282, 298
74, 73
117, 147
79, 102
40, 36
24, 21
15, 10
8, 3
21, 31
11, 15
12, 5
29, 43
45, 50
13, 10
5, 18
14, 11
12, 6
6, 4
3, 13
8, 11
11, 18
11, 6
8, 10
14, 16
8, 9
11, 8
16, 4
31, 29
42, 43
20, 19
23, 14
48, 39
47, 54
23, 16
37, 37
421, 564
2006, 2260
1512, 1401
174, 117
24, 11
15, 29
95, 126
301, 321
229, 190
22, 20
10, 10
18, 13
40, 13
33, 11
10, 9
6, 6
7, 7
5, 4
5, 8
6, 7
7, 3
8, 5
4, 11
5, 2
12, 2
13, 1
5, 9
0, 6
2, 10
5, 5
2, 2
5, 6
5, 7
6, 11
8, 16
4, 4
6, 2
2, 3
6, 7
2, 1
2, 1
4, 2
6, 6
8, 2
9, 2
2, 2
5, 4
1, 3
1, 0
2, 4
2, 0
2, 2
3, 2
3, 2
5, 3
3, 2
3, 0
2, 2
6, 1
0, 8
7, 2
2, 3
1, 0
1, 2
1, 3
0, 1
2, 2
1, 1
4, 3
2, 2
3, 0
1, 1
1, 5
0, 3
3, 0
0, 1
0, 0
1, 0
1, 0
0, 0
0, 0
1, 0
0, 0
2, 1
3, 1
1, 1
2, 0
2, 0
2, 1
2, 1
1, 0
0, 0
1, 0
0, 3
0, 0
1, 1
1, 0
1, 0
0, 0
1, 0
0, 0
1, 0
0, 0
0, 1
0, 0
0, 2
1, 0
0, 0
1, 0
0, 0
1, 0
0, 0
0, 2
1, 1
0, 0
0, 0
0, 0
0, 0
0, 0
0, 1
0, 1
0, 1
0, 0
0, 0
0, 0
1, 1
0, 0
1, 0
0, 0
0, 1
0, 0
0, 0
0, 0
0, 0
1, 0
1, 0
0, 0
0, 0
0, 0
0, 0
0, 0
0, 0
0, 0
0, 0
1, 0
0, 0
0, 0
0, 0
0, 0
0, 0
0, 0
0, 0
0, 0
0, 0
0, 0
0, 0
0, 0
0, 0
0, 0
0, 0
0, 0
0, 0
0, 0
0, 0
0, 0
0, 0
0, 0
0, 0
0, 0
0, 0
0, 0
0, 0
0, 0
0, 0
0, 0
0, 0
0, 0
0, 0
0, 0
0, 0
0, 0
0, 0
0, 0
0, 0
0, 0
0, 0
0, 0
0, 0
0, 0
0, 0
0, 0
0, 0
0, 0
0, 0
0, 0
0, 0
0, 0
0, 0
0, 0
0, 0
0, 0
0, 0
0, 0
0, 0
0, 0
0, 0
0, 0
0, 0
0, 0
0, 0
0, 0
0, 0
0, 0
0, 0
0, 0
0, 0
0, 0
0, 0
0, 0
0, 0
0, 0
0, 0
0, 0
0, 0
0, 0
0, 0
0, 0
0, 0
0, 0
0, 0
0, 0
0, 0
0, 0
0, 0
0, 0
0, 0
0, 0
#ENDOFDATA     end of spectrum data

File: ps__0852shot_2341.msa
#FORMAT      : EMSA/MAS spectral data file
#VERSION     : TC202v2.0 PIXL
#TITLE       : N/A
#DATE        :       Date in the format DD-MMM-YYYY, for example 07-JUL-2010
#TIME        :             The time of day at which the spectrum was recorded, in 24-hour format
#OWNER       : PIXL Flight Model       (PIXL will use this to indicate which instrument took the data.)
#NPOINTS     : 4096     Number of data points in the spectrum (This can be zero for configuration only files)
#NCOLUMNS    : 2     Number of data columns in the spectrum (This can be zero for configuration only files)
#XUNITS      : eV
#YUNITS      : COUNTS
#DATATYPE    : YY
#XPERCHAN    : 7.862, 7.881   eV per channel (separate by commas if more than one detector)
#OFFSET      : 18.5, -22.4         eV of first channel  (separate by commas if more than one detector
#SIGNALTYPE  : XRF
#YP_TEMP     : 2.203
#LIVETIME    : 8.59626, 8.56147   seconds (separate by commas if more than one detector)
#REALTIME    : 10, 10.0   seconds (separate by commas if more than one detector)
#SPECTRUM    : start of spectrum data
0, 0
0, 0
0, 0
0, 0
0, 0
0, 0
0, 0
0, 0
2, 0
4, 0
3, 2
34, 29
53, 38
8, 3
0, 2
52, 51
261, 230
66, 57
6, 10
3, 7
134, 163
785, 804
280, 298
65, 61
142, 114
78, 63
32, 39
16, 19
6, 8
4, 5
20, 25
11, 10
5, 7
19, 31
23, 27
8, 8
5, 7
10, 8
19, 10
19, 6
3, 8
2, 11
9, 14
13, 17
6, 10
6, 20
5, 18
7, 7
11, 5
16, 26
48, 30
33, 23
13, 25
46, 51
77, 37
18, 20
28, 40
409, 564
1914, 2175
1498, 1288
191, 133
14, 20
24, 14
100, 117
307, 327
225, 203
28, 25
5, 11
18, 12
37, 15
35, 3
10, 3
6, 8
10, 6
3, 4
13, 6
7, 8
4, 2
4, 8
5, 5
9, 3
4, 3
8, 4
4, 3
4, 3
5, 7
1, 3
2, 0
4, 5
6, 10
5, 15
5, 11
2, 2
1, 2
4, 2
4, 7
2, 4
3, 4
3, 2
2, 5
7, 0
6, 3
5, 1
2, 4
0, 5
3, 2
2, 0
1, 3
3, 3
1, 1
3, 3
2, 0
1, 3
4, 1
3, 0
5, 1
4, 6
4, 3
6, 2
0, 1
2, 2
3, 1
4, 2
1, 0
1, 2
1, 3
2, 0
0, 4
1, 4
0, 3
1, 0
1, 1
0, 1
1, 1
3, 0
0, 0
0, 0
1, 0
1, 0
1, 1
0, 0
0, 1
1, 0
1, 1
0, 0
0, 0
2, 0
0, 0
0, 1
2, 0
1, 0
1, 0
0, 0
3, 1
1, 1
0, 1
0, 1
0, 0
0, 1
0, 0
0, 1
2, 0
0, 0
1, 0
0, 0
0, 0
0, 0
0, 0
0, 2
0, 0
0, 0
0, 0
0, 0
0, 0
0, 0
0, 0
0, 0
0, 0
0, 0
0, 0
1, 1
1, 0
0, 0
0, 0
0, 0
1, 0
0, 0
0, 0
0, 0
0, 0
1, 0
0, 0
0, 0
0, 1
0, 0
0, 0
0, 0
0, 0
0, 0
0, 0
0, 0
0, 0
0, 0
0, 0
1, 0
0, 0
0, 0
0, 0
0, 0
0, 0
0, 0
0, 0
0, 0
0, 0
0, 0
0, 0
0, 0
0, 0
0, 0
0, 0
0, 0
0, 0
0, 0
0, 0
0, 0
0, 0
0, 0
0, 0
0, 0
0, 0
0, 0
0, 0
0, 0
0, 0
0, 0
0, 0
0, 0
0, 0
0, 0
0, 0
0, 0
0, 0
0, 0
0, 0
0, 0
0, 0
0, 0
0, 0
0, 0
0, 0
0, 0
0, 0
0, 0
0, 0
0, 0
0, 0
0, 0
0, 0
0, 0
0, 0
0, 0
0, 0
0, 0
0, 0
0, 0
0, 0
0, 0
0, 0
0, 0
0, 0
0, 0
0, 0
0, 0
0, 0
0, 0
0, 0
0, 0
0, 0
0, 0
0, 0
0, 0
0, 0
0, 0
0, 0
0, 0
0, 0
0, 0
0, 0
0, 0
0, 0
0, 0
0, 0
0, 0
0, 0
#ENDOFDATA     end of spectrum data

File: ps__0852shot_2342.msa
#FORMAT      : EMSA/MAS spectral data file
#VERSION     : TC202v2.0 PIXL
#TITLE       : N/A
#DATE        :       Date in the format DD-MMM-YYYY, for example 07-JUL-2010
#TIME        :             The time of day at which the spectrum was recorded, in 24-hour format
#OWNER       : PIXL Flight Model       (PIXL will use this to indicate which instrument took the data.)
#NPOINTS     : 4096     Number of data points in the spectrum (This can be zero for configuration only files)
#NCOLUMNS    : 2     Number of data columns in the spectrum (This can be zero for configuration only files)
#XUNITS      : eV
#YUNITS      : COUNTS
#DATATYPE    : YY
#XPERCHAN    : 7.862, 7.881   eV per channel (separate by commas if more than one detector)
#OFFSET      : 18.5, -22.4         eV of first channel  (separate by commas if more than one detector
#SIGNALTYPE  : XRF
#YP_TEMP     : 2.332
#LIVETIME    : 8.5596, 8.34101   seconds (separate by commas if more than one detector)
#REALTIME    : 10, 10.0   seconds (separate by commas if more than one detector)
#SPECTRUM    : start of spectrum data
0, 0
0, 0
0, 0
0, 0
0, 0
0, 0
0, 0
0, 0
1, 2
0, 1
0, 4
34, 47
64, 63
6, 2
5, 1
64, 85
345, 351
88, 79
4, 7
4, 3
48, 60
295, 310
117, 127
30, 29
79, 62
94, 45
24, 31
16, 15
7, 9
3, 7
6, 8
1, 3
3, 2
22, 24
17, 25
4, 9
4, 3
14, 9
17, 9
11, 4
7, 8
7, 7
10, 7
13, 12
8, 11
4, 9
9, 7
7, 1
11, 10
18, 21
26, 21
14, 18
34, 18
116, 55
122, 65
32, 18
35, 42
473, 578
2105, 2279
1555, 1319
193, 156
14, 15
11, 21
73, 126
330, 370
247, 194
36, 22
7, 12
16, 21
19, 5
22, 6
5, 1
9, 3
9, 9
5, 5
5, 5
3, 3
6, 3
2, 6
5, 9
4, 4
5, 6
5, 3
2, 3
2, 6
8, 9
12, 6
3, 5
6, 6
4, 8
4, 5
4, 5
3, 4
4, 7
7, 5
2, 5
2, 2
3, 4
4, 3
7, 1
5, 2
4, 0
5, 3
1, 4
4, 1
3, 4
4, 5
5, 2
1, 2
1, 3
2, 1
2, 0
1, 2
0, 2
1, 0
2, 1
5, 5
1, 2
3, 3
3, 2
2, 2
1, 3
1, 4
1, 2
1, 1
3, 1
0, 0
1, 1
1, 0
3, 1
0, 1
0, 1
0, 1
1, 1
1, 1
0, 2
1, 1
1, 0
2, 0
0, 3
1, 2
0, 1
0, 1
1, 0
1, 0
0, 1
0, 0
1, 1
1, 0
1, 0
0, 1
0, 0
1, 0
0, 2
2, 0
1, 0
0, 0
0, 0
0, 1
1, 0
1, 0
0, 0
0, 1
0, 0
0, 1
0, 1
0, 0
0, 0
0, 0
1, 2
0, 0
0, 0
1, 0
0, 1
0, 0
0, 0
0, 1
0, 0
0, 0
0, 0
1, 0
0, 0
0, 0
0, 0
0, 0
0, 0
0, 0
0, 0
0, 0
0, 0
0, 0
0, 0
0, 0
0, 0
0, 0
0, 0
0, 0
0, 0
0, 0
0, 0
0, 0
0, 0
0, 0
0, 0
0, 0
0, 0
0, 0
0, 0
0, 0
0, 0
0, 0
0, 0
0, 0
0, 0
0, 0
0, 0
0, 0
0, 0
0, 0
0, 0
0, 0
0, 0
0, 0
0, 0
0, 0
0, 0
0, 0
0, 0
0, 0
0, 0
0, 0
0, 0
0, 0
0, 0
0, 0
0, 0
0, 0
0, 0
0, 0
0, 0
1, 0
0, 0
0, 0
0, 0
0, 0
0, 0
0, 0
0, 0
0, 0
0, 0
0, 0
0, 0
0, 0
0, 0
0, 0
0, 0
0, 0
0, 0
0, 0
0, 0
0, 0
0, 0
0, 0
0, 0
0, 0
0, 0
0, 0
0, 0
0, 0
0, 0
0, 0
0, 0
0, 0
0, 0
0, 0
0, 0
0, 0
0, 0
0, 0
0, 0
0, 0
0, 0
0, 0
0, 0
0, 0
0, 0
0, 0
0, 0
0, 0
0, 0
0, 0
0, 0
0, 0
0, 0
#ENDOFDATA     end of spectrum data

File: ps__0852shot_2343.msa
#FORMAT      : EMSA/MAS spectral data file
#VERSION     : TC202v2.0 PIXL
#TITLE       : N/A
#DATE        :       Date in the format DD-MMM-YYYY, for example 07-JUL-2010
#TIME        :             The time of day at which the spectrum was recorded, in 24-hour format
#OWNER       : PIXL Flight Model       (PIXL will use this to indicate which instrument took the data.)
#NPOINTS     : 4096     Number of data points in the spectrum (This can be zero for configuration only files)
#NCOLUMNS    : 2     Number of data columns in the spectrum (This can be zero for configuration only files)
#XUNITS      : eV
#YUNITS      : COUNTS
#DATATYPE    : YY
#XPERCHAN    : 7.862, 7.881   eV per channel (separate by commas if more than one detector)
#OFFSET      : 18.5, -22.4         eV of first channel  (separate by commas if more than one detector
#SIGNALTYPE  : XRF
#YP_TEMP     : 2.332
#LIVETIME    : 8.56867, 8.56168   seconds (separate by commas if more than one detector)
#REALTIME    : 10, 10.0   seconds (separate by commas if more than one detector)
#SPECTRUM    : start of spectrum data
0, 0
0, 0
0, 0
0, 0
0, 0
0, 0
0, 0
0, 0
1, 0
1, 0
4, 4
38, 48
53, 61
4, 3
0, 4
70, 98
358, 412
83, 95
4, 8
4, 5
25, 42
205, 221
85, 84
17, 19
52, 44
45, 39
31, 17
8, 10
6, 3
1, 3
6, 1
3, 3
2, 4
29, 33
43, 45
9, 5
5, 10
7, 8
9, 5
6, 6
3, 11
9, 12
12, 10
11, 13
5, 3
3, 8
7, 5
2, 10
6, 12
11, 11
8, 8
12, 11
59, 8
147, 55
113, 66
34, 22
26, 37
422, 559
1929, 2483
1451, 1422
172, 129
15, 21
16, 29
91, 106
267, 383
201, 171
40, 31
5, 15
15, 13
19, 8
6, 3
4, 6
4, 4
4, 7
9, 9
4, 9
6, 5
8, 3
6, 2
3, 7
8, 4
1, 5
5, 4
5, 4
6, 2
3, 2
10, 2
5, 1
3, 0
3, 6
5, 0
5, 1
1, 6
3, 7
3, 2
0, 4
5, 1
2, 1
1, 2
3, 1
2, 6
2, 2
4, 3
3, 3
2, 1
6, 5
8, 2
8, 1
7, 2
0, 2
2, 4
2, 1
1, 5
2, 1
4, 0
1, 2
0, 3
4, 3
1, 3
0, 3
1, 2
0, 2
2, 4
1, 4
1, 0
2, 1
3, 1
0, 1
1, 3
1, 2
0, 2
0, 3
0, 0
0, 1
1, 1
0, 0
0, 0
0, 1
1, 0
0, 0
0, 1
1, 2
0, 1
1, 1
0, 0
0, 0
1, 1
0, 0
1, 0
0, 1
0, 0
0, 1
0, 1
0, 0
0, 1
2, 0
0, 1
0, 0
0, 0
0, 0
0, 0
0, 0
0, 0
0, 1
1, 0
0, 0
0, 2
0, 0
0, 1
1, 0
0, 0
0, 0
0, 0
0, 1
1, 0
0, 0
1, 0
0, 0
1, 0
0, 0
0, 0
0, 1
0, 0
1, 0
1, 0
0, 0
0, 0
0, 0
0, 0
0, 0
0, 0
0, 0
0, 0
0, 0
0, 0
1, 0
0, 0
0, 0
0, 0
0, 0
0, 0
0, 0
0, 0
0, 0
0, 0
0, 0
0, 0
0, 0
0, 0
0, 0
0, 0
0, 0
0, 0
0, 0
0, 0
0, 0
0, 0
0, 0
0, 0
0, 0
0, 0
0, 0
0, 0
0, 0
0, 0
0, 0
0, 0
0, 0
0, 0
0, 0
0, 0
0, 0
0, 0
0, 0
0, 0
0, 0
0, 0
0, 0
0, 0
0, 0
0, 0
0, 0
0, 0
0, 0
0, 0
0, 0
0, 0
0, 0
0, 0
0, 0
0, 0
0, 0
0, 0
0, 0
0, 0
0, 0
0, 0
0, 0
0, 0
0, 0
0, 0
0, 0
0, 0
0, 0
0, 0
0, 0
0, 0
0, 0
0, 0
0, 0
0, 0
0, 0
0, 0
0, 0
0, 0
0, 0
0, 0
0, 0
0, 0
0, 0
0, 0
0, 0
0, 0
0, 0
0, 0
0, 0
0, 0
0, 0
0, 0
0, 0
0, 0
0, 0
0, 0
0, 0
#ENDOFDATA     end of spectrum data

File: ps__0852shot_2344.msa
#FORMAT      : EMSA/MAS spectral data file
#VERSION     : TC202v2.0 PIXL
#TITLE       : N/A
#DATE        :       Date in the format DD-MMM-YYYY, for example 07-JUL-2010
#TIME        :             The time of day at which the spectrum was recorded, in 24-hour format
#OWNER       : PIXL Flight Model       (PIXL will use this to indicate which instrument took the data.)
#NPOINTS     : 4096     Number of data points in the spectrum (This can be zero for configuration only files)
#NCOLUMNS    : 2     Number of data columns in the spectrum (This can be zero for configuration only files)
#XUNITS      : eV
#YUNITS      : COUNTS
#DATATYPE    : YY
#XPERCHAN    : 7.862, 7.881   eV per channel (separate by commas if more than one detector)
#OFFSET      : 18.5, -22.4         eV of first channel  (separate by commas if more than one detector
#SIGNALTYPE  : XRF
#YP_TEMP     : 2.3
#LIVETIME    : 8.55981, 8.56502   seconds (separate by commas if more than one detector)
#REALTIME    : 10, 10.0   seconds (separate by commas if more than one detector)
#SPECTRUM    : start of spectrum data
0, 0
0, 0
0, 0
0, 0
0, 0
0, 0
0, 0
0, 0
2, 0
4, 1
0, 4
49, 55
51, 58
12, 5
3, 6
94, 116
486, 465
104, 109
6, 8
1, 1
11, 22
92, 85
45, 36
18, 17
44, 64
42, 32
20, 14
15, 12
2, 0
1, 4
5, 4
5, 3
4, 8
76, 121
160, 161
29, 21
19, 25
27, 27
11, 4
5, 6
5, 5
5, 16
8, 14
8, 7
4, 8
9, 4
6, 4
5, 9
8, 20
25, 21
52, 15
25, 10
25, 13
48, 55
76, 67
26, 19
29, 27
413, 529
1887, 2115
1291, 1268
153, 145
12, 25
11, 22
87, 108
272, 324
216, 189
48, 27
14, 7
10, 10
8, 9
5, 4
4, 5
3, 7
7, 8
6, 9
6, 5
6, 4
10, 2
7, 7
1, 3
4, 0
9, 2
3, 6
1, 3
1, 1
2, 3
2, 4
1, 2
9, 6
16, 1
16, 2
6, 9
4, 3
5, 4
4, 2
2, 4
4, 1
1, 3
1, 3
2, 3
2, 2
5, 3
1, 2
3, 2
3, 3
2, 5
2, 10
3, 7
2, 4
1, 2
2, 1
7, 2
3, 4
4, 1
0, 3
0, 2
2, 3
2, 2
2, 3
3, 1
1, 1
0, 3
0, 1
0, 1
1, 6
0, 1
1, 1
1, 2
0, 0
1, 1
1, 1
2, 0
1, 0
2, 1
1, 1
0, 1
0, 2
3, 1
0, 1
0, 0
0, 1
0, 1
0, 1
1, 1
0, 0
0, 0
1, 0
0, 1
2, 0
1, 0
0, 0
0, 0
0, 0
1, 0
1, 1
0, 0
0, 0
0, 0
0, 1
0, 2
1, 0
0, 0
0, 1
0, 0
1, 0
0, 0
1, 0
0, 0
0, 0
0, 0
0, 0
0, 0
0, 0
0, 1
0, 0
0, 0
0, 0
0, 0
0, 0
0, 0
1, 0
1, 0
0, 2
0, 0
0, 0
1, 0
0, 0
0, 0
0, 0
0, 0
0, 0
0, 0
0, 1
0, 0
0, 0
0, 1
0, 0
0, 0
0, 0
0, 0
0, 0
0, 0
0, 0
0, 0
0, 0
0, 0
0, 0
0, 0
0, 0
0, 0
0, 0
0, 0
0, 0
0, 0
0, 0
0, 0
0, 0
0, 0
0, 0
0, 0
0, 0
0, 0
0, 0
0, 0
0, 0
0, 0
0, 0
0, 0
0, 0
0, 0
0, 0
0, 0
0, 0
0, 0
0, 0
0, 0
0, 0
0, 0
0, 0
0, 0
0, 0
0, 0
0, 0
0, 0
0, 0
0, 0
0, 0
0, 0
0, 0
0, 0
0, 0
0, 0
0, 0
0, 0
0, 0
0, 0
0, 0
0, 0
0, 0
0, 0
0, 0
0, 0
0, 0
0, 0
0, 0
0, 0
0, 0
0, 0
0, 0
0, 0
0, 0
0, 0
0, 0
0, 0
0, 0
0, 0
0, 0
0, 0
0, 0
0, 0
0, 0
0, 0
0, 0
0, 0
0, 0
0, 0
0, 0
0, 0
0, 0
0, 0
0, 0
0, 0
0, 0
0, 0
#ENDOFDATA     end of spectrum data

File: ps__0852shot_2345.msa
#FORMAT      : EMSA/MAS spectral data file
#VERSION     : TC202v2.0 PIXL
#TITLE       : N/A
#DATE        :       Date in the format DD-MMM-YYYY, for example 07-JUL-2010
#TIME        :             The time of day at which the spectrum was recorded, in 24-hour format
#OWNER       : PIXL Flight Model       (PIXL will use this to indicate which instrument took the data.)
#NPOINTS     : 4096     Number of data points in the spectrum (This can be zero for configuration only files)
#NCOLUMNS    : 2     Number of data columns in the spectrum (This can be zero for configuration only files)
#XUNITS      : eV
#YUNITS      : COUNTS
#DATATYPE    : YY
#XPERCHAN    : 7.862, 7.881   eV per channel (separate by commas if more than one detector)
#OFFSET      : 18.5, -22.4         eV of first channel  (separate by commas if more than one detector
#SIGNALTYPE  : XRF
#YP_TEMP     : 2.171
#LIVETIME    : 8.57628, 8.56562   seconds (separate by commas if more than one detector)
#REALTIME    : 10, 10.0   seconds (separate by commas if more than one detector)
#SPECTRUM    : start of spectrum data
0, 0
0, 0
0, 0
0, 0
0, 0
0, 0
0, 0
0, 0
0, 1
1, 1
3, 1
45, 40
58, 54
3, 7
2, 4
106, 107
478, 412
106, 103
5, 4
2, 1
1, 1
11, 7
6, 4
5, 5
26, 28
26, 30
15, 16
9, 7
5, 6
4, 4
1, 2
2, 2
3, 1
27, 24
45, 30
15, 6
7, 7
4, 7
3, 1
1, 0
3, 3
10, 11
10, 11
10, 7
4, 4
4, 8
5, 6
5, 6
8, 10
53, 24
121, 11
47, 5
7, 13
52, 47
88, 53
51, 24
35, 30
496, 577
2106, 2207
1538, 1395
218, 107
23, 18
24, 14
107, 124
299, 331
212, 205
36, 15
6, 8
16, 16
7, 4
5, 2
3, 10
7, 10
10, 5
5, 5
3, 6
10, 4
7, 1
4, 3
4, 5
19, 3
36, 11
10, 9
9, 15
5, 3
4, 2
2, 2
2, 4
1, 3
7, 1
2, 2
2, 3
1, 1
3, 4
4, 1
2, 5
1, 2
2, 0
1, 2
7, 3
8, 5
2, 2
0, 0
1, 2
0, 1
2, 4
2, 0
2, 4
1, 2
1, 1
0, 1
2, 2
2, 6
2, 5
6, 4
6, 4
4, 5
1, 1
1, 1
0, 3
3, 1
0, 4
4, 1
3, 1
1, 0
1, 1
2, 3
3, 0
1, 2
0, 1
1, 1
1, 1
2, 0
3, 0
1, 0
0, 1
0, 0
0, 0
0, 0
0, 0
1, 1
1, 0
0, 0
0, 0
0, 0
0, 1
2, 1
1, 0
0, 0
0, 2
1, 0
0, 0
1, 0
0, 0
1, 0
0, 0
2, 1
0, 0
0, 0
0, 0
0, 0
0, 0
1, 1
0, 3
1, 1
1, 0
0, 1
0, 0
0, 0
0, 0
0, 1
0, 0
0, 0
0, 1
0, 0
0, 1
0, 0
1, 0
0, 0
0, 0
0, 1
0, 0
1, 1
0, 1
1, 0
0, 0
0, 0
1, 0
0, 0
0, 0
0, 0
0, 0
0, 0
0, 0
0, 0
0, 1
0, 0
0, 0
0, 0
0, 0
0, 0
0, 0
0, 0
0, 0
0, 0
0, 0
0, 0
0, 0
0, 0
0, 0
0, 0
0, 0
0, 0
0, 0
0, 0
0, 0
0, 0
0, 0
0, 0
0, 0
0, 0
0, 0
0, 0
0, 0
0, 0
0, 0
0, 0
0, 0
0, 0
0, 0
0, 0
0, 0
0, 0
0, 0
0, 0
0, 0
0, 0
0, 0
0, 0
0, 0
0, 0
0, 0
0, 0
0, 0
0, 0
0, 0
0, 0
0, 0
0, 0
0, 0
0, 0
0, 0
0, 0
0, 0
0, 0
0, 0
0, 0
0, 0
0, 0
0, 0
0, 0
0, 0
0, 0
0, 0
0, 0
0, 0
0, 0
0, 0
0, 0
0, 0
0, 0
0, 0
0, 0
0, 0
0, 0
0, 0
0, 0
0, 0
0, 0
0, 0
0, 0
0, 0
0, 0
0, 0
0, 0
0, 0
0, 0
0, 0
0, 0
0, 0
0, 0
0, 0
0, 0
0, 0
#ENDOFDATA     end of spectrum data