Folder: data-repository/host_upload/06-09-2024/ps_0852/dump3 (part 52)

File: ps__0852shot_2465.msa
#FORMAT      : EMSA/MAS spectral data file
#VERSION     : TC202v2.0 PIXL
#TITLE       : N/A
#DATE        :       Date in the format DD-MMM-YYYY, for example 07-JUL-2010
#TIME        :             The time of day at which the spectrum was recorded, in 24-hour format
#OWNER       : PIXL Flight Model       (PIXL will use this to indicate which instrument took the data.)
#NPOINTS     : 4096     Number of data points in the spectrum (This can be zero for configuration only files)
#NCOLUMNS    : 2     Number of data columns in the spectrum (This can be zero for configuration only files)
#XUNITS      : eV
#YUNITS      : COUNTS
#DATATYPE    : YY
#XPERCHAN    : 7.862, 7.881   eV per channel (separate by commas if more than one detector)
#OFFSET      : 18.5, -22.4         eV of first channel  (separate by commas if more than one detector
#SIGNALTYPE  : XRF
#YP_TEMP     : 1.979
#LIVETIME    : 8.52379, 8.50248   seconds (separate by commas if more than one detector)
#REALTIME    : 10, 10.0   seconds (separate by commas if more than one detector)
#SPECTRUM    : start of spectrum data
0, 0
0, 0
0, 0
0, 0
0, 0
0, 0
0, 0
0, 0
2, 2
5, 2
3, 3
36, 48
63, 54
1, 0
4, 3
82, 57
275, 261
56, 75
10, 5
7, 7
83, 97
553, 628
237, 203
51, 57
67, 104
61, 55
34, 32
19, 17
4, 8
2, 7
12, 10
7, 7
5, 5
33, 42
51, 74
8, 6
8, 16
13, 20
38, 5
19, 5
11, 16
13, 6
13, 13
12, 9
4, 7
6, 12
10, 10
7, 9
14, 12
12, 39
25, 41
23, 26
11, 17
37, 40
52, 32
23, 20
30, 33
442, 571
1958, 2149
1448, 1244
175, 111
17, 15
17, 20
84, 117
294, 307
205, 200
35, 24
7, 6
10, 18
16, 14
15, 14
6, 6
6, 5
6, 5
7, 5
6, 10
9, 6
4, 4
4, 3
4, 6
5, 5
9, 8
4, 2
4, 9
6, 10
1, 5
5, 6
9, 3
5, 3
2, 7
2, 7
8, 7
7, 3
4, 4
3, 1
3, 5
5, 3
1, 4
1, 4
5, 1
3, 2
6, 3
3, 1
1, 0
1, 3
1, 2
2, 0
2, 3
3, 3
2, 1
4, 0
1, 2
1, 2
1, 2
0, 3
3, 6
4, 4
5, 6
0, 0
1, 3
0, 4
2, 1
3, 3
1, 5
3, 1
5, 0
2, 2
2, 1
0, 0
0, 1
1, 2
0, 0
1, 4
1, 1
0, 0
0, 2
0, 1
1, 4
1, 1
2, 0
1, 2
0, 1
0, 0
1, 2
1, 1
0, 1
0, 0
1, 0
0, 0
0, 1
2, 1
1, 0
0, 0
0, 0
0, 1
1, 0
0, 0
0, 0
0, 0
0, 1
1, 0
0, 0
0, 0
0, 0
0, 0
0, 0
1, 0
1, 0
0, 2
0, 1
0, 0
1, 0
1, 0
0, 0
0, 0
1, 0
0, 0
0, 0
1, 0
0, 0
0, 0
0, 0
0, 1
1, 0
0, 0
1, 0
0, 0
0, 0
0, 0
0, 0
0, 1
0, 0
0, 0
0, 0
0, 0
0, 0
0, 0
0, 1
0, 0
0, 0
0, 0
0, 0
0, 0
0, 0
0, 0
0, 0
0, 0
0, 0
0, 0
0, 0
0, 0
0, 0
0, 0
0, 0
0, 0
0, 0
0, 0
0, 0
0, 0
0, 0
0, 0
0, 0
0, 0
0, 0
0, 0
0, 0
0, 0
0, 0
0, 0
0, 0
0, 0
0, 0
0, 0
0, 0
0, 0
0, 0
0, 0
0, 0
0, 0
0, 0
0, 0
0, 0
0, 0
0, 0
0, 0
0, 0
0, 0
0, 0
0, 0
0, 0
0, 0
0, 0
0, 0
0, 0
0, 0
0, 0
0, 0
0, 0
0, 0
0, 0
0, 0
0, 0
0, 0
0, 0
0, 0
0, 0
0, 0
0, 0
0, 0
0, 0
0, 0
0, 0
0, 0
0, 0
0, 0
0, 0
0, 0
0, 0
0, 0
0, 0
0, 0
0, 0
0, 0
0, 0
0, 0
0, 0
0, 0
0, 0
0, 0
0, 0
0, 0
0, 0
0, 0
0, 0
#ENDOFDATA     end of spectrum data

File: ps__0852shot_2466.msa
#FORMAT      : EMSA/MAS spectral data file
#VERSION     : TC202v2.0 PIXL
#TITLE       : N/A
#DATE        :       Date in the format DD-MMM-YYYY, for example 07-JUL-2010
#TIME        :             The time of day at which the spectrum was recorded, in 24-hour format
#OWNER       : PIXL Flight Model       (PIXL will use this to indicate which instrument took the data.)
#NPOINTS     : 4096     Number of data points in the spectrum (This can be zero for configuration only files)
#NCOLUMNS    : 2     Number of data columns in the spectrum (This can be zero for configuration only files)
#XUNITS      : eV
#YUNITS      : COUNTS
#DATATYPE    : YY
#XPERCHAN    : 7.862, 7.881   eV per channel (separate by commas if more than one detector)
#OFFSET      : 18.5, -22.4         eV of first channel  (separate by commas if more than one detector
#SIGNALTYPE  : XRF
#YP_TEMP     : 1.979
#LIVETIME    : 8.52715, 8.51512   seconds (separate by commas if more than one detector)
#REALTIME    : 10, 10.0   seconds (separate by commas if more than one detector)
#SPECTRUM    : start of spectrum data
0, 0
0, 0
0, 0
0, 0
0, 0
0, 0
0, 1
0, 0
0, 3
4, 0
5, 2
41, 44
40, 44
6, 5
3, 3
72, 62
281, 292
59, 59
11, 9
6, 3
97, 109
584, 595
242, 215
67, 46
95, 109
57, 69
41, 31
17, 17
10, 5
4, 8
8, 9
5, 11
4, 8
41, 37
60, 76
10, 7
15, 8
9, 12
12, 7
6, 11
8, 20
9, 18
15, 20
16, 12
7, 10
7, 7
6, 12
5, 8
7, 7
19, 25
20, 30
15, 10
7, 12
40, 43
71, 53
21, 29
26, 27
464, 582
2071, 2192
1524, 1379
204, 153
22, 14
22, 28
102, 127
329, 359
247, 208
25, 24
6, 17
18, 10
25, 15
10, 13
9, 19
4, 8
7, 4
6, 7
3, 5
6, 3
5, 4
3, 2
4, 8
8, 5
4, 6
7, 6
5, 7
4, 4
5, 4
2, 0
4, 6
5, 5
2, 10
7, 4
6, 8
8, 11
3, 5
3, 3
5, 4
3, 2
2, 3
3, 2
1, 3
4, 6
4, 5
1, 2
5, 2
0, 2
3, 2
2, 2
4, 2
2, 2
3, 2
1, 6
1, 3
1, 1
4, 1
2, 0
4, 2
1, 3
4, 3
2, 1
2, 1
1, 1
1, 1
4, 2
1, 1
0, 1
0, 0
1, 1
0, 2
2, 0
0, 0
1, 3
1, 1
1, 1
1, 1
1, 2
0, 1
2, 0
1, 1
1, 0
0, 0
0, 1
0, 1
0, 0
0, 1
0, 0
2, 1
0, 0
1, 0
0, 0
0, 2
0, 0
1, 0
2, 0
1, 2
0, 0
2, 0
0, 0
0, 0
0, 1
1, 0
0, 0
0, 0
0, 0
1, 0
0, 0
0, 0
1, 0
0, 0
0, 2
0, 0
0, 0
0, 0
0, 0
1, 1
2, 1
0, 0
0, 0
0, 0
1, 1
0, 0
0, 0
0, 1
0, 0
1, 0
0, 1
0, 0
0, 0
0, 0
0, 0
0, 0
0, 1
0, 0
1, 0
0, 0
0, 0
0, 0
0, 0
0, 0
0, 0
0, 0
0, 0
0, 0
0, 0
0, 0
0, 0
0, 0
0, 0
0, 0
0, 0
0, 0
0, 0
0, 0
0, 0
0, 0
0, 0
0, 0
0, 0
0, 0
0, 0
0, 0
0, 0
0, 0
0, 0
0, 0
0, 0
0, 0
0, 0
0, 0
0, 0
0, 0
0, 0
0, 0
0, 0
0, 0
0, 0
0, 0
0, 0
0, 0
0, 0
0, 0
0, 0
0, 0
0, 0
0, 0
0, 0
0, 0
0, 0
0, 0
0, 0
0, 0
0, 0
0, 0
0, 0
0, 0
0, 0
0, 0
0, 0
0, 0
0, 0
0, 0
0, 0
0, 0
0, 0
0, 0
0, 0
0, 0
0, 0
0, 0
0, 0
0, 0
0, 0
0, 0
0, 0
0, 0
0, 0
0, 0
0, 0
0, 0
0, 0
0, 0
0, 0
0, 0
0, 0
0, 0
0, 0
0, 0
0, 0
0, 0
0, 0
0, 0
0, 0
0, 0
0, 0
0, 0
#ENDOFDATA     end of spectrum data

File: ps__0852shot_2467.msa
#FORMAT      : EMSA/MAS spectral data file
#VERSION     : TC202v2.0 PIXL
#TITLE       : N/A
#DATE        :       Date in the format DD-MMM-YYYY, for example 07-JUL-2010
#TIME        :             The time of day at which the spectrum was recorded, in 24-hour format
#OWNER       : PIXL Flight Model       (PIXL will use this to indicate which instrument took the data.)
#NPOINTS     : 4096     Number of data points in the spectrum (This can be zero for configuration only files)
#NCOLUMNS    : 2     Number of data columns in the spectrum (This can be zero for configuration only files)
#XUNITS      : eV
#YUNITS      : COUNTS
#DATATYPE    : YY
#XPERCHAN    : 7.862, 7.881   eV per channel (separate by commas if more than one detector)
#OFFSET      : 18.5, -22.4         eV of first channel  (separate by commas if more than one detector
#SIGNALTYPE  : XRF
#YP_TEMP     : 2.428
#LIVETIME    : 8.54231, 8.52525   seconds (separate by commas if more than one detector)
#REALTIME    : 10, 10.0   seconds (separate by commas if more than one detector)
#SPECTRUM    : start of spectrum data
0, 0
0, 0
0, 0
0, 0
0, 0
0, 0
0, 0
0, 0
1, 2
0, 0
2, 4
35, 25
45, 36
5, 2
9, 7
61, 69
267, 306
87, 69
5, 9
11, 2
68, 103
535, 554
215, 206
44, 46
104, 114
64, 61
32, 36
25, 17
5, 13
5, 1
11, 8
7, 4
9, 5
20, 17
29, 40
10, 9
2, 9
5, 13
2, 6
6, 11
4, 24
8, 47
14, 40
11, 12
6, 8
14, 7
5, 13
1, 7
5, 8
11, 17
18, 17
16, 10
17, 8
42, 50
67, 53
26, 16
29, 34
438, 600
1963, 2317
1520, 1353
177, 132
15, 10
21, 24
94, 132
319, 351
223, 215
32, 27
11, 6
14, 14
16, 4
7, 3
6, 5
2, 3
3, 5
8, 4
8, 10
8, 7
2, 4
3, 4
6, 5
3, 7
6, 6
10, 7
9, 17
5, 10
4, 6
6, 1
5, 5
3, 1
2, 6
3, 3
4, 2
2, 2
5, 4
3, 2
6, 4
1, 3
0, 5
2, 2
1, 3
3, 1
2, 0
1, 2
6, 2
4, 0
1, 3
0, 4
4, 4
3, 4
1, 3
2, 1
0, 1
1, 1
2, 2
2, 1
6, 1
1, 6
2, 3
2, 0
0, 0
2, 2
1, 1
3, 0
2, 3
0, 2
2, 2
2, 2
0, 1
0, 3
2, 1
2, 2
0, 0
1, 0
1, 0
1, 0
3, 0
1, 0
0, 2
1, 1
2, 1
0, 2
0, 0
1, 0
1, 0
2, 0
0, 1
0, 0
0, 1
1, 0
0, 0
0, 0
0, 1
0, 0
0, 0
0, 0
0, 0
0, 0
0, 0
0, 0
0, 0
0, 0
1, 0
0, 0
1, 0
2, 0
0, 0
0, 0
0, 0
1, 0
1, 0
0, 0
0, 2
0, 0
0, 0
0, 0
1, 0
0, 0
0, 0
0, 0
0, 0
0, 0
0, 0
0, 0
0, 0
0, 1
0, 0
0, 0
0, 0
0, 0
0, 0
0, 0
0, 0
0, 0
0, 0
0, 0
0, 0
0, 0
0, 0
0, 0
0, 0
0, 0
0, 0
0, 0
1, 0
0, 0
0, 0
0, 0
0, 0
0, 0
0, 0
0, 0
0, 0
0, 0
0, 0
0, 0
0, 0
0, 0
0, 0
0, 0
0, 0
0, 0
0, 0
0, 0
0, 0
0, 0
0, 0
0, 0
0, 1
0, 0
0, 0
0, 0
0, 0
0, 0
0, 0
0, 0
0, 0
0, 0
0, 0
0, 0
0, 0
0, 0
0, 0
0, 0
0, 0
0, 0
0, 0
0, 0
0, 0
0, 0
0, 0
0, 0
0, 0
0, 0
0, 0
0, 0
0, 0
0, 0
0, 0
0, 0
0, 0
0, 0
0, 0
0, 0
0, 0
0, 0
0, 0
0, 0
0, 0
0, 0
0, 0
0, 0
0, 0
0, 0
0, 0
0, 0
0, 0
0, 0
0, 0
0, 0
0, 0
0, 0
0, 0
0, 0
0, 0
0, 0
0, 0
0, 0
0, 0
0, 0
0, 0
0, 0
0, 0
0, 0
0, 0
#ENDOFDATA     end of spectrum data

File: ps__0852shot_2468.msa
#FORMAT      : EMSA/MAS spectral data file
#VERSION     : TC202v2.0 PIXL
#TITLE       : N/A
#DATE        :       Date in the format DD-MMM-YYYY, for example 07-JUL-2010
#TIME        :             The time of day at which the spectrum was recorded, in 24-hour format
#OWNER       : PIXL Flight Model       (PIXL will use this to indicate which instrument took the data.)
#NPOINTS     : 4096     Number of data points in the spectrum (This can be zero for configuration only files)
#NCOLUMNS    : 2     Number of data columns in the spectrum (This can be zero for configuration only files)
#XUNITS      : eV
#YUNITS      : COUNTS
#DATATYPE    : YY
#XPERCHAN    : 7.862, 7.881   eV per channel (separate by commas if more than one detector)
#OFFSET      : 18.5, -22.4         eV of first channel  (separate by commas if more than one detector
#SIGNALTYPE  : XRF
#YP_TEMP     : 2.396
#LIVETIME    : 8.55908, 8.57212   seconds (separate by commas if more than one detector)
#REALTIME    : 10, 10.0   seconds (separate by commas if more than one detector)
#SPECTRUM    : start of spectrum data
0, 0
0, 0
0, 0
0, 0
0, 0
0, 0
0, 0
0, 0
4, 1
0, 1
4, 0
36, 45
57, 49
5, 3
3, 3
62, 59
284, 311
75, 71
10, 8
4, 5
84, 88
464, 513
171, 184
45, 50
115, 115
73, 85
26, 34
13, 16
10, 6
4, 8
17, 19
14, 4
8, 5
14, 21
31, 13
7, 9
4, 7
4, 10
3, 16
3, 4
6, 37
10, 59
19, 39
9, 9
6, 18
6, 20
11, 16
8, 5
14, 9
7, 17
12, 8
8, 9
10, 11
42, 48
50, 68
16, 17
34, 37
446, 612
2121, 2336
1572, 1329
173, 132
20, 10
18, 24
77, 130
332, 335
199, 188
34, 24
9, 12
19, 16
13, 8
20, 3
20, 5
6, 5
2, 3
3, 6
7, 18
4, 14
3, 10
5, 2
9, 2
7, 3
2, 5
6, 5
8, 5
5, 7
3, 2
3, 1
2, 5
10, 3
7, 3
3, 8
3, 4
4, 5
3, 2
1, 1
3, 0
1, 2
0, 4
3, 3
6, 1
5, 2
5, 4
3, 3
0, 4
4, 3
2, 2
3, 2
3, 4
1, 2
1, 1
1, 1
2, 2
3, 0
2, 2
1, 4
2, 1
1, 5
1, 3
2, 1
2, 0
0, 2
0, 1
3, 3
3, 3
1, 2
0, 1
2, 0
1, 0
2, 0
0, 1
1, 1
1, 0
1, 0
1, 0
0, 1
0, 0
0, 0
2, 0
0, 0
1, 0
1, 1
0, 0
0, 1
0, 1
0, 0
1, 1
0, 1
0, 0
0, 1
0, 0
0, 0
0, 1
0, 0
0, 0
0, 0
0, 0
0, 0
0, 0
0, 0
0, 0
1, 0
1, 0
1, 0
0, 0
0, 0
0, 0
0, 0
0, 0
1, 0
1, 0
0, 0
0, 0
1, 0
0, 0
0, 0
1, 1
0, 0
1, 0
0, 0
0, 0
0, 0
0, 0
0, 0
1, 0
0, 1
0, 0
0, 0
0, 0
0, 0
0, 0
1, 0
0, 0
0, 0
0, 0
0, 0
0, 0
0, 0
0, 1
0, 0
0, 0
0, 0
0, 0
0, 0
0, 0
0, 0
0, 0
0, 0
0, 0
0, 0
0, 0
0, 0
0, 0
0, 0
0, 0
0, 0
0, 0
0, 0
0, 0
0, 0
0, 0
0, 0
0, 0
0, 0
0, 0
0, 0
0, 0
0, 0
0, 0
0, 0
0, 0
0, 0
0, 0
0, 0
0, 0
0, 0
0, 0
0, 0
0, 0
0, 0
0, 0
0, 0
0, 0
0, 0
0, 0
0, 0
0, 0
0, 0
0, 0
0, 0
0, 0
0, 0
0, 0
0, 0
0, 0
0, 0
0, 0
0, 0
0, 0
0, 0
0, 0
0, 0
0, 0
0, 0
0, 0
0, 0
0, 0
0, 0
0, 0
0, 0
0, 0
0, 0
0, 0
0, 0
0, 0
0, 0
0, 0
0, 0
0, 0
0, 0
0, 0
0, 0
0, 0
0, 0
0, 0
0, 0
0, 0
0, 0
0, 0
0, 0
0, 0
0, 0
0, 0
0, 0
0, 0
#ENDOFDATA     end of spectrum data

File: ps__0852shot_2469.msa
#FORMAT      : EMSA/MAS spectral data file
#VERSION     : TC202v2.0 PIXL
#TITLE       : N/A
#DATE        :       Date in the format DD-MMM-YYYY, for example 07-JUL-2010
#TIME        :             The time of day at which the spectrum was recorded, in 24-hour format
#OWNER       : PIXL Flight Model       (PIXL will use this to indicate which instrument took the data.)
#NPOINTS     : 4096     Number of data points in the spectrum (This can be zero for configuration only files)
#NCOLUMNS    : 2     Number of data columns in the spectrum (This can be zero for configuration only files)
#XUNITS      : eV
#YUNITS      : COUNTS
#DATATYPE    : YY
#XPERCHAN    : 7.862, 7.881   eV per channel (separate by commas if more than one detector)
#OFFSET      : 18.5, -22.4         eV of first channel  (separate by commas if more than one detector
#SIGNALTYPE  : XRF
#YP_TEMP     : 2.396
#LIVETIME    : 8.54349, 8.5638   seconds (separate by commas if more than one detector)
#REALTIME    : 10, 10.0   seconds (separate by commas if more than one detector)
#SPECTRUM    : start of spectrum data
0, 0
0, 0
0, 0
0, 0
0, 0
0, 0
0, 0
1, 1
1, 1
0, 4
2, 6
42, 51
53, 67
6, 3
6, 8
78, 90
318, 425
86, 106
7, 5
4, 2
28, 24
183, 189
53, 72
17, 23
46, 58
34, 59
35, 25
11, 14
3, 4
2, 1
4, 6
3, 3
1, 3
15, 12
17, 19
3, 3
3, 2
2, 6
5, 8
7, 6
3, 6
12, 10
12, 21
7, 14
3, 40
4, 79
6, 37
8, 4
11, 6
35, 10
31, 12
12, 10
18, 12
30, 39
59, 66
28, 23
28, 36
416, 702
1954, 2528
1543, 1544
245, 156
20, 12
24, 20
116, 129
287, 412
221, 186
22, 24
8, 15
8, 25
7, 18
1, 1
2, 4
1, 4
4, 3
4, 4
5, 4
7, 16
1, 2
3, 5
7, 5
9, 2
2, 6
4, 8
2, 1
3, 4
7, 5
2, 2
2, 6
3, 9
3, 13
3, 12
3, 12
2, 4
2, 3
1, 2
2, 3
1, 3
5, 2
8, 2
5, 2
5, 3
3, 2
3, 1
2, 0
2, 4
2, 2
1, 6
0, 2
3, 5
3, 2
4, 0
3, 1
1, 4
3, 2
5, 2
1, 3
3, 6
0, 7
2, 1
0, 1
1, 3
5, 3
2, 1
0, 3
0, 0
2, 0
0, 0
1, 0
1, 2
0, 2
1, 5
0, 1
0, 1
0, 1
1, 0
0, 0
0, 2
0, 0
1, 1
0, 2
0, 0
0, 1
3, 2
0, 0
0, 0
1, 0
0, 1
0, 0
0, 0
2, 1
2, 0
0, 0
0, 0
1, 0
1, 0
0, 1
0, 0
0, 0
0, 0
1, 2
0, 0
0, 0
0, 0
1, 2
0, 0
1, 0
0, 2
1, 0
1, 0
0, 0
0, 0
0, 0
1, 1
0, 0
0, 0
1, 0
0, 0
0, 0
2, 1
0, 0
0, 0
0, 0
0, 0
0, 0
0, 1
0, 0
1, 0
0, 0
0, 0
0, 0
0, 0
0, 0
0, 0
0, 0
0, 0
1, 0
0, 0
0, 0
0, 0
0, 0
0, 0
0, 0
0, 0
0, 0
0, 0
0, 0
0, 0
0, 0
0, 0
0, 0
0, 0
0, 0
0, 0
0, 0
0, 0
0, 0
0, 0
0, 0
0, 0
0, 0
0, 0
0, 0
0, 0
0, 0
0, 0
0, 0
0, 0
0, 0
0, 0
0, 0
0, 0
0, 0
0, 0
0, 0
0, 0
0, 0
0, 0
0, 0
0, 0
0, 0
0, 0
0, 0
0, 0
0, 0
0, 0
0, 0
0, 0
0, 0
0, 0
0, 0
0, 0
0, 0
0, 0
0, 0
0, 0
0, 0
0, 0
0, 0
0, 0
0, 0
0, 0
0, 0
0, 0
0, 0
0, 0
0, 0
0, 0
0, 0
0, 0
0, 0
0, 0
0, 0
0, 0
0, 0
0, 0
0, 0
0, 0
0, 0
0, 0
0, 0
0, 0
0, 0
0, 0
0, 0
0, 0
0, 0
0, 0
0, 0
0, 0
0, 0
0, 0
0, 0
0, 0
0, 0
#ENDOFDATA     end of spectrum data

File: ps__0852shot_2470.msa
#FORMAT      : EMSA/MAS spectral data file
#VERSION     : TC202v2.0 PIXL
#TITLE       : N/A
#DATE        :       Date in the format DD-MMM-YYYY, for example 07-JUL-2010
#TIME        :             The time of day at which the spectrum was recorded, in 24-hour format
#OWNER       : PIXL Flight Model       (PIXL will use this to indicate which instrument took the data.)
#NPOINTS     : 4096     Number of data points in the spectrum (This can be zero for configuration only files)
#NCOLUMNS    : 2     Number of data columns in the spectrum (This can be zero for configuration only files)
#XUNITS      : eV
#YUNITS      : COUNTS
#DATATYPE    : YY
#XPERCHAN    : 7.862, 7.881   eV per channel (separate by commas if more than one detector)
#OFFSET      : 18.5, -22.4         eV of first channel  (separate by commas if more than one detector
#SIGNALTYPE  : XRF
#YP_TEMP     : 2.396
#LIVETIME    : 8.54712, 8.57058   seconds (separate by commas if more than one detector)
#REALTIME    : 10, 10.0   seconds (separate by commas if more than one detector)
#SPECTRUM    : start of spectrum data
0, 0
0, 0
0, 0
0, 0
0, 0
0, 0
0, 0
0, 1
1, 0
1, 0
1, 3
37, 47
74, 52
3, 10
2, 4
73, 88
419, 418
110, 110
3, 5
1, 2
2, 3
13, 12
4, 8
9, 6
36, 50
43, 41
22, 23
19, 10
3, 5
2, 0
1, 2
3, 0
3, 2
7, 7
15, 15
4, 10
4, 6
4, 7
4, 10
2, 2
5, 7
12, 8
18, 13
18, 18
7, 21
5, 52
3, 28
11, 8
12, 10
28, 23
20, 14
10, 7
12, 12
38, 44
60, 50
20, 25
29, 44
518, 568
2251, 2369
1732, 1434
254, 174
27, 20
19, 14
115, 100
359, 365
242, 196
30, 32
7, 21
14, 32
12, 13
8, 4
2, 1
4, 5
4, 6
5, 6
6, 10
4, 7
5, 4
9, 8
6, 5
7, 4
7, 7
0, 5
3, 8
3, 2
1, 6
4, 2
1, 5
1, 5
5, 1
6, 11
3, 6
1, 4
2, 2
3, 3
0, 1
4, 2
1, 1
7, 2
9, 2
5, 1
1, 5
5, 0
1, 2
0, 0
3, 5
2, 1
0, 3
2, 2
2, 3
1, 4
1, 2
2, 0
2, 1
0, 2
4, 6
4, 4
6, 4
3, 3
1, 3
3, 2
3, 4
2, 1
2, 0
0, 0
1, 1
1, 1
0, 1
0, 3
0, 1
1, 1
0, 1
0, 0
1, 1
0, 0
2, 0
1, 1
0, 1
1, 0
2, 2
2, 0
0, 1
0, 1
0, 0
1, 1
0, 0
0, 1
0, 0
0, 2
2, 0
0, 0
0, 0
1, 0
0, 0
0, 2
0, 0
0, 0
1, 1
0, 1
0, 0
1, 1
1, 0
0, 0
1, 0
0, 1
0, 0
2, 0
1, 0
0, 0
1, 0
0, 0
0, 1
0, 1
0, 0
1, 1
2, 0
1, 1
0, 0
0, 0
0, 0
0, 1
0, 0
0, 0
0, 0
1, 0
0, 0
0, 0
0, 0
0, 0
0, 0
0, 0
0, 0
0, 0
0, 0
0, 0
0, 0
0, 0
0, 1
1, 0
0, 0
0, 0
0, 0
0, 0
0, 0
0, 0
0, 0
0, 0
0, 0
0, 0
0, 0
0, 0
0, 0
0, 0
0, 0
0, 0
0, 0
0, 0
0, 0
0, 0
0, 0
0, 0
0, 0
0, 0
0, 0
0, 0
0, 0
0, 0
0, 0
0, 0
0, 0
0, 0
0, 0
0, 0
0, 0
0, 0
0, 0
0, 0
0, 0
0, 0
0, 0
0, 0
0, 0
0, 0
0, 0
0, 0
0, 0
0, 0
0, 0
0, 0
0, 0
0, 0
0, 0
0, 0
0, 0
0, 0
0, 0
0, 0
0, 0
0, 0
0, 0
0, 0
0, 0
0, 0
0, 0
0, 0
0, 0
0, 0
0, 0
0, 0
0, 0
0, 0
0, 0
0, 0
0, 0
0, 0
0, 0
0, 0
0, 0
0, 0
0, 0
0, 0
0, 0
0, 0
0, 0
0, 0
0, 0
0, 0
0, 0
0, 0
0, 0
0, 0
0, 0
0, 0
0, 0
#ENDOFDATA     end of spectrum data

File: ps__0852shot_2471.msa
#FORMAT      : EMSA/MAS spectral data file
#VERSION     : TC202v2.0 PIXL
#TITLE       : N/A
#DATE        :       Date in the format DD-MMM-YYYY, for example 07-JUL-2010
#TIME        :             The time of day at which the spectrum was recorded, in 24-hour format
#OWNER       : PIXL Flight Model       (PIXL will use this to indicate which instrument took the data.)
#NPOINTS     : 4096     Number of data points in the spectrum (This can be zero for configuration only files)
#NCOLUMNS    : 2     Number of data columns in the spectrum (This can be zero for configuration only files)
#XUNITS      : eV
#YUNITS      : COUNTS
#DATATYPE    : YY
#XPERCHAN    : 7.862, 7.881   eV per channel (separate by commas if more than one detector)
#OFFSET      : 18.5, -22.4         eV of first channel  (separate by commas if more than one detector
#SIGNALTYPE  : XRF
#YP_TEMP     : 2.524
#LIVETIME    : 8.55942, 8.54665   seconds (separate by commas if more than one detector)
#REALTIME    : 10, 10.0   seconds (separate by commas if more than one detector)
#SPECTRUM    : start of spectrum data
0, 0
0, 0
0, 0
0, 0
0, 0
0, 0
0, 0
0, 0
0, 1
2, 0
2, 1
45, 54
73, 44
5, 1
6, 8
108, 88
424, 404
101, 113
4, 8
2, 3
10, 7
34, 27
13, 10
8, 9
34, 39
28, 23
31, 23
17, 18
6, 7
4, 3
2, 1
1, 2
2, 5
11, 10
9, 12
2, 4
2, 3
7, 3
2, 7
3, 5
5, 5
8, 8
11, 16
9, 52
5, 43
9, 31
5, 17
5, 11
6, 10
17, 9
22, 15
13, 10
13, 34
46, 47
68, 64
58, 19
188, 32
553, 562
2306, 2221
1600, 1379
202, 170
18, 25
22, 29
90, 109
327, 334
226, 190
46, 15
9, 13
14, 26
10, 12
4, 9
6, 3
5, 2
3, 4
2, 6
6, 7
13, 6
14, 6
5, 7
4, 5
8, 11
2, 4
6, 6
5, 7
5, 4
5, 2
1, 3
0, 3
2, 2
1, 3
1, 5
2, 3
4, 2
2, 3
1, 4
1, 1
1, 1
2, 2
0, 3
6, 0
7, 1
3, 1
3, 0
4, 1
0, 5
1, 2
0, 3
2, 3
3, 1
1, 2
3, 1
5, 2
2, 3
2, 0
1, 2
2, 0
4, 6
2, 2
1, 4
0, 4
1, 4
1, 2
3, 3
1, 3
2, 1
0, 1
3, 4
4, 1
1, 1
2, 2
0, 1
3, 2
2, 2
3, 1
0, 3
1, 0
3, 0
0, 0
0, 0
0, 0
1, 4
0, 0
0, 1
2, 1
0, 0
0, 1
0, 0
1, 1
1, 0
1, 1
1, 1
1, 0
1, 0
1, 0
1, 0
0, 1
1, 0
1, 0
2, 0
0, 0
1, 1
0, 1
0, 0
0, 0
0, 0
0, 0
0, 0
0, 0
1, 0
0, 0
0, 0
0, 1
0, 0
0, 1
1, 0
0, 0
1, 0
0, 0
0, 0
0, 0
0, 0
0, 1
0, 1
1, 0
0, 3
0, 0
0, 0
0, 0
0, 0
0, 0
0, 0
0, 0
0, 0
1, 0
0, 0
0, 0
0, 0
0, 0
0, 0
0, 0
0, 0
0, 0
0, 0
0, 0
0, 0
0, 0
0, 0
0, 0
0, 0
0, 0
0, 0
0, 0
0, 0
0, 0
0, 0
0, 0
0, 0
0, 0
0, 0
0, 0
0, 0
0, 0
0, 0
0, 0
0, 0
0, 0
0, 0
0, 0
0, 0
0, 0
0, 0
0, 0
0, 0
0, 0
0, 0
0, 0
0, 0
0, 0
0, 0
0, 0
0, 0
0, 0
0, 0
0, 0
0, 0
0, 0
0, 0
0, 0
0, 0
0, 0
0, 0
0, 0
0, 0
0, 0
0, 0
0, 0
0, 0
0, 0
0, 0
0, 0
0, 0
0, 0
0, 0
0, 0
0, 0
0, 0
0, 0
0, 0
0, 0
0, 0
0, 0
0, 0
0, 0
0, 0
0, 0
0, 0
0, 0
0, 0
0, 0
0, 0
0, 0
0, 0
0, 0
0, 0
0, 0
0, 0
0, 0
0, 0
0, 0
0, 0
0, 0
0, 0
0, 0
0, 0
#ENDOFDATA     end of spectrum data

File: ps__0852shot_2472.msa
#FORMAT      : EMSA/MAS spectral data file
#VERSION     : TC202v2.0 PIXL
#TITLE       : N/A
#DATE        :       Date in the format DD-MMM-YYYY, for example 07-JUL-2010
#TIME        :             The time of day at which the spectrum was recorded, in 24-hour format
#OWNER       : PIXL Flight Model       (PIXL will use this to indicate which instrument took the data.)
#NPOINTS     : 4096     Number of data points in the spectrum (This can be zero for configuration only files)
#NCOLUMNS    : 2     Number of data columns in the spectrum (This can be zero for configuration only files)
#XUNITS      : eV
#YUNITS      : COUNTS
#DATATYPE    : YY
#XPERCHAN    : 7.862, 7.881   eV per channel (separate by commas if more than one detector)
#OFFSET      : 18.5, -22.4         eV of first channel  (separate by commas if more than one detector
#SIGNALTYPE  : XRF
#YP_TEMP     : 2.203
#LIVETIME    : 8.55424, 8.54367   seconds (separate by commas if more than one detector)
#REALTIME    : 10, 10.0   seconds (separate by commas if more than one detector)
#SPECTRUM    : start of spectrum data
0, 0
0, 0
0, 0
0, 0
0, 0
0, 0
0, 0
1, 2
1, 0
1, 0
1, 3
50, 38
56, 54
5, 4
2, 4
97, 96
392, 376
90, 90
10, 3
1, 1
9, 13
68, 79
26, 21
13, 7
32, 41
34, 35
17, 23
10, 13
6, 3
0, 3
1, 3
2, 1
1, 1
11, 11
7, 14
6, 9
3, 7
7, 10
4, 28
8, 18
6, 6
6, 12
12, 17
15, 42
13, 29
9, 9
7, 5
9, 3
8, 15
22, 22
26, 14
12, 12
13, 42
35, 55
61, 73
71, 24
179, 28
559, 530
2192, 2264
1652, 1374
177, 137
17, 17
28, 18
111, 137
362, 362
228, 193
32, 19
9, 8
11, 19
5, 7
10, 5
7, 5
4, 1
6, 6
8, 4
12, 7
27, 5
39, 14
17, 2
5, 4
0, 4
2, 5
4, 2
7, 4
5, 5
5, 1
5, 4
5, 5
1, 5
4, 4
3, 3
2, 1
6, 0
3, 1
3, 2
8, 3
4, 3
4, 3
0, 4
3, 0
0, 3
2, 0
0, 1
2, 0
3, 3
0, 2
2, 2
1, 4
2, 1
2, 2
0, 0
2, 1
3, 3
1, 3
3, 2
1, 4
1, 5
7, 7
5, 1
4, 3
0, 0
2, 1
5, 0
5, 0
1, 1
1, 0
2, 2
0, 1
1, 1
3, 0
1, 1
1, 1
3, 0
2, 0
1, 1
1, 1
1, 0
1, 0
1, 0
0, 0
1, 1
0, 0
2, 1
0, 0
0, 0
0, 0
0, 0
0, 0
0, 0
1, 1
0, 1
0, 0
1, 0
1, 1
0, 0
0, 0
0, 0
0, 0
0, 0
0, 0
0, 1
1, 0
0, 0
0, 0
0, 0
0, 0
0, 0
0, 0
0, 0
1, 0
0, 1
0, 1
0, 0
1, 0
0, 0
0, 0
0, 0
0, 1
0, 0
0, 0
0, 0
0, 0
0, 0
0, 0
0, 0
0, 0
0, 0
0, 0
0, 0
0, 0
0, 0
0, 0
0, 0
0, 0
0, 0
0, 0
0, 0
0, 0
0, 0
0, 0
0, 0
0, 0
0, 0
0, 0
0, 0
0, 0
0, 0
0, 0
0, 0
0, 0
0, 0
0, 0
0, 0
0, 0
0, 0
0, 0
0, 0
0, 0
0, 0
0, 0
0, 0
0, 0
0, 0
0, 0
0, 0
0, 0
0, 0
0, 0
0, 0
0, 0
0, 0
0, 0
0, 0
0, 0
0, 0
0, 0
0, 0
0, 0
0, 0
0, 0
0, 0
0, 0
0, 0
0, 0
0, 0
0, 0
0, 0
0, 0
0, 0
0, 0
0, 0
0, 0
0, 0
0, 0
0, 0
0, 0
0, 0
0, 0
0, 0
0, 0
0, 0
0, 0
0, 0
0, 0
0, 0
0, 0
0, 0
0, 0
0, 0
0, 0
0, 0
0, 0
0, 0
0, 0
0, 0
0, 0
0, 0
0, 0
0, 0
0, 0
0, 0
0, 0
0, 0
0, 0
0, 0
0, 0
0, 0
0, 0
0, 0
0, 0
0, 0
0, 0
0, 0
0, 0
#ENDOFDATA     end of spectrum data

File: ps__0852shot_2473.msa
#FORMAT      : EMSA/MAS spectral data file
#VERSION     : TC202v2.0 PIXL
#TITLE       : N/A
#DATE        :       Date in the format DD-MMM-YYYY, for example 07-JUL-2010
#TIME        :             The time of day at which the spectrum was recorded, in 24-hour format
#OWNER       : PIXL Flight Model       (PIXL will use this to indicate which instrument took the data.)
#NPOINTS     : 4096     Number of data points in the spectrum (This can be zero for configuration only files)
#NCOLUMNS    : 2     Number of data columns in the spectrum (This can be zero for configuration only files)
#XUNITS      : eV
#YUNITS      : COUNTS
#DATATYPE    : YY
#XPERCHAN    : 7.862, 7.881   eV per channel (separate by commas if more than one detector)
#OFFSET      : 18.5, -22.4         eV of first channel  (separate by commas if more than one detector
#SIGNALTYPE  : XRF
#YP_TEMP     : 2.267
#LIVETIME    : 8.54138, 8.35384   seconds (separate by commas if more than one detector)
#REALTIME    : 10, 10.0   seconds (separate by commas if more than one detector)
#SPECTRUM    : start of spectrum data
0, 0
0, 0
0, 0
0, 0
0, 0
0, 0
0, 0
0, 0
1, 0
1, 0
3, 2
48, 42
83, 47
5, 5
7, 5
89, 83
454, 378
108, 87
7, 4
3, 1
29, 16
114, 121
49, 35
19, 13
36, 28
57, 27
24, 14
12, 10
3, 5
9, 6
4, 3
2, 2
4, 1
7, 9
16, 9
8, 7
10, 8
7, 5
8, 20
3, 12
2, 5
12, 6
15, 11
10, 32
11, 18
10, 4
4, 11
5, 6
7, 12
18, 14
12, 13
11, 19
12, 44
45, 57
54, 66
37, 21
94, 39
508, 550
2245, 2126
1602, 1234
209, 133
27, 17
26, 24
103, 106
337, 310
227, 190
28, 28
8, 10
14, 11
8, 7
4, 2
4, 2
4, 5
10, 7
10, 6
8, 7
24, 4
40, 3
19, 5
12, 2
5, 4
3, 3
2, 3
7, 3
4, 2
0, 3
5, 11
2, 4
3, 2
5, 5
7, 3
5, 4
1, 1
8, 1
5, 1
5, 2
3, 5
4, 3
2, 0
4, 0
2, 3
3, 2
1, 2
1, 5
4, 1
3, 1
3, 5
3, 1
3, 2
1, 2
7, 0
4, 5
2, 4
2, 2
2, 2
2, 1
3, 2
6, 5
0, 2
7, 3
0, 3
2, 1
5, 3
1, 7
5, 0
0, 1
0, 0
2, 2
0, 0
1, 1
1, 2
1, 0
1, 0
1, 0
1, 0
3, 0
2, 2
0, 0
0, 1
1, 0
0, 2
1, 0
0, 1
1, 0
1, 0
0, 1
1, 0
0, 1
0, 0
1, 0
2, 0
0, 0
0, 0
1, 0
1, 0
0, 1
1, 1
0, 0
0, 0
2, 1
0, 0
0, 0
0, 0
1, 1
0, 0
1, 0
0, 1
0, 0
0, 0
0, 1
0, 0
1, 2
0, 1
2, 0
0, 0
0, 0
0, 0
0, 0
1, 0
0, 0
0, 0
0, 0
0, 0
0, 0
0, 0
0, 0
0, 0
0, 0
0, 0
0, 0
0, 1
0, 1
0, 0
0, 0
0, 0
0, 0
0, 0
0, 0
0, 0
0, 0
0, 0
0, 0
0, 0
0, 0
0, 0
0, 0
0, 0
0, 0
0, 0
0, 0
0, 0
0, 0
0, 0
0, 0
0, 0
0, 0
0, 0
0, 0
0, 0
0, 0
0, 0
0, 0
0, 0
0, 0
0, 0
0, 0
0, 0
0, 0
0, 0
0, 0
0, 0
0, 0
0, 0
0, 0
0, 0
0, 0
0, 0
0, 0
0, 0
0, 0
0, 0
0, 0
0, 0
0, 0
0, 0
0, 0
0, 0
0, 0
0, 0
0, 0
0, 0
0, 0
0, 0
0, 0
0, 0
0, 0
0, 0
0, 0
0, 0
0, 0
0, 0
0, 0
0, 0
0, 0
0, 0
0, 0
0, 0
0, 0
0, 0
0, 0
0, 0
0, 0
0, 0
0, 0
0, 0
0, 0
0, 0
0, 0
0, 0
0, 0
0, 0
0, 0
0, 0
0, 0
0, 0
0, 0
0, 0
0, 0
0, 0
0, 0
0, 0
0, 0
0, 0
0, 0
#ENDOFDATA     end of spectrum data