Folder: data-repository/host_upload/06-09-2024/ps_0852/dump3 (part 7)

File: ps__0852shot_2054.msa
#FORMAT      : EMSA/MAS spectral data file
#VERSION     : TC202v2.0 PIXL
#TITLE       : N/A
#DATE        :       Date in the format DD-MMM-YYYY, for example 07-JUL-2010
#TIME        :             The time of day at which the spectrum was recorded, in 24-hour format
#OWNER       : PIXL Flight Model       (PIXL will use this to indicate which instrument took the data.)
#NPOINTS     : 4096     Number of data points in the spectrum (This can be zero for configuration only files)
#NCOLUMNS    : 2     Number of data columns in the spectrum (This can be zero for configuration only files)
#XUNITS      : eV
#YUNITS      : COUNTS
#DATATYPE    : YY
#XPERCHAN    : 7.862, 7.881   eV per channel (separate by commas if more than one detector)
#OFFSET      : 18.5, -22.4         eV of first channel  (separate by commas if more than one detector
#SIGNALTYPE  : XRF
#YP_TEMP     : 2.492
#LIVETIME    : 8.53859, 8.54386   seconds (separate by commas if more than one detector)
#REALTIME    : 10, 10.0   seconds (separate by commas if more than one detector)
#SPECTRUM    : start of spectrum data
0, 0
0, 0
0, 0
0, 0
0, 0
0, 0
0, 0
1, 0
0, 0
1, 2
2, 2
44, 51
65, 58
9, 4
9, 7
103, 97
463, 377
101, 105
9, 4
2, 1
2, 0
3, 3
2, 2
3, 10
25, 16
28, 27
20, 21
13, 12
7, 8
4, 1
2, 2
2, 1
2, 2
7, 14
12, 14
4, 2
7, 1
6, 3
5, 3
2, 8
4, 4
6, 6
11, 13
9, 6
6, 4
10, 10
7, 13
11, 7
3, 13
12, 30
9, 12
21, 7
38, 16
52, 53
50, 55
27, 18
53, 39
506, 543
2278, 2211
1652, 1316
222, 122
20, 25
19, 18
112, 118
327, 327
265, 169
54, 21
11, 7
21, 22
6, 10
11, 4
12, 5
3, 3
8, 1
5, 4
6, 6
4, 2
3, 8
5, 4
8, 1
4, 7
9, 3
11, 4
9, 2
6, 9
5, 3
1, 4
1, 7
3, 1
1, 4
5, 2
5, 3
3, 3
3, 6
1, 2
4, 5
3, 1
3, 5
5, 2
4, 5
0, 2
1, 2
3, 2
2, 1
2, 3
3, 2
5, 1
3, 1
2, 3
1, 0
3, 1
5, 1
0, 0
3, 3
2, 2
4, 4
3, 6
1, 6
2, 3
1, 2
2, 1
2, 0
5, 2
3, 1
1, 0
1, 0
1, 2
0, 0
1, 1
1, 1
0, 1
1, 0
1, 1
3, 2
2, 0
0, 1
2, 0
0, 3
2, 0
1, 1
0, 1
0, 0
1, 1
1, 1
0, 0
1, 0
1, 0
0, 0
0, 0
0, 0
0, 1
0, 0
0, 2
0, 1
2, 0
1, 0
0, 0
0, 0
1, 0
2, 0
0, 0
1, 0
0, 0
0, 0
1, 0
0, 0
1, 0
0, 0
0, 0
0, 0
0, 0
0, 0
0, 0
0, 0
0, 0
0, 0
0, 0
0, 0
0, 0
0, 0
0, 0
0, 0
1, 1
0, 0
1, 0
0, 0
1, 0
0, 0
0, 0
0, 0
0, 0
0, 0
0, 0
0, 0
0, 0
0, 0
0, 0
0, 0
0, 0
0, 0
0, 0
0, 0
0, 0
0, 0
0, 0
0, 0
0, 0
0, 0
0, 0
0, 0
0, 0
0, 0
0, 0
0, 0
0, 0
0, 0
0, 0
0, 0
0, 0
0, 0
0, 0
0, 0
0, 0
0, 0
0, 0
0, 0
0, 0
0, 0
0, 0
0, 0
0, 0
0, 0
0, 0
0, 0
0, 0
0, 0
0, 0
0, 0
0, 0
0, 0
0, 0
0, 0
0, 0
0, 0
0, 0
0, 0
0, 0
0, 0
0, 0
0, 0
0, 1
0, 0
0, 0
0, 0
0, 0
0, 0
0, 0
0, 0
0, 0
0, 0
0, 0
0, 0
0, 0
0, 0
0, 0
0, 0
0, 0
0, 0
0, 0
0, 0
0, 0
0, 0
0, 0
0, 0
0, 0
0, 0
0, 0
0, 0
0, 0
0, 0
0, 0
0, 0
0, 0
0, 0
0, 0
0, 0
0, 0
0, 0
0, 0
0, 0
0, 0
0, 0
0, 0
0, 0
#ENDOFDATA     end of spectrum data

File: ps__0852shot_2055.msa
#FORMAT      : EMSA/MAS spectral data file
#VERSION     : TC202v2.0 PIXL
#TITLE       : N/A
#DATE        :       Date in the format DD-MMM-YYYY, for example 07-JUL-2010
#TIME        :             The time of day at which the spectrum was recorded, in 24-hour format
#OWNER       : PIXL Flight Model       (PIXL will use this to indicate which instrument took the data.)
#NPOINTS     : 4096     Number of data points in the spectrum (This can be zero for configuration only files)
#NCOLUMNS    : 2     Number of data columns in the spectrum (This can be zero for configuration only files)
#XUNITS      : eV
#YUNITS      : COUNTS
#DATATYPE    : YY
#XPERCHAN    : 7.862, 7.881   eV per channel (separate by commas if more than one detector)
#OFFSET      : 18.5, -22.4         eV of first channel  (separate by commas if more than one detector
#SIGNALTYPE  : XRF
#YP_TEMP     : 2.524
#LIVETIME    : 8.53877, 8.54231   seconds (separate by commas if more than one detector)
#REALTIME    : 10, 10.0   seconds (separate by commas if more than one detector)
#SPECTRUM    : start of spectrum data
0, 0
0, 0
0, 0
0, 0
0, 0
0, 0
0, 0
0, 0
1, 1
1, 1
4, 2
42, 43
50, 57
8, 5
2, 2
95, 112
374, 424
111, 102
7, 4
0, 5
2, 1
7, 2
2, 7
12, 41
16, 37
38, 39
15, 23
15, 8
3, 9
1, 6
3, 2
3, 3
4, 0
9, 15
14, 20
7, 21
5, 4
5, 6
3, 6
3, 5
6, 2
8, 11
5, 15
14, 12
10, 14
5, 37
10, 29
12, 15
9, 12
11, 24
9, 14
18, 9
31, 11
65, 40
54, 58
37, 23
40, 42
453, 620
2125, 2374
1548, 1398
181, 141
16, 15
28, 23
117, 124
317, 353
257, 215
25, 34
6, 14
12, 29
10, 38
9, 18
10, 9
11, 6
8, 9
4, 3
3, 7
4, 5
6, 8
5, 4
4, 3
6, 4
1, 6
5, 4
6, 7
2, 4
1, 6
0, 4
6, 4
4, 2
4, 4
6, 0
4, 8
4, 4
5, 5
0, 7
2, 3
2, 2
4, 1
1, 2
6, 2
3, 1
5, 1
3, 2
3, 1
3, 1
2, 0
3, 4
1, 3
5, 2
0, 1
1, 2
3, 3
2, 3
3, 2
0, 0
4, 2
4, 9
4, 5
1, 1
2, 5
3, 1
6, 0
4, 1
3, 2
1, 1
2, 0
0, 1
0, 1
0, 1
0, 0
0, 1
1, 0
2, 0
1, 0
0, 1
2, 2
0, 0
0, 0
1, 3
0, 0
1, 0
2, 1
1, 1
0, 0
0, 1
0, 1
0, 0
0, 0
1, 0
0, 0
0, 0
0, 0
2, 2
1, 0
0, 0
0, 0
0, 0
0, 0
1, 0
0, 0
0, 0
0, 2
0, 0
0, 0
0, 0
0, 0
0, 0
0, 0
1, 0
1, 0
0, 0
1, 3
0, 0
0, 0
0, 0
0, 0
0, 0
0, 0
0, 0
0, 0
0, 0
0, 0
0, 1
0, 0
0, 0
0, 0
0, 0
0, 0
0, 0
0, 0
0, 0
0, 0
0, 1
0, 1
0, 0
0, 0
0, 0
0, 0
0, 0
0, 0
0, 0
0, 0
0, 0
0, 0
0, 0
0, 0
0, 0
0, 0
0, 0
0, 0
0, 1
0, 0
0, 0
0, 0
0, 0
0, 0
0, 0
0, 0
0, 0
1, 0
0, 0
0, 0
0, 0
0, 0
0, 0
0, 0
0, 0
0, 0
0, 0
0, 0
0, 0
0, 0
0, 0
0, 0
0, 0
0, 0
0, 0
0, 0
0, 0
0, 0
0, 0
0, 0
0, 0
0, 0
0, 0
0, 0
0, 0
0, 0
0, 0
0, 0
0, 0
0, 0
0, 0
0, 0
0, 0
0, 0
0, 0
0, 0
0, 0
0, 0
0, 0
0, 0
0, 0
0, 0
0, 0
0, 0
0, 0
0, 0
0, 0
0, 0
0, 0
0, 0
0, 0
0, 0
0, 0
0, 0
0, 0
0, 0
0, 0
0, 0
0, 0
0, 0
0, 0
0, 0
0, 0
0, 0
0, 0
0, 0
0, 0
0, 0
0, 0
0, 0
0, 0
0, 0
#ENDOFDATA     end of spectrum data

File: ps__0852shot_2056.msa
#FORMAT      : EMSA/MAS spectral data file
#VERSION     : TC202v2.0 PIXL
#TITLE       : N/A
#DATE        :       Date in the format DD-MMM-YYYY, for example 07-JUL-2010
#TIME        :             The time of day at which the spectrum was recorded, in 24-hour format
#OWNER       : PIXL Flight Model       (PIXL will use this to indicate which instrument took the data.)
#NPOINTS     : 4096     Number of data points in the spectrum (This can be zero for configuration only files)
#NCOLUMNS    : 2     Number of data columns in the spectrum (This can be zero for configuration only files)
#XUNITS      : eV
#YUNITS      : COUNTS
#DATATYPE    : YY
#XPERCHAN    : 7.862, 7.881   eV per channel (separate by commas if more than one detector)
#OFFSET      : 18.5, -22.4         eV of first channel  (separate by commas if more than one detector
#SIGNALTYPE  : XRF
#YP_TEMP     : 2.524
#LIVETIME    : 8.51817, 8.51669   seconds (separate by commas if more than one detector)
#REALTIME    : 10, 10.0   seconds (separate by commas if more than one detector)
#SPECTRUM    : start of spectrum data
0, 0
0, 0
0, 0
0, 0
0, 0
0, 0
0, 0
0, 0
0, 0
1, 0
2, 2
44, 47
68, 45
3, 4
2, 5
87, 102
420, 397
113, 97
4, 6
0, 2
2, 1
10, 9
3, 8
10, 7
49, 31
60, 49
30, 25
12, 13
4, 2
2, 3
4, 1
2, 1
3, 8
6, 8
11, 14
9, 18
6, 7
4, 4
4, 5
7, 3
8, 7
10, 12
12, 15
15, 12
6, 12
5, 31
9, 29
8, 11
10, 7
16, 15
22, 16
15, 10
17, 14
45, 45
79, 61
26, 20
43, 40
456, 590
2264, 2276
1569, 1370
251, 132
17, 10
29, 25
131, 98
343, 339
253, 181
31, 21
11, 20
13, 24
13, 29
8, 12
11, 6
6, 2
4, 1
5, 4
7, 8
5, 5
3, 2
5, 4
5, 5
10, 5
2, 4
8, 7
1, 5
4, 4
4, 5
5, 2
4, 0
2, 5
4, 3
4, 3
1, 3
8, 5
5, 3
4, 1
1, 3
0, 2
2, 6
3, 4
7, 4
5, 3
2, 1
3, 4
4, 2
2, 3
1, 2
3, 1
0, 3
2, 1
2, 2
2, 2
2, 1
4, 1
1, 4
5, 1
2, 2
1, 4
4, 3
3, 1
1, 0
2, 2
4, 2
4, 2
3, 1
1, 1
0, 1
1, 2
0, 1
1, 0
1, 0
0, 0
1, 0
2, 0
1, 1
1, 0
1, 0
0, 1
2, 2
0, 1
2, 1
0, 0
0, 0
0, 0
0, 1
0, 0
0, 0
0, 3
1, 1
0, 1
0, 1
0, 1
0, 0
0, 0
1, 0
0, 0
0, 0
0, 1
0, 0
1, 0
1, 1
0, 0
0, 0
0, 0
1, 0
0, 0
1, 0
0, 0
0, 0
1, 0
0, 0
1, 0
0, 0
0, 1
0, 0
0, 1
0, 0
0, 0
0, 0
1, 0
0, 0
1, 0
0, 0
0, 0
0, 0
0, 0
1, 0
0, 0
0, 0
1, 0
0, 0
0, 0
0, 0
0, 0
0, 0
0, 0
0, 0
0, 0
0, 0
0, 0
0, 0
0, 0
0, 0
0, 0
0, 0
0, 0
0, 0
0, 0
0, 0
0, 0
0, 1
0, 0
0, 0
0, 0
0, 0
0, 0
0, 0
0, 0
0, 0
0, 0
0, 0
0, 0
0, 0
0, 0
0, 0
0, 0
0, 0
0, 0
0, 0
0, 0
0, 0
0, 0
0, 0
0, 0
0, 0
0, 0
0, 0
0, 0
0, 0
0, 0
0, 0
0, 0
0, 0
0, 0
0, 0
0, 0
0, 0
0, 0
0, 0
0, 0
0, 0
0, 0
0, 0
0, 0
0, 0
0, 0
0, 0
0, 0
0, 0
0, 0
0, 0
0, 0
0, 0
0, 0
0, 0
0, 0
0, 0
0, 0
0, 0
0, 0
0, 0
0, 0
0, 0
0, 0
0, 0
0, 0
0, 0
0, 0
0, 0
0, 0
0, 0
0, 0
0, 0
0, 0
0, 0
0, 0
0, 0
0, 0
0, 0
0, 0
0, 0
0, 0
0, 0
0, 0
0, 0
#ENDOFDATA     end of spectrum data

File: ps__0852shot_2057.msa
#FORMAT      : EMSA/MAS spectral data file
#VERSION     : TC202v2.0 PIXL
#TITLE       : N/A
#DATE        :       Date in the format DD-MMM-YYYY, for example 07-JUL-2010
#TIME        :             The time of day at which the spectrum was recorded, in 24-hour format
#OWNER       : PIXL Flight Model       (PIXL will use this to indicate which instrument took the data.)
#NPOINTS     : 4096     Number of data points in the spectrum (This can be zero for configuration only files)
#NCOLUMNS    : 2     Number of data columns in the spectrum (This can be zero for configuration only files)
#XUNITS      : eV
#YUNITS      : COUNTS
#DATATYPE    : YY
#XPERCHAN    : 7.862, 7.881   eV per channel (separate by commas if more than one detector)
#OFFSET      : 18.5, -22.4         eV of first channel  (separate by commas if more than one detector
#SIGNALTYPE  : XRF
#YP_TEMP     : 2.46
#LIVETIME    : 8.5394, 8.53793   seconds (separate by commas if more than one detector)
#REALTIME    : 10, 10.0   seconds (separate by commas if more than one detector)
#SPECTRUM    : start of spectrum data
0, 0
0, 0
0, 0
0, 0
0, 0
0, 0
0, 0
1, 0
2, 0
2, 0
2, 0
56, 45
64, 53
7, 4
13, 3
104, 96
426, 388
110, 93
12, 2
0, 2
4, 1
6, 2
3, 2
18, 3
93, 40
116, 37
31, 17
12, 16
2, 1
4, 2
1, 3
1, 4
3, 4
7, 12
22, 11
7, 8
9, 5
9, 7
6, 8
4, 6
5, 2
14, 9
15, 15
18, 19
8, 13
7, 18
4, 16
1, 15
8, 10
22, 21
22, 34
24, 33
30, 13
44, 44
69, 46
28, 21
29, 34
493, 483
2317, 2049
1653, 1238
236, 132
14, 15
18, 29
122, 111
369, 371
235, 176
46, 21
8, 19
14, 19
7, 14
9, 7
5, 5
2, 3
6, 1
6, 4
5, 5
12, 1
4, 1
12, 7
3, 5
5, 2
5, 3
3, 7
2, 5
5, 5
5, 4
2, 3
4, 5
4, 4
6, 4
6, 4
5, 1
1, 5
2, 4
3, 1
4, 5
0, 7
1, 2
2, 1
4, 4
0, 3
2, 4
2, 1
4, 1
4, 5
4, 4
2, 2
1, 3
3, 0
2, 0
2, 4
1, 1
4, 4
1, 6
2, 4
4, 3
3, 7
6, 5
2, 0
2, 3
2, 1
1, 1
4, 0
2, 2
0, 2
2, 4
1, 2
0, 2
0, 0
1, 2
1, 0
0, 1
0, 0
0, 1
1, 0
0, 0
1, 2
0, 1
0, 1
1, 3
2, 1
2, 0
2, 1
0, 0
0, 1
0, 1
0, 0
2, 2
0, 0
0, 0
2, 1
0, 0
0, 1
0, 1
0, 1
0, 0
0, 0
1, 0
0, 0
0, 0
0, 0
1, 0
0, 1
0, 0
0, 0
0, 0
0, 0
1, 0
0, 1
1, 1
1, 0
1, 1
0, 0
0, 0
0, 0
0, 0
0, 0
0, 0
0, 0
0, 0
0, 0
0, 1
0, 0
0, 0
1, 0
0, 0
0, 0
0, 0
0, 0
0, 0
0, 0
0, 0
0, 0
0, 0
0, 0
0, 0
0, 0
0, 0
0, 0
0, 0
0, 0
0, 1
0, 0
0, 0
0, 0
0, 0
0, 0
0, 0
0, 0
0, 0
1, 0
0, 0
0, 0
0, 0
0, 0
0, 0
0, 0
0, 0
0, 0
0, 0
0, 0
0, 0
0, 0
0, 0
0, 0
0, 0
0, 0
0, 0
0, 0
0, 0
0, 0
0, 0
0, 0
0, 0
0, 0
0, 0
0, 0
0, 0
0, 0
0, 0
0, 0
0, 0
0, 0
0, 0
0, 0
0, 0
0, 0
0, 0
0, 0
0, 0
0, 0
0, 0
0, 0
0, 0
0, 0
0, 0
0, 0
0, 0
0, 0
0, 0
0, 0
0, 0
0, 0
0, 0
0, 0
0, 0
0, 0
0, 0
0, 0
0, 0
0, 0
0, 0
0, 0
0, 0
0, 0
0, 0
0, 0
0, 0
0, 0
0, 0
0, 0
0, 0
0, 0
0, 0
0, 0
0, 0
0, 0
0, 0
0, 0
0, 0
0, 0
0, 0
0, 0
0, 0
#ENDOFDATA     end of spectrum data

File: ps__0852shot_2058.msa
#FORMAT      : EMSA/MAS spectral data file
#VERSION     : TC202v2.0 PIXL
#TITLE       : N/A
#DATE        :       Date in the format DD-MMM-YYYY, for example 07-JUL-2010
#TIME        :             The time of day at which the spectrum was recorded, in 24-hour format
#OWNER       : PIXL Flight Model       (PIXL will use this to indicate which instrument took the data.)
#NPOINTS     : 4096     Number of data points in the spectrum (This can be zero for configuration only files)
#NCOLUMNS    : 2     Number of data columns in the spectrum (This can be zero for configuration only files)
#XUNITS      : eV
#YUNITS      : COUNTS
#DATATYPE    : YY
#XPERCHAN    : 7.862, 7.881   eV per channel (separate by commas if more than one detector)
#OFFSET      : 18.5, -22.4         eV of first channel  (separate by commas if more than one detector
#SIGNALTYPE  : XRF
#YP_TEMP     : 2.203
#LIVETIME    : 8.52874, 8.49024   seconds (separate by commas if more than one detector)
#REALTIME    : 10, 10.0   seconds (separate by commas if more than one detector)
#SPECTRUM    : start of spectrum data
0, 0
0, 0
0, 0
0, 0
0, 0
0, 0
0, 0
0, 0
0, 1
2, 0
1, 1
51, 38
56, 56
9, 4
5, 2
98, 108
415, 391
94, 94
4, 4
2, 3
2, 0
2, 5
2, 5
9, 5
34, 16
44, 29
23, 18
12, 15
4, 6
4, 3
2, 0
1, 3
1, 2
7, 8
12, 9
3, 1
3, 1
4, 4
7, 9
10, 2
10, 8
13, 8
10, 16
12, 17
2, 10
6, 10
10, 8
4, 10
5, 9
14, 23
24, 40
66, 13
101, 12
87, 47
57, 58
15, 16
30, 38
480, 592
2160, 2243
1521, 1423
193, 157
10, 13
21, 34
82, 109
307, 322
236, 179
39, 31
7, 11
11, 10
18, 8
5, 4
2, 2
5, 4
4, 3
6, 6
15, 7
6, 5
5, 2
8, 9
4, 7
3, 10
4, 7
6, 2
7, 3
1, 6
5, 5
4, 2
2, 1
4, 7
1, 6
5, 8
3, 9
1, 6
2, 15
3, 4
2, 5
2, 5
2, 3
1, 1
2, 3
0, 3
3, 3
5, 3
6, 1
6, 3
5, 5
2, 1
2, 1
2, 2
4, 1
3, 1
2, 0
0, 4
2, 1
3, 2
1, 1
3, 1
3, 7
0, 2
0, 1
0, 2
1, 2
0, 0
1, 2
2, 4
1, 2
1, 1
0, 1
0, 3
0, 1
2, 0
2, 0
0, 3
1, 0
1, 0
1, 0
0, 1
0, 0
0, 0
2, 0
0, 1
0, 1
0, 1
0, 0
1, 0
1, 0
0, 0
0, 1
0, 0
0, 0
0, 0
0, 1
1, 0
1, 0
3, 0
0, 0
0, 0
0, 1
0, 0
0, 1
0, 0
0, 0
0, 0
0, 0
0, 0
0, 0
0, 0
0, 0
1, 0
0, 0
0, 0
0, 0
0, 0
0, 1
0, 0
0, 0
1, 0
0, 0
0, 0
1, 0
0, 1
0, 1
0, 0
0, 1
0, 0
0, 1
0, 0
0, 0
0, 0
1, 0
0, 0
0, 0
1, 0
0, 0
0, 0
0, 0
0, 0
0, 0
0, 0
0, 0
0, 0
0, 0
0, 0
0, 0
0, 0
0, 0
0, 0
0, 0
0, 0
0, 0
0, 0
0, 0
0, 0
0, 0
0, 0
1, 0
0, 0
0, 0
0, 0
0, 0
0, 0
0, 0
0, 0
0, 0
0, 0
0, 0
0, 0
0, 0
0, 0
0, 0
0, 0
0, 0
0, 0
0, 0
0, 0
0, 0
0, 0
0, 0
0, 0
0, 0
0, 0
0, 0
0, 0
0, 0
0, 0
0, 0
0, 0
0, 0
0, 0
0, 0
0, 0
0, 0
0, 0
0, 0
0, 0
0, 0
0, 0
0, 0
0, 0
0, 0
0, 0
0, 0
0, 0
0, 0
0, 0
0, 0
0, 0
0, 0
0, 0
0, 0
0, 0
0, 0
0, 0
0, 0
0, 0
0, 0
0, 0
0, 0
0, 0
0, 0
0, 0
0, 0
0, 0
0, 0
0, 0
0, 0
0, 0
0, 0
0, 0
0, 0
0, 0
0, 0
0, 0
0, 0
#ENDOFDATA     end of spectrum data

File: ps__0852shot_2059.msa
#FORMAT      : EMSA/MAS spectral data file
#VERSION     : TC202v2.0 PIXL
#TITLE       : N/A
#DATE        :       Date in the format DD-MMM-YYYY, for example 07-JUL-2010
#TIME        :             The time of day at which the spectrum was recorded, in 24-hour format
#OWNER       : PIXL Flight Model       (PIXL will use this to indicate which instrument took the data.)
#NPOINTS     : 4096     Number of data points in the spectrum (This can be zero for configuration only files)
#NCOLUMNS    : 2     Number of data columns in the spectrum (This can be zero for configuration only files)
#XUNITS      : eV
#YUNITS      : COUNTS
#DATATYPE    : YY
#XPERCHAN    : 7.862, 7.881   eV per channel (separate by commas if more than one detector)
#OFFSET      : 18.5, -22.4         eV of first channel  (separate by commas if more than one detector
#SIGNALTYPE  : XRF
#YP_TEMP     : 2.492
#LIVETIME    : 8.5279, 8.50346   seconds (separate by commas if more than one detector)
#REALTIME    : 10, 10.0   seconds (separate by commas if more than one detector)
#SPECTRUM    : start of spectrum data
0, 0
0, 0
0, 0
0, 0
0, 0
0, 0
0, 0
0, 0
1, 0
0, 0
4, 2
54, 43
64, 51
7, 4
2, 8
80, 102
428, 388
107, 88
5, 3
1, 1
1, 4
3, 4
1, 2
3, 2
27, 15
40, 30
22, 10
16, 18
5, 3
0, 2
1, 3
2, 0
3, 4
10, 9
12, 16
3, 4
0, 4
6, 6
18, 4
24, 2
36, 4
12, 4
16, 18
11, 19
9, 12
5, 6
4, 18
6, 12
8, 10
6, 10
20, 21
40, 2
62, 7
93, 39
71, 44
34, 20
21, 40
508, 584
2191, 2265
1638, 1450
205, 186
19, 16
14, 26
113, 103
313, 351
260, 209
36, 17
6, 3
10, 12
5, 6
4, 2
5, 5
3, 4
7, 6
8, 6
10, 5
10, 5
8, 15
8, 7
12, 8
7, 2
3, 9
0, 6
2, 1
4, 1
4, 3
2, 3
3, 2
1, 5
3, 4
4, 4
3, 6
5, 10
5, 23
3, 15
1, 9
2, 3
3, 1
1, 1
0, 4
4, 2
4, 6
6, 0
2, 0
4, 2
3, 0
4, 3
2, 1
1, 4
1, 2
2, 1
1, 3
0, 4
1, 1
2, 2
4, 1
1, 6
1, 5
2, 3
2, 2
5, 0
0, 4
0, 2
2, 1
0, 0
0, 2
0, 0
0, 1
1, 2
0, 0
2, 0
2, 0
5, 1
0, 1
0, 1
1, 0
2, 0
0, 0
0, 0
0, 1
0, 1
0, 1
0, 0
0, 0
0, 1
1, 2
0, 0
1, 1
0, 0
0, 1
1, 1
0, 2
0, 0
0, 0
2, 0
0, 0
0, 1
0, 1
0, 1
0, 0
0, 0
1, 0
0, 0
0, 0
0, 1
0, 0
0, 1
0, 0
0, 0
0, 0
0, 0
0, 0
0, 0
0, 0
0, 1
0, 0
1, 0
1, 0
0, 1
0, 0
0, 0
0, 0
0, 0
0, 0
0, 0
0, 0
0, 0
0, 0
0, 1
1, 0
0, 0
0, 0
0, 0
0, 0
0, 0
0, 0
0, 0
0, 0
0, 0
0, 0
0, 0
0, 0
0, 0
0, 0
0, 0
0, 0
0, 0
0, 0
0, 0
0, 0
0, 0
0, 0
0, 0
0, 0
0, 0
0, 0
0, 0
0, 0
0, 0
0, 0
0, 0
0, 0
0, 0
0, 0
0, 0
0, 0
0, 0
0, 0
0, 0
0, 0
0, 0
0, 0
0, 0
0, 0
0, 0
0, 0
0, 0
0, 0
0, 0
0, 0
0, 0
0, 0
0, 0
0, 0
0, 0
0, 0
0, 0
0, 0
0, 0
0, 0
0, 0
0, 0
0, 0
0, 0
0, 0
0, 0
0, 0
0, 0
0, 0
0, 0
0, 0
0, 0
0, 0
0, 0
0, 0
0, 0
0, 0
0, 0
0, 0
0, 0
0, 0
0, 0
0, 0
0, 0
0, 0
0, 0
0, 0
0, 0
0, 0
0, 0
0, 0
0, 0
0, 0
0, 0
0, 0
0, 0
0, 0
0, 0
0, 0
0, 0
0, 0
0, 0
0, 0
0, 0
#ENDOFDATA     end of spectrum data

File: ps__0852shot_2060.msa
#FORMAT      : EMSA/MAS spectral data file
#VERSION     : TC202v2.0 PIXL
#TITLE       : N/A
#DATE        :       Date in the format DD-MMM-YYYY, for example 07-JUL-2010
#TIME        :             The time of day at which the spectrum was recorded, in 24-hour format
#OWNER       : PIXL Flight Model       (PIXL will use this to indicate which instrument took the data.)
#NPOINTS     : 4096     Number of data points in the spectrum (This can be zero for configuration only files)
#NCOLUMNS    : 2     Number of data columns in the spectrum (This can be zero for configuration only files)
#XUNITS      : eV
#YUNITS      : COUNTS
#DATATYPE    : YY
#XPERCHAN    : 7.862, 7.881   eV per channel (separate by commas if more than one detector)
#OFFSET      : 18.5, -22.4         eV of first channel  (separate by commas if more than one detector
#SIGNALTYPE  : XRF
#YP_TEMP     : 2.492
#LIVETIME    : 8.54476, 8.52161   seconds (separate by commas if more than one detector)
#REALTIME    : 10, 10.0   seconds (separate by commas if more than one detector)
#SPECTRUM    : start of spectrum data
0, 0
0, 0
0, 0
0, 0
0, 0
0, 0
0, 0
0, 0
0, 0
4, 0
0, 3
57, 48
54, 60
8, 7
2, 0
99, 101
389, 424
101, 110
6, 7
0, 2
1, 0
3, 3
2, 5
2, 2
19, 16
30, 15
19, 8
14, 10
2, 8
5, 4
0, 6
2, 3
2, 3
11, 8
14, 17
4, 2
5, 6
6, 4
3, 2
23, 1
21, 4
17, 12
20, 21
8, 15
3, 11
6, 9
6, 14
5, 15
7, 7
15, 12
17, 12
15, 8
43, 6
87, 45
70, 56
19, 26
36, 23
492, 585
2063, 2256
1541, 1448
199, 175
10, 15
18, 24
94, 110
341, 326
256, 214
54, 22
11, 4
18, 17
6, 6
6, 3
3, 6
4, 10
3, 3
4, 5
7, 5
8, 8
11, 11
10, 4
24, 12
7, 8
1, 7
1, 2
2, 4
5, 1
2, 6
1, 3
2, 5
3, 3
2, 1
4, 6
7, 9
3, 9
3, 17
3, 15
4, 8
4, 3
1, 5
0, 5
2, 1
4, 5
1, 3
2, 2
1, 2
2, 2
1, 1
3, 0
2, 4
1, 4
4, 2
3, 3
2, 2
1, 4
1, 1
2, 2
5, 5
2, 3
6, 2
6, 2
2, 1
1, 2
3, 1
0, 3
1, 2
0, 1
0, 0
2, 2
0, 1
3, 0
1, 0
3, 4
3, 1
2, 0
1, 1
0, 0
0, 1
2, 0
1, 0
2, 0
1, 1
0, 0
0, 0
0, 1
0, 1
2, 2
1, 1
1, 0
2, 0
1, 1
1, 0
0, 0
2, 0
0, 0
0, 0
3, 1
0, 1
0, 0
1, 0
0, 0
0, 0
0, 1
0, 1
1, 0
0, 0
0, 0
0, 0
0, 0
1, 0
0, 0
0, 0
0, 0
0, 0
0, 0
1, 0
0, 0
0, 0
1, 0
0, 0
0, 0
0, 0
0, 0
0, 0
0, 0
0, 1
0, 0
0, 0
0, 0
0, 1
0, 0
0, 1
0, 0
0, 1
0, 0
0, 0
0, 0
0, 1
0, 0
1, 0
0, 0
0, 0
1, 0
0, 0
0, 0
0, 0
0, 0
0, 0
0, 0
0, 0
0, 0
0, 0
0, 0
0, 0
0, 0
0, 0
0, 0
0, 0
0, 0
0, 0
0, 0
0, 0
0, 0
0, 0
0, 0
0, 0
0, 0
0, 0
0, 0
0, 0
0, 0
0, 0
0, 0
0, 0
0, 0
0, 0
0, 0
0, 0
0, 0
0, 0
0, 0
0, 0
0, 0
0, 0
0, 0
0, 0
0, 0
0, 0
0, 0
0, 0
0, 0
0, 0
0, 0
0, 0
0, 0
0, 0
0, 0
0, 0
0, 0
0, 0
0, 0
0, 0
0, 0
0, 0
0, 0
0, 0
0, 0
0, 0
0, 0
0, 0
0, 0
0, 0
0, 0
0, 0
0, 0
0, 0
0, 0
0, 0
0, 0
0, 0
0, 0
0, 0
0, 0
0, 0
0, 0
0, 0
0, 0
0, 0
0, 0
0, 0
0, 0
0, 0
0, 0
0, 0
0, 0
0, 0
#ENDOFDATA     end of spectrum data

File: ps__0852shot_2061.msa
#FORMAT      : EMSA/MAS spectral data file
#VERSION     : TC202v2.0 PIXL
#TITLE       : N/A
#DATE        :       Date in the format DD-MMM-YYYY, for example 07-JUL-2010
#TIME        :             The time of day at which the spectrum was recorded, in 24-hour format
#OWNER       : PIXL Flight Model       (PIXL will use this to indicate which instrument took the data.)
#NPOINTS     : 4096     Number of data points in the spectrum (This can be zero for configuration only files)
#NCOLUMNS    : 2     Number of data columns in the spectrum (This can be zero for configuration only files)
#XUNITS      : eV
#YUNITS      : COUNTS
#DATATYPE    : YY
#XPERCHAN    : 7.862, 7.881   eV per channel (separate by commas if more than one detector)
#OFFSET      : 18.5, -22.4         eV of first channel  (separate by commas if more than one detector
#SIGNALTYPE  : XRF
#YP_TEMP     : 2.524
#LIVETIME    : 8.5559, 8.52335   seconds (separate by commas if more than one detector)
#REALTIME    : 10, 10.0   seconds (separate by commas if more than one detector)
#SPECTRUM    : start of spectrum data
0, 0
0, 0
0, 0
0, 0
0, 0
0, 0
0, 0
1, 0
1, 1
2, 1
4, 3
38, 54
82, 61
9, 5
1, 3
105, 92
450, 437
114, 98
4, 4
1, 4
1, 1
4, 4
4, 0
6, 3
15, 28
29, 22
21, 11
15, 14
3, 3
2, 0
1, 0
0, 1
3, 8
13, 19
16, 15
6, 6
3, 1
7, 3
6, 5
21, 2
40, 2
20, 5
12, 17
15, 5
8, 6
9, 5
8, 14
6, 10
11, 11
15, 18
13, 18
12, 6
46, 12
97, 50
67, 54
20, 12
35, 33
505, 593
2174, 2245
1646, 1404
199, 155
19, 12
21, 25
99, 114
336, 323
236, 169
28, 26
7, 10
10, 22
10, 4
6, 7
1, 2
4, 2
3, 8
2, 1
5, 4
7, 4
6, 3
10, 9
14, 3
5, 5
6, 10
6, 8
5, 3
5, 3
5, 2
2, 5
3, 2
6, 5
2, 2
1, 3
7, 5
10, 6
11, 16
6, 12
2, 3
1, 3
0, 5
3, 1
4, 1
2, 4
4, 2
3, 2
1, 2
3, 3
4, 0
2, 0
4, 2
0, 2
1, 4
2, 1
2, 2
1, 3
0, 2
0, 3
2, 5
7, 6
3, 3
1, 4
2, 1
1, 3
2, 0
2, 1
1, 3
1, 2
3, 0
0, 1
0, 1
2, 0
2, 0
1, 1
4, 1
0, 1
1, 0
0, 0
3, 0
2, 2
0, 0
0, 3
1, 1
0, 0
0, 2
1, 0
0, 1
1, 0
0, 0
1, 0
0, 0
0, 0
0, 0
0, 1
1, 0
0, 1
0, 0
0, 0
0, 0
1, 1
0, 0
0, 0
0, 0
0, 0
0, 1
1, 1
0, 0
1, 0
0, 0
0, 1
0, 0
0, 0
0, 0
1, 0
0, 0
0, 0
0, 1
0, 1
0, 0
0, 0
0, 0
0, 0
1, 0
0, 0
0, 0
2, 0
0, 0
0, 0
0, 0
0, 0
0, 0
0, 1
0, 0
0, 0
0, 0
0, 0
0, 0
0, 0
0, 0
0, 0
0, 0
0, 0
0, 0
0, 0
0, 0
0, 0
0, 0
0, 0
0, 0
0, 0
0, 0
0, 0
0, 0
0, 0
0, 0
0, 0
0, 0
0, 0
0, 0
0, 0
0, 0
0, 0
0, 0
0, 0
0, 0
0, 0
0, 0
0, 0
0, 0
0, 0
0, 0
0, 0
0, 0
0, 0
0, 0
0, 0
0, 0
0, 0
0, 0
0, 0
0, 0
0, 0
0, 0
0, 0
0, 0
0, 0
0, 1
0, 0
0, 0
0, 0
0, 0
0, 0
0, 0
0, 0
0, 0
0, 0
0, 0
0, 0
0, 0
0, 0
0, 0
0, 0
0, 0
0, 0
0, 0
0, 0
0, 0
0, 0
0, 0
0, 0
0, 0
0, 0
0, 0
0, 0
0, 0
0, 0
0, 0
0, 0
0, 0
0, 0
0, 0
0, 0
0, 0
0, 0
0, 0
0, 0
0, 0
0, 0
0, 0
0, 0
0, 0
0, 0
0, 0
0, 0
0, 0
0, 0
0, 0
#ENDOFDATA     end of spectrum data

File: ps__0852shot_2062.msa
#FORMAT      : EMSA/MAS spectral data file
#VERSION     : TC202v2.0 PIXL
#TITLE       : N/A
#DATE        :       Date in the format DD-MMM-YYYY, for example 07-JUL-2010
#TIME        :             The time of day at which the spectrum was recorded, in 24-hour format
#OWNER       : PIXL Flight Model       (PIXL will use this to indicate which instrument took the data.)
#NPOINTS     : 4096     Number of data points in the spectrum (This can be zero for configuration only files)
#NCOLUMNS    : 2     Number of data columns in the spectrum (This can be zero for configuration only files)
#XUNITS      : eV
#YUNITS      : COUNTS
#DATATYPE    : YY
#XPERCHAN    : 7.862, 7.881   eV per channel (separate by commas if more than one detector)
#OFFSET      : 18.5, -22.4         eV of first channel  (separate by commas if more than one detector
#SIGNALTYPE  : XRF
#YP_TEMP     : 2.171
#LIVETIME    : 8.5649, 8.3597   seconds (separate by commas if more than one detector)
#REALTIME    : 10, 10.0   seconds (separate by commas if more than one detector)
#SPECTRUM    : start of spectrum data
0, 0
0, 0
0, 0
0, 0
0, 0
0, 0
0, 0
0, 0
0, 1
1, 1
2, 3
56, 49
67, 52
5, 8
6, 5
101, 88
399, 398
96, 112
2, 2
1, 2
2, 2
2, 3
2, 3
5, 7
21, 22
31, 23
23, 15
19, 11
5, 5
1, 2
0, 0
1, 3
3, 5
5, 14
10, 10
2, 1
2, 4
3, 5
5, 1
22, 6
31, 1
6, 8
13, 7
10, 5
12, 4
37, 8
36, 10
12, 4
8, 19
15, 62
8, 39
14, 11
26, 20
77, 38
75, 55
18, 24
34, 44
496, 580
2128, 2279
1536, 1399
179, 156
14, 18
17, 15
106, 115
311, 356
238, 195
43, 26
21, 7
39, 11
21, 4
14, 6
4, 1
3, 7
4, 3
4, 4
4, 11
2, 4
2, 5
6, 5
6, 8
7, 4
4, 12
2, 4
1, 1
3, 7
2, 6
2, 5
3, 3
5, 4
4, 2
9, 1
8, 4
7, 5
2, 6
2, 5
4, 2
3, 3
3, 3
0, 7
2, 2
3, 2
2, 6
2, 3
0, 2
1, 0
7, 0
1, 0
2, 1
4, 1
0, 0
3, 0
1, 3
0, 2
1, 1
2, 2
1, 1
1, 5
4, 6
0, 3
1, 0
1, 1
0, 2
1, 2
1, 3
3, 0
1, 3
2, 0
0, 1
0, 0
1, 2
3, 1
2, 1
0, 0
0, 0
1, 0
2, 0
0, 0
0, 1
0, 0
1, 0
0, 1
1, 1
0, 0
1, 1
2, 0
0, 0
0, 3
0, 0
0, 0
0, 0
1, 0
0, 0
0, 0
0, 0
0, 0
1, 0
0, 1
1, 0
1, 0
0, 0
0, 0
0, 0
0, 0
1, 0
0, 0
0, 0
0, 0
0, 1
0, 0
0, 0
0, 0
0, 0
1, 0
1, 0
1, 0
0, 0
0, 0
0, 0
0, 0
0, 1
0, 0
1, 0
0, 0
1, 0
0, 0
0, 0
0, 0
0, 0
0, 0
0, 0
0, 0
0, 0
0, 0
0, 0
0, 0
0, 0
0, 0
0, 0
0, 0
0, 0
0, 0
0, 0
0, 0
0, 0
0, 0
0, 0
0, 0
0, 0
0, 0
0, 0
0, 0
0, 0
0, 0
0, 0
0, 0
0, 0
0, 0
0, 0
0, 0
0, 0
0, 0
0, 0
0, 0
0, 0
0, 0
0, 0
0, 0
0, 0
0, 0
0, 0
0, 0
0, 0
0, 0
0, 0
0, 0
0, 0
0, 0
0, 0
0, 0
0, 0
0, 0
0, 0
0, 0
0, 0
0, 0
0, 0
0, 0
0, 0
0, 0
0, 0
0, 0
0, 0
0, 0
0, 0
0, 0
0, 0
0, 0
0, 0
0, 0
0, 0
0, 0
0, 0
0, 0
0, 0
0, 0
0, 0
0, 0
0, 0
0, 0
0, 0
0, 0
0, 0
0, 0
0, 0
0, 0
0, 0
0, 0
0, 0
0, 0
0, 0
0, 0
0, 0
0, 0
0, 0
0, 0
0, 0
0, 0
0, 0
0, 0
0, 0
0, 0
0, 0
0, 0
0, 0
#ENDOFDATA     end of spectrum data