Folder: data-repository/host_upload/06-09-2024/ps_0852/dump3 (part 45)

File: ps__0852shot_2401.msa
#FORMAT      : EMSA/MAS spectral data file
#VERSION     : TC202v2.0 PIXL
#TITLE       : N/A
#DATE        :       Date in the format DD-MMM-YYYY, for example 07-JUL-2010
#TIME        :             The time of day at which the spectrum was recorded, in 24-hour format
#OWNER       : PIXL Flight Model       (PIXL will use this to indicate which instrument took the data.)
#NPOINTS     : 4096     Number of data points in the spectrum (This can be zero for configuration only files)
#NCOLUMNS    : 2     Number of data columns in the spectrum (This can be zero for configuration only files)
#XUNITS      : eV
#YUNITS      : COUNTS
#DATATYPE    : YY
#XPERCHAN    : 7.862, 7.881   eV per channel (separate by commas if more than one detector)
#OFFSET      : 18.5, -22.4         eV of first channel  (separate by commas if more than one detector
#SIGNALTYPE  : XRF
#YP_TEMP     : 2.492
#LIVETIME    : 8.57796, 8.56326   seconds (separate by commas if more than one detector)
#REALTIME    : 10, 10.0   seconds (separate by commas if more than one detector)
#SPECTRUM    : start of spectrum data
0, 0
0, 0
0, 0
0, 0
0, 0
0, 0
0, 0
0, 0
1, 1
1, 4
1, 1
51, 50
73, 66
3, 5
4, 8
98, 101
437, 387
102, 90
8, 5
1, 0
1, 2
1, 4
1, 0
4, 4
26, 41
33, 60
20, 15
10, 11
9, 4
0, 3
1, 2
2, 1
6, 2
20, 17
21, 15
6, 6
6, 4
17, 6
18, 5
24, 11
9, 8
11, 9
9, 14
8, 12
4, 7
5, 7
2, 17
8, 6
6, 7
12, 13
15, 10
28, 8
36, 48
33, 91
61, 59
20, 23
36, 32
496, 608
2254, 2237
1656, 1341
225, 116
13, 22
12, 22
109, 116
357, 329
232, 207
30, 35
11, 27
17, 18
7, 13
9, 2
4, 1
5, 3
3, 11
6, 20
10, 41
9, 20
8, 5
6, 2
1, 3
7, 2
5, 5
4, 10
1, 8
4, 9
5, 2
6, 3
15, 4
7, 4
0, 6
2, 0
3, 6
2, 3
0, 3
2, 1
4, 3
9, 2
8, 1
5, 2
4, 3
4, 4
1, 1
6, 1
2, 6
1, 2
2, 8
0, 0
2, 1
3, 2
1, 0
2, 1
1, 0
3, 0
3, 2
0, 0
2, 2
6, 3
4, 1
3, 0
5, 3
1, 2
2, 1
3, 4
2, 3
1, 3
3, 0
0, 1
4, 4
0, 4
0, 1
3, 1
1, 2
1, 3
1, 1
1, 0
0, 0
1, 0
0, 0
0, 0
0, 0
0, 0
0, 1
0, 3
0, 1
0, 0
1, 0
0, 1
0, 0
1, 0
1, 0
0, 0
0, 1
0, 2
0, 0
2, 0
0, 1
0, 1
0, 1
1, 0
0, 0
0, 0
0, 0
0, 0
1, 0
1, 0
0, 0
0, 2
0, 0
0, 0
1, 0
1, 0
1, 1
1, 2
1, 0
1, 0
0, 1
2, 0
0, 0
0, 0
0, 0
0, 0
0, 0
0, 0
0, 0
0, 0
0, 0
0, 0
0, 0
0, 0
0, 0
0, 0
0, 0
0, 0
0, 0
0, 0
0, 0
0, 1
0, 0
0, 0
0, 0
0, 0
0, 0
1, 0
0, 0
0, 0
0, 0
0, 0
0, 0
0, 0
0, 0
0, 0
0, 0
0, 0
0, 0
0, 0
0, 0
0, 0
0, 0
0, 0
0, 0
0, 0
0, 0
0, 0
0, 0
0, 0
0, 0
0, 0
0, 0
0, 0
0, 0
0, 0
0, 0
0, 0
0, 0
0, 0
0, 0
0, 0
0, 0
0, 0
0, 0
0, 0
0, 0
0, 0
0, 0
0, 0
0, 0
0, 0
0, 0
0, 0
0, 0
0, 0
0, 0
0, 0
0, 0
0, 0
0, 0
0, 0
0, 0
0, 0
0, 0
0, 0
0, 0
0, 0
0, 0
0, 0
0, 0
0, 0
0, 0
0, 0
0, 0
0, 0
0, 0
0, 0
0, 0
0, 0
0, 0
0, 0
0, 0
0, 0
0, 0
0, 0
0, 0
0, 0
0, 0
0, 0
0, 0
0, 0
0, 0
0, 0
0, 0
0, 0
0, 0
0, 0
0, 0
#ENDOFDATA     end of spectrum data

File: ps__0852shot_2402.msa
#FORMAT      : EMSA/MAS spectral data file
#VERSION     : TC202v2.0 PIXL
#TITLE       : N/A
#DATE        :       Date in the format DD-MMM-YYYY, for example 07-JUL-2010
#TIME        :             The time of day at which the spectrum was recorded, in 24-hour format
#OWNER       : PIXL Flight Model       (PIXL will use this to indicate which instrument took the data.)
#NPOINTS     : 4096     Number of data points in the spectrum (This can be zero for configuration only files)
#NCOLUMNS    : 2     Number of data columns in the spectrum (This can be zero for configuration only files)
#XUNITS      : eV
#YUNITS      : COUNTS
#DATATYPE    : YY
#XPERCHAN    : 7.862, 7.881   eV per channel (separate by commas if more than one detector)
#OFFSET      : 18.5, -22.4         eV of first channel  (separate by commas if more than one detector
#SIGNALTYPE  : XRF
#YP_TEMP     : 2.3
#LIVETIME    : 8.55662, 8.54817   seconds (separate by commas if more than one detector)
#REALTIME    : 10, 10.0   seconds (separate by commas if more than one detector)
#SPECTRUM    : start of spectrum data
0, 0
0, 0
0, 0
0, 0
0, 0
0, 0
0, 0
0, 0
0, 1
0, 1
2, 5
60, 47
75, 73
7, 5
2, 4
90, 100
492, 460
138, 99
5, 8
3, 1
1, 0
6, 6
5, 5
5, 8
28, 36
52, 49
20, 29
13, 17
6, 8
0, 0
0, 2
2, 1
4, 5
15, 15
21, 22
8, 11
5, 6
7, 12
15, 6
10, 8
12, 2
7, 10
15, 13
13, 19
6, 10
9, 8
5, 10
4, 10
9, 13
17, 13
14, 12
10, 15
14, 30
46, 64
59, 74
18, 16
34, 34
460, 599
2184, 2360
1611, 1366
196, 141
23, 16
28, 32
109, 117
357, 352
243, 198
29, 38
11, 23
13, 17
5, 7
7, 2
2, 4
4, 6
1, 6
5, 16
8, 23
8, 9
9, 6
12, 2
1, 5
5, 2
3, 5
5, 1
4, 6
4, 6
2, 2
5, 9
9, 8
7, 2
3, 2
2, 5
5, 2
6, 4
1, 1
2, 7
8, 1
6, 2
5, 1
3, 6
2, 2
0, 5
7, 2
3, 3
3, 1
3, 3
4, 2
1, 2
3, 1
4, 4
2, 4
1, 0
2, 4
1, 1
3, 2
1, 3
6, 3
4, 7
2, 1
3, 2
2, 1
0, 1
1, 1
2, 5
1, 3
1, 2
0, 0
2, 0
0, 3
1, 1
1, 2
0, 3
1, 2
3, 1
3, 0
2, 2
1, 0
2, 0
2, 0
0, 0
0, 2
1, 0
0, 1
1, 1
0, 0
1, 0
0, 0
0, 0
1, 1
1, 1
1, 1
1, 0
0, 0
2, 0
0, 0
0, 0
0, 0
2, 3
0, 0
0, 0
0, 0
1, 0
1, 2
0, 0
1, 0
1, 1
0, 1
0, 0
0, 0
1, 0
0, 0
1, 0
0, 0
0, 0
0, 0
0, 0
0, 0
0, 0
0, 0
0, 0
0, 0
0, 0
0, 0
0, 0
0, 0
1, 0
0, 0
0, 0
0, 0
0, 0
0, 0
0, 0
0, 1
0, 0
0, 0
0, 0
0, 0
0, 0
0, 0
0, 0
0, 1
0, 0
0, 0
1, 0
0, 0
0, 1
0, 0
0, 0
0, 0
0, 0
0, 0
0, 0
0, 0
0, 0
0, 0
0, 0
0, 0
0, 0
0, 0
0, 0
0, 0
0, 0
0, 0
0, 0
0, 0
0, 0
0, 0
0, 0
0, 0
0, 0
0, 0
0, 0
0, 0
0, 0
0, 0
0, 0
0, 0
0, 0
0, 0
0, 0
0, 0
0, 0
0, 0
0, 0
0, 0
0, 0
0, 0
0, 0
0, 0
0, 0
0, 0
0, 0
0, 0
0, 0
0, 0
0, 0
0, 0
0, 0
0, 0
0, 0
0, 0
0, 0
0, 0
0, 0
0, 0
0, 0
0, 0
0, 0
0, 0
0, 0
0, 0
0, 0
0, 0
0, 0
0, 0
0, 0
0, 0
0, 0
0, 0
0, 0
0, 0
0, 0
0, 0
0, 0
0, 0
0, 0
0, 0
0, 0
0, 0
0, 0
0, 0
0, 0
0, 0
0, 0
0, 0
#ENDOFDATA     end of spectrum data

File: ps__0852shot_2403.msa
#FORMAT      : EMSA/MAS spectral data file
#VERSION     : TC202v2.0 PIXL
#TITLE       : N/A
#DATE        :       Date in the format DD-MMM-YYYY, for example 07-JUL-2010
#TIME        :             The time of day at which the spectrum was recorded, in 24-hour format
#OWNER       : PIXL Flight Model       (PIXL will use this to indicate which instrument took the data.)
#NPOINTS     : 4096     Number of data points in the spectrum (This can be zero for configuration only files)
#NCOLUMNS    : 2     Number of data columns in the spectrum (This can be zero for configuration only files)
#XUNITS      : eV
#YUNITS      : COUNTS
#DATATYPE    : YY
#XPERCHAN    : 7.862, 7.881   eV per channel (separate by commas if more than one detector)
#OFFSET      : 18.5, -22.4         eV of first channel  (separate by commas if more than one detector
#SIGNALTYPE  : XRF
#YP_TEMP     : 2.3
#LIVETIME    : 8.56358, 8.53622   seconds (separate by commas if more than one detector)
#REALTIME    : 10, 10.0   seconds (separate by commas if more than one detector)
#SPECTRUM    : start of spectrum data
0, 0
0, 0
0, 0
0, 0
0, 0
0, 0
0, 0
1, 0
1, 2
3, 0
4, 3
59, 51
58, 51
3, 2
5, 1
100, 83
439, 428
111, 100
3, 6
3, 2
4, 2
2, 6
6, 9
9, 11
55, 31
84, 48
20, 25
8, 15
4, 4
4, 1
5, 1
1, 3
17, 4
47, 29
52, 41
9, 12
5, 15
14, 16
7, 7
10, 9
9, 8
8, 9
11, 19
18, 9
5, 14
9, 12
5, 10
9, 15
9, 14
24, 18
27, 17
25, 9
33, 15
47, 44
52, 50
22, 21
25, 43
501, 533
2232, 2231
1673, 1344
201, 137
19, 26
24, 27
97, 124
346, 337
220, 162
31, 46
10, 22
18, 20
10, 8
4, 8
5, 6
5, 6
3, 6
4, 5
9, 11
6, 10
7, 2
10, 8
3, 3
3, 5
4, 3
4, 5
6, 0
4, 5
7, 4
8, 5
7, 4
8, 8
7, 6
3, 5
4, 4
0, 6
4, 1
6, 1
3, 2
2, 4
3, 1
1, 4
2, 1
3, 4
1, 2
2, 4
4, 4
5, 1
0, 4
0, 4
3, 4
2, 0
3, 1
4, 5
3, 3
0, 1
2, 0
0, 1
2, 2
7, 6
3, 2
2, 3
0, 3
1, 2
3, 1
5, 0
0, 3
1, 0
3, 0
2, 1
0, 2
0, 0
0, 0
1, 2
0, 2
0, 2
2, 0
2, 0
0, 0
0, 0
0, 0
1, 0
2, 0
0, 0
1, 1
0, 0
0, 2
0, 0
2, 1
0, 1
0, 0
1, 2
1, 0
2, 0
1, 0
0, 0
0, 0
0, 0
1, 1
0, 0
1, 0
1, 0
0, 0
0, 0
0, 0
0, 0
0, 0
0, 0
0, 0
1, 0
0, 0
0, 0
1, 0
0, 0
0, 0
0, 1
0, 1
0, 0
0, 0
1, 1
0, 0
0, 0
0, 0
0, 0
0, 0
0, 1
0, 0
0, 0
0, 0
0, 0
0, 0
0, 0
0, 0
1, 0
0, 0
0, 0
0, 0
0, 0
0, 0
0, 0
0, 1
0, 0
0, 0
0, 0
0, 0
0, 0
0, 0
0, 0
0, 0
0, 0
0, 0
0, 0
0, 0
0, 0
0, 0
0, 0
0, 0
0, 0
0, 0
0, 0
0, 0
0, 0
0, 0
0, 0
0, 0
0, 0
0, 0
0, 0
0, 0
0, 0
0, 0
0, 0
0, 0
0, 0
0, 0
0, 0
0, 0
0, 0
0, 0
0, 0
0, 0
0, 0
0, 0
0, 0
0, 0
0, 0
0, 0
0, 0
0, 0
0, 0
0, 0
0, 0
0, 0
0, 0
0, 0
0, 0
0, 0
0, 0
0, 0
0, 0
0, 0
0, 0
0, 0
0, 0
0, 0
0, 0
0, 0
0, 0
0, 0
0, 0
0, 0
0, 0
0, 0
0, 0
0, 0
0, 0
0, 0
0, 0
0, 0
0, 0
0, 0
0, 0
0, 0
0, 0
0, 0
0, 0
0, 0
0, 0
0, 0
0, 0
0, 0
0, 0
0, 0
0, 0
0, 0
0, 0
0, 0
#ENDOFDATA     end of spectrum data

File: ps__0852shot_2404.msa
#FORMAT      : EMSA/MAS spectral data file
#VERSION     : TC202v2.0 PIXL
#TITLE       : N/A
#DATE        :       Date in the format DD-MMM-YYYY, for example 07-JUL-2010
#TIME        :             The time of day at which the spectrum was recorded, in 24-hour format
#OWNER       : PIXL Flight Model       (PIXL will use this to indicate which instrument took the data.)
#NPOINTS     : 4096     Number of data points in the spectrum (This can be zero for configuration only files)
#NCOLUMNS    : 2     Number of data columns in the spectrum (This can be zero for configuration only files)
#XUNITS      : eV
#YUNITS      : COUNTS
#DATATYPE    : YY
#XPERCHAN    : 7.862, 7.881   eV per channel (separate by commas if more than one detector)
#OFFSET      : 18.5, -22.4         eV of first channel  (separate by commas if more than one detector
#SIGNALTYPE  : XRF
#YP_TEMP     : 2.3
#LIVETIME    : 8.54413, 8.5438   seconds (separate by commas if more than one detector)
#REALTIME    : 10, 10.0   seconds (separate by commas if more than one detector)
#SPECTRUM    : start of spectrum data
0, 0
0, 0
0, 0
0, 0
0, 0
0, 0
1, 0
1, 0
0, 1
2, 2
2, 3
50, 36
70, 60
4, 4
14, 3
123, 98
438, 404
142, 89
6, 2
3, 1
6, 3
6, 7
5, 3
8, 4
36, 33
45, 30
17, 20
9, 11
8, 3
4, 6
1, 2
3, 2
16, 0
22, 10
28, 16
17, 6
12, 9
11, 3
9, 6
6, 9
5, 8
8, 5
21, 12
13, 9
8, 3
4, 13
9, 18
6, 16
12, 12
20, 19
31, 11
98, 10
95, 13
53, 44
52, 54
30, 18
19, 33
527, 560
2295, 2197
1694, 1346
179, 134
21, 32
23, 30
108, 96
351, 337
231, 173
29, 21
12, 13
11, 10
9, 7
8, 7
2, 0
5, 3
5, 2
8, 11
5, 8
4, 7
3, 12
6, 4
4, 2
5, 5
5, 2
7, 4
3, 2
3, 2
4, 2
10, 1
7, 0
3, 7
1, 3
2, 7
8, 9
0, 12
4, 11
3, 5
3, 1
6, 0
2, 1
5, 2
3, 2
3, 3
2, 1
1, 1
1, 3
3, 1
2, 3
4, 2
2, 0
6, 0
4, 1
1, 4
0, 2
3, 1
2, 0
4, 3
4, 2
1, 2
5, 3
2, 4
2, 1
2, 1
4, 3
2, 2
3, 1
1, 1
3, 1
1, 6
4, 0
3, 0
0, 2
1, 3
0, 2
1, 2
1, 1
2, 0
2, 1
1, 0
1, 0
3, 2
0, 0
0, 0
2, 0
0, 1
1, 1
3, 0
0, 2
0, 0
0, 1
0, 0
0, 0
0, 0
0, 1
0, 0
1, 1
0, 0
0, 0
2, 0
0, 0
0, 0
0, 0
0, 0
0, 0
0, 0
2, 0
0, 0
0, 1
0, 0
0, 0
1, 0
0, 0
1, 0
1, 0
0, 0
0, 0
0, 0
0, 1
0, 0
0, 0
0, 0
0, 1
0, 0
0, 0
0, 0
0, 0
0, 0
0, 0
0, 1
0, 0
0, 0
0, 0
0, 0
0, 0
1, 0
0, 0
1, 0
0, 0
0, 0
0, 0
0, 0
0, 0
0, 0
0, 0
0, 0
0, 0
1, 0
0, 0
0, 0
0, 0
1, 0
0, 0
0, 0
0, 0
0, 0
0, 1
0, 0
0, 0
0, 0
0, 0
0, 0
0, 0
0, 0
0, 0
0, 0
0, 0
0, 0
0, 0
0, 0
0, 0
0, 0
0, 0
0, 0
0, 0
0, 0
0, 0
0, 0
0, 0
0, 0
0, 0
0, 0
0, 0
0, 0
0, 0
0, 0
0, 0
0, 0
0, 0
0, 0
0, 0
0, 0
0, 0
0, 0
0, 0
0, 0
0, 0
0, 0
0, 0
0, 0
0, 0
0, 0
0, 0
0, 0
0, 0
0, 0
0, 0
0, 0
0, 0
0, 0
0, 0
0, 0
0, 0
0, 0
0, 0
0, 0
0, 0
0, 0
0, 0
0, 0
0, 0
0, 0
0, 0
0, 0
0, 0
0, 0
0, 0
0, 0
0, 0
0, 0
0, 0
0, 0
0, 0
0, 0
0, 0
0, 0
0, 0
#ENDOFDATA     end of spectrum data

File: ps__0852shot_2405.msa
#FORMAT      : EMSA/MAS spectral data file
#VERSION     : TC202v2.0 PIXL
#TITLE       : N/A
#DATE        :       Date in the format DD-MMM-YYYY, for example 07-JUL-2010
#TIME        :             The time of day at which the spectrum was recorded, in 24-hour format
#OWNER       : PIXL Flight Model       (PIXL will use this to indicate which instrument took the data.)
#NPOINTS     : 4096     Number of data points in the spectrum (This can be zero for configuration only files)
#NCOLUMNS    : 2     Number of data columns in the spectrum (This can be zero for configuration only files)
#XUNITS      : eV
#YUNITS      : COUNTS
#DATATYPE    : YY
#XPERCHAN    : 7.862, 7.881   eV per channel (separate by commas if more than one detector)
#OFFSET      : 18.5, -22.4         eV of first channel  (separate by commas if more than one detector
#SIGNALTYPE  : XRF
#YP_TEMP     : 2.235
#LIVETIME    : 8.55815, 8.56058   seconds (separate by commas if more than one detector)
#REALTIME    : 10, 10.0   seconds (separate by commas if more than one detector)
#SPECTRUM    : start of spectrum data
0, 0
0, 0
0, 0
0, 0
0, 0
0, 0
0, 0
0, 1
0, 1
0, 4
2, 1
46, 48
70, 52
3, 3
3, 1
108, 85
450, 400
110, 77
2, 4
2, 0
1, 3
2, 1
1, 2
9, 12
21, 62
28, 73
17, 12
14, 9
2, 5
1, 2
1, 2
5, 1
7, 2
16, 9
15, 15
25, 1
74, 4
50, 7
14, 70
2, 103
1, 44
8, 13
12, 11
11, 9
3, 10
4, 6
4, 17
7, 16
15, 3
21, 8
29, 7
104, 6
109, 11
42, 58
61, 70
24, 25
53, 42
490, 509
2290, 2198
1701, 1306
220, 137
19, 26
26, 36
103, 116
377, 328
240, 174
31, 29
12, 20
11, 24
14, 13
4, 4
7, 3
3, 7
9, 3
9, 11
6, 9
5, 5
5, 9
6, 8
5, 2
7, 4
4, 5
8, 9
4, 4
5, 4
6, 2
5, 3
5, 2
4, 3
4, 4
1, 2
3, 9
4, 18
1, 6
9, 7
9, 4
7, 4
3, 3
2, 3
7, 0
2, 4
1, 1
2, 1
3, 2
2, 0
3, 2
3, 4
7, 2
6, 3
4, 1
3, 3
1, 2
2, 4
3, 4
4, 2
2, 0
5, 0
6, 7
2, 0
1, 0
1, 1
0, 2
1, 2
3, 1
3, 0
1, 1
0, 1
1, 0
3, 1
0, 1
2, 0
0, 1
2, 0
0, 2
1, 0
1, 0
1, 2
1, 0
0, 1
1, 0
1, 1
0, 0
1, 1
1, 1
0, 0
1, 0
0, 1
2, 0
0, 0
1, 0
0, 0
0, 1
0, 0
1, 0
0, 0
2, 1
0, 1
1, 0
0, 0
0, 0
0, 0
0, 0
2, 0
0, 0
0, 0
1, 0
0, 0
0, 0
1, 1
0, 0
0, 0
2, 0
0, 0
0, 0
1, 0
1, 1
0, 0
0, 0
0, 0
0, 0
0, 0
0, 0
0, 0
0, 0
0, 2
0, 0
0, 0
0, 0
0, 0
0, 0
0, 0
0, 0
0, 0
0, 0
0, 0
0, 0
0, 0
0, 0
0, 0
0, 0
0, 0
0, 0
0, 0
0, 0
0, 0
0, 0
0, 0
0, 0
0, 0
0, 0
0, 0
0, 0
0, 0
0, 0
0, 0
0, 0
0, 0
0, 0
0, 0
0, 0
0, 0
0, 0
0, 0
0, 0
0, 0
0, 0
0, 0
0, 0
0, 0
0, 0
0, 0
0, 0
0, 0
0, 0
0, 0
0, 0
0, 0
0, 0
0, 0
0, 0
0, 0
0, 0
0, 0
0, 0
0, 0
0, 0
0, 0
0, 0
1, 0
0, 0
0, 0
0, 0
0, 0
0, 0
0, 0
0, 0
0, 0
0, 0
0, 0
0, 0
0, 0
0, 0
0, 0
0, 0
0, 0
0, 0
0, 0
0, 0
0, 0
0, 0
0, 0
0, 0
0, 0
0, 0
0, 0
0, 0
0, 0
0, 0
0, 0
0, 0
0, 0
0, 0
0, 0
0, 0
0, 0
0, 0
0, 0
0, 0
0, 0
0, 0
0, 0
0, 0
0, 0
0, 0
#ENDOFDATA     end of spectrum data

File: ps__0852shot_2406.msa
#FORMAT      : EMSA/MAS spectral data file
#VERSION     : TC202v2.0 PIXL
#TITLE       : N/A
#DATE        :       Date in the format DD-MMM-YYYY, for example 07-JUL-2010
#TIME        :             The time of day at which the spectrum was recorded, in 24-hour format
#OWNER       : PIXL Flight Model       (PIXL will use this to indicate which instrument took the data.)
#NPOINTS     : 4096     Number of data points in the spectrum (This can be zero for configuration only files)
#NCOLUMNS    : 2     Number of data columns in the spectrum (This can be zero for configuration only files)
#XUNITS      : eV
#YUNITS      : COUNTS
#DATATYPE    : YY
#XPERCHAN    : 7.862, 7.881   eV per channel (separate by commas if more than one detector)
#OFFSET      : 18.5, -22.4         eV of first channel  (separate by commas if more than one detector
#SIGNALTYPE  : XRF
#YP_TEMP     : 2.524
#LIVETIME    : 8.56934, 8.55911   seconds (separate by commas if more than one detector)
#REALTIME    : 10, 10.0   seconds (separate by commas if more than one detector)
#SPECTRUM    : start of spectrum data
0, 0
0, 0
0, 0
0, 0
0, 0
0, 0
0, 0
0, 0
0, 2
1, 9
0, 5
46, 49
49, 69
1, 4
2, 2
92, 91
429, 450
106, 95
8, 7
1, 1
5, 0
7, 5
4, 11
14, 35
26, 313
41, 391
18, 49
5, 13
5, 4
2, 2
2, 2
2, 2
4, 2
12, 10
12, 10
19, 7
109, 5
122, 13
10, 137
3, 241
4, 45
8, 13
12, 17
12, 15
13, 7
5, 17
3, 21
7, 10
2, 6
8, 18
25, 11
62, 11
45, 10
59, 87
52, 69
19, 18
27, 35
473, 581
2161, 2172
1675, 1344
203, 124
18, 19
21, 25
109, 116
330, 329
225, 175
31, 27
7, 31
8, 25
13, 16
7, 3
4, 4
6, 6
12, 8
13, 6
8, 7
4, 4
5, 10
2, 10
2, 6
7, 2
6, 14
8, 7
5, 3
3, 3
9, 5
4, 1
8, 1
3, 1
2, 5
2, 4
2, 6
4, 7
3, 1
2, 0
12, 3
9, 4
10, 3
5, 1
3, 1
3, 4
0, 1
1, 3
1, 4
5, 4
1, 2
0, 3
2, 9
5, 2
5, 2
2, 2
1, 1
3, 0
1, 2
2, 2
1, 3
5, 4
4, 1
2, 2
2, 2
1, 2
1, 2
4, 1
1, 1
2, 1
2, 0
1, 0
0, 0
3, 1
1, 0
0, 0
0, 3
2, 2
1, 0
0, 0
2, 1
2, 2
0, 1
1, 0
3, 2
0, 1
0, 1
0, 0
2, 0
0, 0
0, 1
1, 1
0, 0
0, 0
1, 1
0, 0
0, 0
0, 0
0, 1
0, 0
0, 0
0, 0
1, 0
0, 0
0, 0
0, 0
1, 0
0, 0
0, 0
0, 0
0, 0
0, 1
2, 0
1, 0
1, 1
0, 0
0, 0
2, 1
0, 0
0, 0
0, 0
0, 0
0, 0
1, 0
0, 0
0, 0
0, 0
0, 1
0, 0
0, 0
0, 0
0, 0
0, 1
0, 0
0, 0
0, 0
0, 0
0, 0
1, 0
0, 0
0, 0
0, 0
0, 0
0, 0
0, 0
0, 0
0, 0
0, 0
0, 0
1, 0
0, 0
0, 0
0, 0
0, 0
0, 0
0, 0
0, 0
0, 0
0, 0
0, 0
0, 0
0, 0
0, 0
0, 0
0, 0
0, 0
0, 0
0, 0
0, 0
0, 0
0, 0
0, 0
0, 0
0, 0
0, 0
0, 0
0, 0
0, 0
0, 0
0, 0
0, 0
0, 0
0, 0
0, 0
0, 0
0, 0
0, 0
0, 0
0, 0
0, 0
0, 0
0, 0
0, 0
0, 0
0, 0
0, 0
0, 0
0, 0
0, 0
0, 0
0, 0
0, 0
0, 0
0, 0
0, 0
0, 0
0, 0
0, 0
0, 0
0, 0
0, 0
0, 0
0, 0
0, 0
0, 0
0, 0
0, 0
0, 0
0, 0
0, 0
0, 0
0, 0
0, 0
0, 0
0, 0
0, 0
0, 0
0, 0
0, 0
0, 0
0, 0
0, 0
0, 0
0, 0
0, 0
0, 0
0, 0
0, 0
0, 0
#ENDOFDATA     end of spectrum data

File: ps__0852shot_2407.msa
#FORMAT      : EMSA/MAS spectral data file
#VERSION     : TC202v2.0 PIXL
#TITLE       : N/A
#DATE        :       Date in the format DD-MMM-YYYY, for example 07-JUL-2010
#TIME        :             The time of day at which the spectrum was recorded, in 24-hour format
#OWNER       : PIXL Flight Model       (PIXL will use this to indicate which instrument took the data.)
#NPOINTS     : 4096     Number of data points in the spectrum (This can be zero for configuration only files)
#NCOLUMNS    : 2     Number of data columns in the spectrum (This can be zero for configuration only files)
#XUNITS      : eV
#YUNITS      : COUNTS
#DATATYPE    : YY
#XPERCHAN    : 7.862, 7.881   eV per channel (separate by commas if more than one detector)
#OFFSET      : 18.5, -22.4         eV of first channel  (separate by commas if more than one detector
#SIGNALTYPE  : XRF
#YP_TEMP     : 2.332
#LIVETIME    : 8.57049, 8.56641   seconds (separate by commas if more than one detector)
#REALTIME    : 10, 10.0   seconds (separate by commas if more than one detector)
#SPECTRUM    : start of spectrum data
0, 0
0, 0
0, 0
0, 0
0, 0
0, 0
0, 0
0, 0
0, 3
0, 6
3, 2
47, 48
52, 54
9, 4
1, 3
85, 115
413, 487
96, 108
6, 5
0, 3
1, 1
4, 7
1, 15
7, 44
35, 227
39, 279
21, 35
16, 14
3, 4
3, 3
2, 3
3, 1
1, 5
16, 12
14, 13
23, 5
27, 3
22, 5
8, 30
3, 62
7, 9
4, 12
11, 8
13, 16
12, 6
11, 17
5, 22
4, 2
8, 12
19, 15
36, 11
96, 10
58, 14
42, 46
57, 75
22, 25
29, 40
423, 635
2027, 2467
1438, 1450
137, 140
15, 13
23, 25
93, 126
320, 342
207, 219
42, 21
10, 10
12, 28
11, 12
8, 3
4, 6
7, 6
2, 8
6, 8
1, 9
3, 7
4, 1
3, 3
1, 5
3, 4
7, 11
7, 8
0, 7
2, 3
5, 3
10, 5
4, 3
4, 4
3, 4
2, 4
3, 4
4, 0
4, 2
0, 4
4, 4
5, 5
4, 3
14, 4
4, 3
6, 5
4, 4
4, 3
2, 1
1, 3
0, 1
0, 1
2, 1
2, 2
2, 2
2, 2
2, 2
3, 0
3, 0
5, 2
8, 6
4, 7
2, 3
1, 4
0, 3
1, 2
2, 3
5, 1
1, 0
1, 1
0, 0
1, 1
0, 2
0, 1
1, 2
1, 3
1, 0
1, 0
0, 2
3, 0
0, 0
1, 0
0, 2
0, 0
0, 0
0, 0
0, 0
0, 0
0, 2
3, 0
0, 0
0, 2
0, 0
1, 0
0, 0
1, 0
0, 2
0, 0
1, 0
0, 0
1, 1
0, 1
0, 1
0, 0
1, 2
1, 0
0, 0
2, 0
0, 0
0, 0
0, 0
0, 0
0, 0
1, 0
0, 0
0, 2
0, 0
0, 1
0, 0
0, 0
0, 0
0, 0
0, 0
0, 0
0, 0
0, 0
1, 0
0, 0
0, 0
0, 0
0, 0
0, 0
0, 0
0, 0
0, 0
0, 0
1, 1
0, 0
0, 0
0, 0
0, 0
0, 0
0, 0
0, 0
0, 0
0, 0
0, 0
0, 0
0, 0
0, 0
0, 0
0, 0
0, 0
0, 0
0, 1
0, 0
0, 0
0, 0
0, 0
0, 0
0, 0
0, 1
0, 0
0, 0
0, 0
0, 0
0, 0
0, 0
0, 0
0, 0
0, 0
0, 0
0, 0
0, 0
0, 0
0, 0
0, 0
0, 0
0, 0
0, 0
0, 0
0, 0
0, 0
0, 0
0, 0
0, 0
0, 0
0, 0
0, 0
0, 0
0, 0
0, 0
0, 0
0, 0
0, 0
0, 0
0, 0
0, 0
0, 0
0, 0
0, 0
0, 0
0, 0
0, 0
0, 0
0, 0
0, 0
0, 0
0, 0
0, 0
0, 0
0, 0
0, 0
0, 0
0, 0
0, 0
0, 0
0, 0
0, 0
0, 0
0, 0
0, 0
0, 0
0, 0
0, 0
0, 0
0, 0
0, 0
0, 0
0, 0
0, 0
0, 0
0, 0
0, 0
0, 0
0, 0
0, 0
0, 0
0, 0
#ENDOFDATA     end of spectrum data

File: ps__0852shot_2408.msa
#FORMAT      : EMSA/MAS spectral data file
#VERSION     : TC202v2.0 PIXL
#TITLE       : N/A
#DATE        :       Date in the format DD-MMM-YYYY, for example 07-JUL-2010
#TIME        :             The time of day at which the spectrum was recorded, in 24-hour format
#OWNER       : PIXL Flight Model       (PIXL will use this to indicate which instrument took the data.)
#NPOINTS     : 4096     Number of data points in the spectrum (This can be zero for configuration only files)
#NCOLUMNS    : 2     Number of data columns in the spectrum (This can be zero for configuration only files)
#XUNITS      : eV
#YUNITS      : COUNTS
#DATATYPE    : YY
#XPERCHAN    : 7.862, 7.881   eV per channel (separate by commas if more than one detector)
#OFFSET      : 18.5, -22.4         eV of first channel  (separate by commas if more than one detector
#SIGNALTYPE  : XRF
#YP_TEMP     : 2.396
#LIVETIME    : 8.58702, 8.37484   seconds (separate by commas if more than one detector)
#REALTIME    : 10, 10.0   seconds (separate by commas if more than one detector)
#SPECTRUM    : start of spectrum data
0, 0
0, 0
0, 0
0, 0
0, 0
0, 0
0, 0
0, 0
0, 0
0, 3
1, 3
44, 41
70, 71
3, 5
6, 5
92, 107
423, 445
106, 96
3, 3
0, 2
1, 2
6, 7
0, 12
7, 19
43, 118
33, 104
17, 22
11, 11
3, 7
1, 0
3, 3
1, 0
3, 2
10, 10
19, 8
18, 5
12, 5
1, 7
3, 11
7, 14
3, 2
5, 10
18, 14
13, 13
4, 4
8, 16
5, 7
5, 7
6, 15
12, 14
41, 12
95, 10
54, 5
51, 47
70, 54
17, 20
25, 28
482, 644
2092, 2418
1520, 1446
212, 144
20, 19
13, 24
110, 110
335, 364
233, 202
28, 13
10, 9
11, 10
8, 5
3, 5
8, 4
3, 6
1, 6
3, 4
2, 11
6, 3
1, 0
3, 1
4, 5
3, 3
10, 7
4, 9
3, 1
4, 5
7, 2
11, 0
2, 2
3, 0
2, 0
2, 1
0, 4
1, 6
3, 3
4, 4
3, 7
5, 3
9, 3
8, 3
6, 3
3, 3
3, 1
0, 1
2, 0
1, 4
2, 5
6, 3
4, 1
2, 4
2, 0
2, 0
4, 3
0, 2
2, 3
4, 1
2, 4
4, 12
2, 4
4, 4
0, 3
4, 2
2, 0
2, 1
3, 3
3, 1
1, 1
1, 6
0, 2
0, 1
0, 1
2, 0
0, 0
0, 1
1, 0
2, 1
0, 0
0, 0
1, 1
0, 0
0, 1
0, 0
0, 0
1, 1
1, 1
0, 1
3, 1
3, 1
0, 1
2, 1
1, 1
0, 1
0, 1
1, 0
0, 1
0, 1
0, 1
0, 1
0, 0
0, 0
0, 1
0, 2
0, 0
0, 0
0, 1
0, 0
1, 0
0, 1
1, 0
0, 0
0, 0
0, 1
0, 0
0, 0
0, 1
0, 0
0, 0
0, 0
0, 0
0, 1
0, 0
0, 0
0, 0
0, 0
0, 0
0, 0
0, 0
1, 0
1, 0
0, 0
0, 0
1, 0
0, 0
0, 0
1, 0
0, 0
0, 0
0, 0
0, 0
0, 0
0, 0
0, 0
0, 0
0, 0
0, 0
0, 0
0, 0
0, 0
0, 0
0, 0
0, 0
0, 0
0, 0
0, 0
0, 1
0, 0
0, 0
0, 0
0, 0
0, 0
0, 0
0, 0
0, 0
0, 0
0, 0
0, 0
0, 0
0, 0
0, 0
0, 0
0, 0
0, 0
0, 0
0, 0
0, 0
0, 0
0, 0
0, 0
0, 0
0, 0
0, 0
0, 0
0, 0
0, 0
0, 0
0, 0
0, 0
0, 0
0, 0
0, 0
0, 0
0, 0
0, 0
0, 0
0, 0
0, 0
0, 0
0, 0
0, 0
0, 0
0, 0
0, 0
0, 0
0, 0
0, 0
0, 0
0, 0
0, 0
0, 0
0, 0
0, 0
0, 0
0, 0
0, 0
0, 0
0, 0
0, 0
0, 0
0, 0
0, 0
0, 0
0, 0
0, 0
0, 0
0, 0
0, 0
0, 0
0, 0
0, 0
0, 0
0, 0
0, 0
0, 0
0, 0
0, 0
#ENDOFDATA     end of spectrum data

File: ps__0852shot_2409.msa
#FORMAT      : EMSA/MAS spectral data file
#VERSION     : TC202v2.0 PIXL
#TITLE       : N/A
#DATE        :       Date in the format DD-MMM-YYYY, for example 07-JUL-2010
#TIME        :             The time of day at which the spectrum was recorded, in 24-hour format
#OWNER       : PIXL Flight Model       (PIXL will use this to indicate which instrument took the data.)
#NPOINTS     : 4096     Number of data points in the spectrum (This can be zero for configuration only files)
#NCOLUMNS    : 2     Number of data columns in the spectrum (This can be zero for configuration only files)
#XUNITS      : eV
#YUNITS      : COUNTS
#DATATYPE    : YY
#XPERCHAN    : 7.862, 7.881   eV per channel (separate by commas if more than one detector)
#OFFSET      : 18.5, -22.4         eV of first channel  (separate by commas if more than one detector
#SIGNALTYPE  : XRF
#YP_TEMP     : 2.107
#LIVETIME    : 8.5751, 8.57953   seconds (separate by commas if more than one detector)
#REALTIME    : 10, 10.0   seconds (separate by commas if more than one detector)
#SPECTRUM    : start of spectrum data
0, 0
0, 0
0, 0
0, 0
0, 0
0, 0
0, 0
0, 0
0, 2
3, 0
2, 3
35, 47
56, 53
3, 3
7, 3
112, 103
449, 495
117, 96
1, 3
1, 2
4, 4
3, 4
5, 3
12, 12
47, 70
32, 55
16, 22
17, 11
7, 7
3, 0
1, 3
3, 0
3, 3
7, 11
14, 10
6, 2
6, 2
6, 4
7, 7
22, 4
17, 4
5, 7
12, 12
12, 12
10, 4
8, 7
3, 6
7, 38
13, 73
10, 37
20, 7
28, 13
26, 9
40, 54
53, 69
17, 25
26, 34
404, 577
1958, 2476
1443, 1474
179, 136
14, 20
23, 18
99, 124
310, 375
208, 208
34, 21
6, 7
14, 16
3, 6
7, 5
5, 6
4, 9
3, 4
4, 3
6, 10
4, 2
4, 6
4, 1
4, 5
5, 2
7, 5
1, 9
2, 8
3, 11
1, 12
2, 4
5, 0
3, 3
6, 3
13, 7
18, 5
9, 3
3, 2
2, 3
2, 7
1, 9
3, 11
3, 5
2, 5
0, 0
3, 3
2, 2
1, 1
0, 1
1, 2
2, 0
1, 6
1, 2
1, 6
2, 1
3, 1
2, 1
6, 0
5, 1
3, 3
6, 6
5, 4
3, 2
2, 3
1, 3
0, 0
0, 4
1, 3
1, 1
1, 1
2, 2
1, 0
0, 0
0, 1
0, 0
1, 1
1, 0
2, 4
0, 2
1, 2
1, 0
0, 0
0, 1
1, 0
2, 3
0, 0
0, 0
1, 2
0, 1
1, 1
1, 0
1, 0
0, 0
2, 0
0, 0
1, 0
0, 1
1, 0
1, 0
0, 0
0, 1
0, 0
1, 0
0, 1
0, 0
0, 0
1, 0
1, 1
0, 0
0, 0
0, 0
0, 0
0, 1
0, 0
1, 0
1, 0
2, 0
1, 0
0, 1
0, 0
1, 0
0, 1
0, 0
1, 0
0, 0
0, 0
0, 0
1, 1
0, 0
0, 2
0, 0
1, 0
0, 0
0, 0
0, 0
0, 0
0, 0
0, 0
0, 0
0, 0
1, 1
0, 0
0, 0
0, 0
0, 0
0, 0
0, 0
0, 0
0, 0
0, 0
0, 0
2, 1
0, 0
0, 0
0, 0
0, 0
0, 0
0, 0
0, 0
0, 0
0, 0
0, 0
0, 0
0, 0
0, 0
0, 0
0, 0
0, 0
0, 0
0, 0
0, 0
0, 0
0, 0
0, 0
0, 0
0, 0
0, 0
0, 0
0, 0
0, 0
0, 0
0, 0
0, 0
0, 0
0, 0
0, 0
0, 0
0, 0
0, 0
0, 0
0, 0
0, 0
0, 0
0, 0
0, 1
0, 0
0, 0
0, 0
0, 0
0, 0
0, 0
0, 0
0, 0
0, 0
0, 0
0, 0
0, 0
0, 0
0, 0
0, 0
0, 0
0, 0
0, 0
0, 0
0, 0
0, 0
0, 0
0, 0
0, 0
0, 0
0, 0
0, 0
0, 0
0, 0
0, 0
0, 0
0, 0
0, 0
0, 0
0, 0
0, 0
0, 0
0, 0
0, 0
0, 0
0, 0
0, 0
0, 0
#ENDOFDATA     end of spectrum data