Folder: data-repository/host_upload/06-09-2024/ps_0852/dump3 (part 10)

File: ps__0852shot_2082.msa
#FORMAT      : EMSA/MAS spectral data file
#VERSION     : TC202v2.0 PIXL
#TITLE       : N/A
#DATE        :       Date in the format DD-MMM-YYYY, for example 07-JUL-2010
#TIME        :             The time of day at which the spectrum was recorded, in 24-hour format
#OWNER       : PIXL Flight Model       (PIXL will use this to indicate which instrument took the data.)
#NPOINTS     : 4096     Number of data points in the spectrum (This can be zero for configuration only files)
#NCOLUMNS    : 2     Number of data columns in the spectrum (This can be zero for configuration only files)
#XUNITS      : eV
#YUNITS      : COUNTS
#DATATYPE    : YY
#XPERCHAN    : 7.862, 7.881   eV per channel (separate by commas if more than one detector)
#OFFSET      : 18.5, -22.4         eV of first channel  (separate by commas if more than one detector
#SIGNALTYPE  : XRF
#YP_TEMP     : 2.652
#LIVETIME    : 8.57117, 8.54804   seconds (separate by commas if more than one detector)
#REALTIME    : 10, 10.0   seconds (separate by commas if more than one detector)
#SPECTRUM    : start of spectrum data
0, 0
0, 0
0, 0
0, 0
0, 0
0, 0
0, 0
0, 0
1, 0
12, 0
3, 1
51, 47
56, 62
13, 7
6, 2
111, 81
430, 370
95, 92
6, 10
3, 2
4, 4
19, 10
13, 5
18, 5
277, 15
568, 29
85, 16
14, 12
3, 8
1, 3
1, 3
3, 4
3, 6
8, 5
21, 11
6, 5
3, 3
46, 3
77, 2
22, 3
5, 4
13, 14
14, 39
9, 110
9, 135
7, 21
6, 10
4, 4
7, 7
14, 10
35, 10
64, 9
37, 10
35, 31
57, 55
21, 18
38, 60
489, 584
2242, 2185
1572, 1287
233, 137
32, 20
118, 20
214, 125
392, 319
256, 190
30, 27
3, 4
12, 8
10, 4
7, 2
4, 2
2, 1
5, 2
26, 1
72, 4
114, 5
45, 4
5, 2
6, 0
2, 0
3, 5
3, 3
4, 6
1, 7
6, 4
4, 8
2, 7
8, 5
2, 2
4, 4
2, 4
1, 2
2, 4
7, 6
1, 3
2, 1
2, 3
4, 3
3, 4
5, 3
7, 2
8, 2
4, 0
2, 3
1, 2
3, 2
2, 1
2, 0
2, 5
4, 1
2, 1
3, 3
6, 2
4, 2
1, 2
2, 3
2, 2
0, 1
2, 0
0, 1
3, 1
2, 0
4, 0
3, 1
1, 1
2, 1
0, 1
3, 1
1, 2
1, 2
0, 1
1, 2
2, 1
1, 1
1, 0
0, 0
0, 0
1, 0
1, 0
1, 0
1, 1
0, 1
0, 1
1, 0
0, 2
1, 1
0, 0
1, 0
0, 0
1, 0
0, 2
0, 1
0, 0
0, 0
2, 0
1, 0
0, 0
0, 0
0, 0
0, 0
0, 1
0, 0
0, 0
0, 0
0, 0
0, 0
0, 0
0, 2
0, 0
0, 0
0, 1
0, 0
0, 0
1, 2
0, 0
1, 0
0, 0
0, 0
1, 0
1, 0
0, 0
1, 0
0, 0
0, 0
0, 1
0, 0
0, 0
0, 0
0, 1
0, 0
1, 0
0, 0
0, 0
0, 0
0, 0
0, 0
0, 0
0, 0
0, 0
0, 0
0, 0
0, 0
0, 0
0, 0
0, 0
1, 0
0, 0
0, 0
0, 0
0, 0
0, 0
0, 0
0, 0
0, 0
0, 0
0, 0
0, 0
0, 0
0, 0
0, 0
0, 0
0, 0
0, 0
0, 0
0, 0
0, 0
0, 0
0, 0
0, 0
0, 0
0, 0
0, 0
0, 0
0, 0
0, 0
0, 0
0, 0
0, 0
0, 0
0, 0
0, 0
0, 0
0, 0
0, 0
0, 0
0, 0
0, 0
0, 0
0, 0
0, 0
0, 0
0, 0
0, 0
0, 0
0, 0
0, 0
0, 0
0, 0
0, 0
0, 0
0, 0
0, 0
0, 0
0, 0
0, 0
0, 0
0, 0
0, 0
0, 0
0, 0
0, 0
0, 0
0, 0
0, 0
0, 0
0, 0
0, 0
0, 0
0, 0
0, 0
0, 0
0, 0
0, 0
0, 0
0, 0
0, 0
0, 0
0, 0
0, 0
0, 0
0, 0
0, 0
0, 0
#ENDOFDATA     end of spectrum data

File: ps__0852shot_2083.msa
#FORMAT      : EMSA/MAS spectral data file
#VERSION     : TC202v2.0 PIXL
#TITLE       : N/A
#DATE        :       Date in the format DD-MMM-YYYY, for example 07-JUL-2010
#TIME        :             The time of day at which the spectrum was recorded, in 24-hour format
#OWNER       : PIXL Flight Model       (PIXL will use this to indicate which instrument took the data.)
#NPOINTS     : 4096     Number of data points in the spectrum (This can be zero for configuration only files)
#NCOLUMNS    : 2     Number of data columns in the spectrum (This can be zero for configuration only files)
#XUNITS      : eV
#YUNITS      : COUNTS
#DATATYPE    : YY
#XPERCHAN    : 7.862, 7.881   eV per channel (separate by commas if more than one detector)
#OFFSET      : 18.5, -22.4         eV of first channel  (separate by commas if more than one detector
#SIGNALTYPE  : XRF
#YP_TEMP     : 2.364
#LIVETIME    : 8.54434, 8.5631   seconds (separate by commas if more than one detector)
#REALTIME    : 10, 10.0   seconds (separate by commas if more than one detector)
#SPECTRUM    : start of spectrum data
0, 0
0, 0
0, 0
0, 0
0, 0
0, 0
0, 0
0, 0
1, 0
2, 3
1, 0
49, 44
68, 67
4, 9
4, 0
91, 89
414, 448
111, 88
5, 5
2, 3
11, 5
31, 26
23, 15
3, 5
79, 24
172, 19
26, 3
12, 13
6, 3
3, 2
1, 1
1, 1
2, 4
8, 12
12, 13
7, 5
6, 2
24, 2
51, 2
13, 2
7, 3
10, 7
14, 25
7, 102
5, 100
5, 18
7, 6
3, 6
7, 9
22, 15
28, 6
49, 8
13, 8
43, 41
68, 58
16, 35
30, 63
454, 576
2022, 2325
1622, 1448
211, 175
25, 17
41, 28
149, 119
333, 333
209, 171
32, 25
9, 11
7, 15
6, 6
5, 3
7, 4
0, 11
7, 2
21, 3
54, 5
62, 3
16, 5
8, 5
4, 8
6, 4
2, 1
3, 7
4, 4
5, 5
2, 7
1, 6
2, 7
0, 2
2, 4
5, 4
1, 5
1, 2
1, 5
4, 5
3, 5
2, 2
2, 6
1, 2
5, 5
9, 2
9, 4
0, 2
5, 4
1, 1
2, 0
1, 1
2, 0
3, 0
1, 2
2, 1
2, 2
2, 3
4, 1
5, 2
1, 3
2, 2
5, 2
0, 3
1, 2
0, 0
1, 2
1, 3
1, 4
1, 2
1, 2
1, 1
1, 2
1, 2
1, 0
2, 1
0, 1
2, 1
1, 2
0, 1
1, 1
2, 3
2, 0
1, 1
0, 1
1, 1
1, 2
0, 0
0, 1
0, 0
0, 1
0, 1
0, 0
2, 0
1, 0
0, 0
0, 0
0, 2
0, 1
0, 0
0, 0
1, 0
0, 0
0, 0
0, 1
1, 0
0, 0
0, 0
0, 0
0, 0
0, 1
0, 0
1, 1
0, 0
1, 1
0, 0
0, 0
0, 0
0, 1
0, 0
0, 0
0, 0
0, 0
0, 0
0, 0
1, 0
0, 0
0, 1
0, 0
0, 1
1, 0
0, 0
1, 0
0, 1
0, 0
0, 1
0, 0
0, 0
0, 0
0, 0
0, 0
1, 0
0, 0
0, 0
0, 0
0, 0
0, 0
0, 0
0, 0
0, 0
0, 0
0, 0
0, 0
0, 0
0, 0
0, 0
0, 0
0, 0
0, 0
0, 0
0, 0
0, 0
0, 0
0, 0
0, 0
0, 0
0, 0
0, 0
0, 0
0, 0
0, 1
0, 0
1, 0
0, 0
0, 0
0, 0
0, 0
0, 0
0, 0
0, 0
0, 0
0, 0
0, 0
0, 0
0, 0
0, 0
0, 0
0, 0
0, 0
0, 0
0, 0
0, 0
0, 0
0, 0
0, 0
0, 0
0, 0
0, 0
0, 0
0, 0
0, 0
0, 0
0, 0
0, 0
0, 0
0, 0
0, 0
0, 0
0, 0
0, 0
0, 0
0, 0
0, 0
0, 0
0, 0
0, 0
0, 0
0, 0
0, 0
0, 0
0, 0
0, 0
0, 0
0, 0
0, 0
0, 0
0, 0
0, 0
0, 0
0, 0
0, 0
0, 0
0, 0
0, 0
0, 0
0, 0
0, 0
0, 0
0, 0
#ENDOFDATA     end of spectrum data

File: ps__0852shot_2084.msa
#FORMAT      : EMSA/MAS spectral data file
#VERSION     : TC202v2.0 PIXL
#TITLE       : N/A
#DATE        :       Date in the format DD-MMM-YYYY, for example 07-JUL-2010
#TIME        :             The time of day at which the spectrum was recorded, in 24-hour format
#OWNER       : PIXL Flight Model       (PIXL will use this to indicate which instrument took the data.)
#NPOINTS     : 4096     Number of data points in the spectrum (This can be zero for configuration only files)
#NCOLUMNS    : 2     Number of data columns in the spectrum (This can be zero for configuration only files)
#XUNITS      : eV
#YUNITS      : COUNTS
#DATATYPE    : YY
#XPERCHAN    : 7.862, 7.881   eV per channel (separate by commas if more than one detector)
#OFFSET      : 18.5, -22.4         eV of first channel  (separate by commas if more than one detector
#SIGNALTYPE  : XRF
#YP_TEMP     : 2.46
#LIVETIME    : 8.55644, 8.56789   seconds (separate by commas if more than one detector)
#REALTIME    : 10, 10.0   seconds (separate by commas if more than one detector)
#SPECTRUM    : start of spectrum data
0, 0
0, 0
0, 0
0, 0
0, 0
0, 0
0, 0
1, 0
0, 0
4, 1
3, 2
51, 60
60, 78
11, 10
6, 2
84, 104
400, 461
108, 111
6, 12
1, 1
4, 3
7, 4
6, 2
3, 2
51, 7
67, 30
27, 14
10, 13
5, 5
1, 6
2, 1
2, 1
1, 2
12, 9
5, 12
3, 3
6, 6
27, 3
36, 1
13, 3
4, 4
6, 7
19, 27
14, 76
3, 75
4, 15
1, 9
3, 11
8, 9
12, 9
33, 8
62, 5
29, 7
40, 46
54, 64
18, 34
25, 59
432, 601
1989, 2370
1501, 1424
195, 205
26, 26
28, 20
111, 124
327, 340
219, 197
40, 33
12, 4
14, 13
9, 7
6, 6
6, 6
3, 1
8, 1
18, 6
51, 6
46, 5
15, 9
4, 11
1, 5
3, 2
3, 4
6, 1
0, 1
2, 3
2, 11
0, 7
4, 4
2, 4
1, 0
6, 8
1, 6
5, 7
2, 9
1, 5
1, 5
0, 2
3, 1
3, 3
1, 3
6, 0
6, 2
1, 1
3, 1
3, 2
0, 0
2, 2
3, 0
1, 5
3, 0
1, 4
2, 0
7, 3
2, 2
2, 3
5, 4
2, 1
1, 4
1, 2
1, 3
1, 0
0, 2
2, 4
0, 0
1, 1
0, 1
1, 2
1, 0
1, 0
0, 2
1, 0
3, 1
1, 0
2, 0
0, 0
1, 0
2, 1
0, 1
1, 1
2, 1
1, 1
0, 0
0, 0
1, 1
0, 2
1, 0
0, 2
0, 0
0, 1
0, 1
0, 0
0, 1
0, 0
0, 0
0, 0
1, 1
1, 1
0, 0
0, 0
0, 0
0, 0
0, 0
0, 0
0, 0
1, 0
0, 0
0, 2
0, 0
0, 0
0, 0
2, 0
1, 0
0, 0
0, 1
0, 1
0, 0
0, 1
0, 0
0, 1
0, 1
0, 0
0, 0
0, 0
1, 0
0, 1
0, 0
0, 0
0, 0
0, 0
0, 0
0, 0
0, 0
0, 0
0, 0
0, 0
0, 0
0, 0
0, 0
0, 0
0, 0
0, 0
0, 0
0, 0
0, 0
0, 0
0, 0
0, 0
0, 0
0, 0
0, 0
0, 0
0, 0
0, 0
0, 0
0, 0
0, 0
0, 0
0, 1
0, 0
0, 0
0, 0
0, 0
0, 0
0, 0
0, 0
0, 0
0, 0
0, 0
0, 0
0, 0
0, 0
0, 0
0, 0
0, 0
0, 0
0, 0
0, 0
0, 0
0, 0
0, 0
0, 0
0, 0
0, 0
0, 0
0, 0
0, 0
0, 0
0, 0
0, 0
0, 0
0, 0
0, 0
0, 0
0, 0
0, 0
0, 0
0, 0
0, 0
0, 0
0, 0
0, 0
0, 0
0, 0
0, 0
0, 0
0, 0
0, 0
0, 0
0, 0
0, 0
0, 0
0, 0
0, 0
0, 0
0, 0
0, 0
0, 0
0, 0
0, 0
0, 0
0, 0
0, 0
0, 0
0, 0
0, 0
0, 0
0, 0
0, 0
0, 0
0, 0
0, 0
0, 0
0, 0
0, 0
#ENDOFDATA     end of spectrum data

File: ps__0852shot_2085.msa
#FORMAT      : EMSA/MAS spectral data file
#VERSION     : TC202v2.0 PIXL
#TITLE       : N/A
#DATE        :       Date in the format DD-MMM-YYYY, for example 07-JUL-2010
#TIME        :             The time of day at which the spectrum was recorded, in 24-hour format
#OWNER       : PIXL Flight Model       (PIXL will use this to indicate which instrument took the data.)
#NPOINTS     : 4096     Number of data points in the spectrum (This can be zero for configuration only files)
#NCOLUMNS    : 2     Number of data columns in the spectrum (This can be zero for configuration only files)
#XUNITS      : eV
#YUNITS      : COUNTS
#DATATYPE    : YY
#XPERCHAN    : 7.862, 7.881   eV per channel (separate by commas if more than one detector)
#OFFSET      : 18.5, -22.4         eV of first channel  (separate by commas if more than one detector
#SIGNALTYPE  : XRF
#YP_TEMP     : 2.46
#LIVETIME    : 8.55711, 8.57754   seconds (separate by commas if more than one detector)
#REALTIME    : 10, 10.0   seconds (separate by commas if more than one detector)
#SPECTRUM    : start of spectrum data
0, 0
0, 0
0, 0
0, 0
0, 0
0, 0
0, 0
0, 0
0, 1
0, 2
3, 4
45, 51
57, 70
11, 7
7, 5
95, 117
413, 435
128, 121
8, 5
1, 1
0, 0
1, 1
3, 4
6, 3
21, 16
21, 27
21, 10
12, 10
4, 4
3, 2
1, 1
3, 1
1, 0
12, 9
9, 19
4, 6
3, 0
25, 3
36, 5
18, 4
18, 0
11, 7
3, 13
12, 67
4, 52
2, 10
3, 11
4, 10
4, 4
11, 10
26, 15
60, 5
50, 6
37, 39
47, 78
19, 21
28, 46
460, 621
2079, 2411
1500, 1475
190, 178
18, 22
34, 26
107, 127
323, 372
214, 216
25, 24
8, 8
8, 15
9, 9
2, 3
5, 5
1, 3
3, 7
14, 5
38, 4
29, 5
10, 14
7, 16
8, 8
3, 6
2, 8
3, 5
0, 1
4, 3
2, 1
3, 3
3, 1
5, 4
5, 7
6, 5
3, 5
5, 8
4, 10
2, 11
1, 4
0, 2
1, 2
2, 4
3, 6
4, 2
4, 2
7, 2
7, 2
3, 4
0, 0
0, 0
6, 1
0, 2
2, 2
3, 3
3, 2
2, 4
2, 3
2, 4
3, 0
3, 0
4, 3
2, 1
2, 0
0, 2
4, 1
2, 2
3, 2
1, 0
0, 1
1, 0
1, 1
2, 2
3, 1
1, 4
1, 0
1, 0
0, 2
1, 1
0, 1
0, 2
1, 0
0, 0
0, 0
0, 0
0, 0
0, 1
0, 1
0, 0
1, 1
1, 0
0, 1
0, 0
0, 0
0, 1
0, 0
2, 1
0, 1
0, 0
1, 1
0, 1
0, 0
1, 1
0, 0
1, 0
0, 1
0, 0
0, 1
0, 0
0, 0
0, 0
0, 1
1, 0
0, 1
0, 1
1, 0
0, 0
0, 0
0, 0
0, 0
0, 0
0, 0
0, 0
0, 0
0, 0
0, 0
0, 0
0, 1
0, 0
0, 0
0, 0
0, 0
1, 0
0, 0
0, 1
0, 1
0, 0
0, 0
0, 0
0, 0
0, 0
0, 0
0, 0
0, 0
0, 0
0, 0
0, 0
0, 0
0, 0
0, 0
0, 0
0, 0
0, 0
0, 0
0, 0
0, 0
0, 0
0, 0
0, 0
0, 0
0, 0
0, 0
0, 0
0, 0
0, 0
0, 0
0, 0
0, 0
0, 0
0, 0
0, 0
0, 0
0, 0
0, 0
0, 0
0, 0
0, 0
0, 0
0, 0
0, 0
0, 0
0, 0
0, 0
0, 0
0, 0
0, 0
0, 0
0, 0
0, 0
0, 0
0, 0
0, 0
0, 0
0, 0
0, 0
0, 0
0, 0
0, 0
0, 0
0, 0
0, 0
0, 0
0, 0
0, 0
0, 0
0, 0
0, 0
0, 0
0, 0
0, 0
0, 0
0, 0
0, 0
0, 0
0, 0
0, 0
0, 0
0, 0
0, 0
0, 0
0, 0
0, 0
0, 0
0, 0
0, 0
0, 0
0, 0
0, 0
0, 0
0, 0
0, 0
0, 0
0, 0
0, 0
0, 0
0, 0
0, 0
0, 0
#ENDOFDATA     end of spectrum data

File: ps__0852shot_2086.msa
#FORMAT      : EMSA/MAS spectral data file
#VERSION     : TC202v2.0 PIXL
#TITLE       : N/A
#DATE        :       Date in the format DD-MMM-YYYY, for example 07-JUL-2010
#TIME        :             The time of day at which the spectrum was recorded, in 24-hour format
#OWNER       : PIXL Flight Model       (PIXL will use this to indicate which instrument took the data.)
#NPOINTS     : 4096     Number of data points in the spectrum (This can be zero for configuration only files)
#NCOLUMNS    : 2     Number of data columns in the spectrum (This can be zero for configuration only files)
#XUNITS      : eV
#YUNITS      : COUNTS
#DATATYPE    : YY
#XPERCHAN    : 7.862, 7.881   eV per channel (separate by commas if more than one detector)
#OFFSET      : 18.5, -22.4         eV of first channel  (separate by commas if more than one detector
#SIGNALTYPE  : XRF
#YP_TEMP     : 2.556
#LIVETIME    : 8.55991, 8.55916   seconds (separate by commas if more than one detector)
#REALTIME    : 10, 10.0   seconds (separate by commas if more than one detector)
#SPECTRUM    : start of spectrum data
0, 0
0, 0
0, 0
0, 0
0, 0
0, 0
0, 0
0, 0
1, 0
2, 1
3, 4
48, 56
67, 80
3, 5
7, 5
95, 101
367, 471
105, 114
6, 2
2, 0
1, 2
2, 1
1, 2
8, 8
89, 52
140, 67
19, 22
13, 8
2, 2
5, 1
2, 1
2, 1
1, 4
11, 19
11, 22
6, 2
8, 10
23, 4
48, 4
15, 2
14, 3
11, 4
11, 20
13, 60
7, 67
3, 19
3, 6
5, 15
5, 24
16, 12
33, 7
65, 4
31, 9
56, 58
47, 41
26, 23
27, 48
454, 601
1977, 2304
1542, 1453
214, 205
22, 19
31, 32
98, 112
345, 377
198, 209
27, 23
4, 5
17, 10
6, 13
4, 4
1, 6
3, 4
3, 4
20, 3
33, 3
52, 4
16, 14
3, 7
6, 8
3, 7
5, 5
7, 3
3, 0
1, 5
2, 4
0, 3
0, 4
3, 5
1, 4
4, 7
2, 5
1, 2
4, 6
2, 14
2, 3
2, 1
2, 1
3, 3
5, 2
8, 3
6, 1
4, 3
4, 3
3, 3
2, 2
3, 2
4, 0
1, 0
2, 3
1, 0
0, 2
1, 3
2, 1
5, 0
6, 4
3, 3
1, 8
4, 1
1, 2
1, 2
1, 2
1, 1
1, 3
0, 0
0, 3
3, 2
1, 0
4, 0
1, 0
1, 0
2, 2
0, 1
1, 1
0, 1
2, 0
0, 0
0, 1
3, 4
0, 0
0, 1
1, 0
0, 1
1, 0
1, 1
0, 0
0, 0
1, 0
1, 1
0, 1
0, 0
0, 1
1, 0
0, 0
0, 0
1, 0
0, 0
0, 0
0, 0
0, 0
0, 0
0, 1
0, 0
1, 1
0, 1
0, 0
0, 0
0, 0
1, 1
0, 0
0, 1
0, 0
0, 1
1, 0
0, 0
0, 0
0, 0
0, 0
0, 0
0, 0
0, 0
0, 0
0, 0
0, 0
2, 0
0, 0
0, 0
0, 0
0, 0
0, 0
0, 0
0, 0
0, 0
0, 0
0, 1
0, 0
0, 1
0, 0
0, 0
0, 0
0, 0
0, 0
0, 0
0, 0
0, 0
0, 0
0, 0
0, 0
0, 0
0, 0
0, 0
0, 0
0, 0
0, 0
0, 0
0, 0
0, 0
0, 0
0, 0
0, 0
0, 0
0, 0
0, 0
0, 0
0, 0
0, 0
0, 0
0, 0
0, 0
0, 0
0, 0
0, 0
0, 0
0, 0
0, 0
0, 0
0, 0
0, 0
0, 0
0, 0
0, 0
0, 0
0, 0
0, 0
0, 0
0, 0
0, 0
0, 0
0, 0
0, 0
0, 0
0, 0
0, 0
0, 0
0, 0
0, 0
0, 0
0, 0
0, 0
0, 0
0, 0
0, 0
0, 0
0, 0
0, 0
0, 0
0, 0
0, 0
0, 0
0, 0
0, 0
0, 0
0, 0
0, 0
0, 0
0, 0
0, 0
0, 0
0, 0
0, 0
0, 0
0, 0
0, 0
0, 0
0, 0
0, 0
0, 0
0, 0
0, 0
0, 0
0, 0
0, 0
0, 0
0, 0
#ENDOFDATA     end of spectrum data

File: ps__0852shot_2087.msa
#FORMAT      : EMSA/MAS spectral data file
#VERSION     : TC202v2.0 PIXL
#TITLE       : N/A
#DATE        :       Date in the format DD-MMM-YYYY, for example 07-JUL-2010
#TIME        :             The time of day at which the spectrum was recorded, in 24-hour format
#OWNER       : PIXL Flight Model       (PIXL will use this to indicate which instrument took the data.)
#NPOINTS     : 4096     Number of data points in the spectrum (This can be zero for configuration only files)
#NCOLUMNS    : 2     Number of data columns in the spectrum (This can be zero for configuration only files)
#XUNITS      : eV
#YUNITS      : COUNTS
#DATATYPE    : YY
#XPERCHAN    : 7.862, 7.881   eV per channel (separate by commas if more than one detector)
#OFFSET      : 18.5, -22.4         eV of first channel  (separate by commas if more than one detector
#SIGNALTYPE  : XRF
#YP_TEMP     : 2.428
#LIVETIME    : 8.55785, 8.5531   seconds (separate by commas if more than one detector)
#REALTIME    : 10, 10.0   seconds (separate by commas if more than one detector)
#SPECTRUM    : start of spectrum data
0, 0
0, 0
0, 0
0, 0
0, 0
0, 0
0, 0
0, 0
5, 0
9, 2
5, 4
45, 48
65, 51
5, 4
7, 7
77, 99
383, 413
98, 114
5, 6
3, 4
2, 4
2, 4
4, 3
24, 13
477, 129
738, 171
102, 35
16, 12
3, 4
4, 2
1, 2
2, 2
1, 2
5, 12
10, 14
8, 4
27, 14
37, 23
31, 10
5, 4
13, 0
14, 12
20, 24
6, 35
9, 21
3, 5
5, 5
7, 13
11, 35
17, 27
16, 5
22, 6
19, 9
39, 39
61, 48
18, 13
35, 37
500, 661
2099, 2384
1552, 1434
214, 180
50, 29
68, 34
138, 137
339, 368
204, 211
36, 30
2, 11
9, 17
7, 9
5, 3
3, 7
3, 9
8, 12
5, 11
24, 6
19, 6
9, 6
4, 4
3, 5
3, 8
3, 4
4, 3
3, 5
2, 10
6, 8
5, 6
3, 6
3, 3
6, 5
3, 2
2, 2
9, 2
3, 2
2, 2
3, 4
1, 1
4, 7
5, 4
5, 1
1, 3
1, 0
0, 2
2, 5
0, 2
4, 0
0, 3
0, 6
3, 4
1, 3
1, 3
4, 1
2, 3
2, 1
2, 3
3, 1
2, 3
5, 2
1, 2
1, 4
1, 3
0, 1
1, 2
3, 2
0, 0
1, 3
2, 2
0, 2
1, 1
4, 0
0, 2
1, 0
1, 1
1, 2
3, 0
2, 2
0, 1
1, 1
3, 0
0, 1
0, 1
0, 0
1, 2
0, 2
0, 0
0, 0
1, 1
0, 0
0, 1
0, 1
0, 0
0, 0
1, 0
2, 0
0, 1
0, 0
0, 0
0, 0
0, 0
0, 0
1, 0
0, 0
0, 1
1, 1
0, 0
0, 0
0, 0
0, 1
0, 0
1, 0
0, 0
0, 0
1, 1
0, 0
0, 0
0, 0
0, 0
0, 0
0, 1
0, 0
0, 0
0, 0
0, 0
0, 0
0, 0
0, 0
0, 0
0, 0
0, 0
0, 1
0, 0
0, 0
0, 0
0, 0
0, 2
0, 0
0, 0
0, 0
0, 0
0, 0
0, 0
0, 0
0, 0
0, 0
0, 0
0, 0
0, 0
0, 0
0, 0
0, 0
0, 0
0, 0
0, 0
0, 0
0, 0
0, 0
0, 0
0, 0
0, 0
0, 0
0, 0
0, 0
0, 0
0, 0
0, 0
0, 0
0, 0
0, 0
0, 0
0, 0
0, 0
0, 0
0, 0
0, 0
0, 0
0, 0
0, 0
0, 0
0, 0
0, 0
0, 0
0, 0
0, 0
0, 0
0, 0
0, 0
0, 0
0, 0
0, 0
0, 0
0, 0
0, 0
0, 0
0, 0
0, 0
0, 0
0, 0
0, 0
0, 0
0, 0
0, 0
0, 0
0, 0
0, 0
0, 0
0, 0
0, 0
0, 0
0, 0
0, 0
0, 0
0, 0
0, 0
0, 0
0, 0
0, 0
0, 0
0, 0
0, 0
0, 0
0, 0
0, 0
0, 0
0, 0
0, 0
0, 0
0, 0
0, 0
0, 0
0, 0
0, 0
0, 0
0, 0
0, 0
#ENDOFDATA     end of spectrum data

File: ps__0852shot_2088.msa
#FORMAT      : EMSA/MAS spectral data file
#VERSION     : TC202v2.0 PIXL
#TITLE       : N/A
#DATE        :       Date in the format DD-MMM-YYYY, for example 07-JUL-2010
#TIME        :             The time of day at which the spectrum was recorded, in 24-hour format
#OWNER       : PIXL Flight Model       (PIXL will use this to indicate which instrument took the data.)
#NPOINTS     : 4096     Number of data points in the spectrum (This can be zero for configuration only files)
#NCOLUMNS    : 2     Number of data columns in the spectrum (This can be zero for configuration only files)
#XUNITS      : eV
#YUNITS      : COUNTS
#DATATYPE    : YY
#XPERCHAN    : 7.862, 7.881   eV per channel (separate by commas if more than one detector)
#OFFSET      : 18.5, -22.4         eV of first channel  (separate by commas if more than one detector
#SIGNALTYPE  : XRF
#YP_TEMP     : 2.428
#LIVETIME    : 8.58012, 8.36788   seconds (separate by commas if more than one detector)
#REALTIME    : 10, 10.0   seconds (separate by commas if more than one detector)
#SPECTRUM    : start of spectrum data
0, 0
0, 0
0, 0
0, 0
0, 0
0, 0
0, 0
0, 0
1, 3
6, 2
3, 0
46, 54
59, 54
8, 7
3, 4
95, 85
446, 379
101, 72
8, 5
2, 0
2, 1
8, 3
4, 6
30, 5
259, 111
437, 173
83, 38
14, 13
7, 5
1, 3
2, 1
2, 1
2, 1
20, 10
24, 18
9, 4
32, 7
50, 17
16, 5
3, 2
5, 5
9, 13
12, 17
16, 9
3, 6
7, 2
6, 5
13, 6
15, 9
14, 15
28, 9
22, 11
16, 20
31, 41
60, 53
18, 23
22, 48
502, 531
2247, 2203
1596, 1277
239, 151
58, 25
46, 27
92, 107
347, 313
228, 189
37, 25
7, 9
14, 15
9, 14
5, 4
4, 5
8, 2
9, 9
8, 10
8, 5
10, 1
2, 7
3, 3
2, 6
6, 6
5, 4
5, 0
4, 2
7, 1
10, 5
5, 5
6, 5
2, 3
4, 2
2, 1
1, 1
0, 4
5, 1
2, 1
1, 2
4, 1
5, 6
5, 5
5, 3
3, 1
3, 0
1, 2
1, 3
1, 0
0, 3
0, 3
4, 2
2, 0
4, 2
6, 0
3, 3
4, 2
5, 4
1, 1
2, 2
4, 4
2, 4
2, 1
2, 2
0, 3
4, 0
3, 3
2, 2
1, 0
2, 2
1, 2
1, 1
0, 2
2, 1
0, 0
0, 1
0, 0
0, 1
1, 1
2, 1
1, 0
2, 3
0, 1
0, 0
0, 2
1, 0
0, 1
1, 0
0, 1
1, 0
1, 0
0, 0
0, 0
0, 1
0, 0
0, 0
1, 0
0, 0
0, 0
0, 0
0, 0
0, 2
0, 0
0, 0
0, 0
0, 0
0, 0
0, 0
0, 1
1, 2
0, 0
0, 0
1, 1
1, 1
1, 1
0, 0
0, 0
1, 0
0, 0
0, 0
0, 0
0, 1
0, 0
0, 0
0, 0
0, 0
0, 0
0, 0
0, 0
1, 0
0, 0
0, 0
0, 0
1, 0
0, 0
0, 0
0, 0
0, 0
0, 0
1, 0
0, 0
0, 0
0, 0
0, 0
0, 0
0, 0
0, 0
0, 0
0, 0
0, 0
0, 0
0, 0
0, 0
0, 0
0, 0
0, 0
0, 0
0, 0
0, 0
0, 0
0, 0
0, 0
0, 0
0, 0
0, 0
0, 0
0, 0
0, 0
1, 0
0, 0
0, 0
0, 0
0, 0
0, 0
0, 0
0, 0
0, 0
0, 0
0, 0
0, 0
0, 0
0, 0
0, 0
0, 0
0, 0
0, 0
0, 0
0, 0
0, 0
0, 0
0, 0
0, 0
0, 0
0, 0
0, 0
0, 0
0, 0
0, 0
0, 0
0, 0
0, 0
0, 0
0, 0
0, 0
0, 0
0, 0
0, 0
0, 0
0, 0
0, 0
0, 0
0, 0
0, 0
0, 0
0, 0
0, 0
0, 0
0, 0
0, 0
0, 0
0, 0
0, 0
0, 0
0, 0
0, 0
0, 0
0, 0
0, 0
0, 0
0, 0
0, 0
0, 0
0, 0
0, 0
0, 0
0, 0
0, 0
0, 0
#ENDOFDATA     end of spectrum data

File: ps__0852shot_2089.msa
#FORMAT      : EMSA/MAS spectral data file
#VERSION     : TC202v2.0 PIXL
#TITLE       : N/A
#DATE        :       Date in the format DD-MMM-YYYY, for example 07-JUL-2010
#TIME        :             The time of day at which the spectrum was recorded, in 24-hour format
#OWNER       : PIXL Flight Model       (PIXL will use this to indicate which instrument took the data.)
#NPOINTS     : 4096     Number of data points in the spectrum (This can be zero for configuration only files)
#NCOLUMNS    : 2     Number of data columns in the spectrum (This can be zero for configuration only files)
#XUNITS      : eV
#YUNITS      : COUNTS
#DATATYPE    : YY
#XPERCHAN    : 7.862, 7.881   eV per channel (separate by commas if more than one detector)
#OFFSET      : 18.5, -22.4         eV of first channel  (separate by commas if more than one detector
#SIGNALTYPE  : XRF
#YP_TEMP     : 2.62
#LIVETIME    : 8.59829, 8.56476   seconds (separate by commas if more than one detector)
#REALTIME    : 10, 10.0   seconds (separate by commas if more than one detector)
#SPECTRUM    : start of spectrum data
0, 0
0, 0
0, 0
0, 0
0, 0
0, 0
0, 0
0, 0
0, 1
0, 1
0, 3
44, 55
70, 49
6, 5
6, 1
85, 104
424, 435
120, 105
8, 6
3, 3
3, 8
19, 24
9, 8
7, 14
49, 59
98, 50
46, 20
16, 9
10, 3
6, 4
5, 5
2, 3
3, 9
51, 58
96, 106
22, 20
14, 17
17, 26
6, 6
2, 3
2, 9
7, 11
15, 17
16, 14
15, 21
7, 13
11, 8
9, 8
19, 10
48, 16
82, 20
53, 19
14, 33
44, 63
56, 83
23, 27
38, 37
422, 595
1884, 2130
1414, 1234
191, 160
39, 20
37, 13
88, 135
288, 328
221, 190
29, 32
6, 9
14, 15
19, 13
12, 8
4, 11
5, 7
6, 12
5, 11
6, 3
0, 7
8, 1
6, 10
3, 6
5, 6
3, 5
7, 3
7, 8
4, 5
1, 4
1, 1
2, 6
2, 3
3, 1
5, 4
2, 6
4, 2
1, 2
4, 9
5, 4
2, 3
1, 3
1, 9
0, 9
1, 6
1, 2
6, 1
1, 2
0, 3
4, 1
1, 3
3, 3
4, 1
4, 1
1, 2
7, 3
2, 2
2, 2
0, 3
6, 4
2, 7
5, 2
1, 2
1, 2
0, 3
2, 1
2, 2
2, 2
1, 1
0, 2
1, 0
1, 0
0, 0
0, 2
1, 1
0, 0
0, 1
1, 1
3, 3
1, 0
0, 3
0, 2
1, 0
3, 0
0, 0
0, 0
1, 1
0, 0
0, 0
0, 0
2, 0
3, 0
1, 0
0, 1
0, 1
0, 0
0, 0
0, 0
0, 0
0, 0
0, 0
1, 1
1, 0
0, 0
2, 0
0, 0
0, 0
1, 1
1, 1
2, 0
0, 1
0, 0
0, 1
1, 1
0, 0
0, 0
0, 1
0, 0
0, 0
0, 0
0, 0
0, 0
0, 0
0, 0
0, 0
0, 0
0, 0
0, 0
1, 0
0, 0
0, 0
0, 0
0, 0
0, 0
0, 0
0, 0
0, 0
0, 0
0, 0
0, 0
0, 0
0, 0
0, 0
0, 0
0, 0
0, 0
0, 1
0, 0
0, 0
0, 0
0, 0
0, 0
0, 0
0, 0
0, 0
0, 0
0, 0
0, 0
0, 0
0, 0
0, 0
0, 0
0, 0
0, 0
0, 0
0, 0
0, 0
0, 0
0, 0
0, 0
0, 0
0, 0
0, 0
0, 0
0, 0
0, 0
0, 0
0, 0
0, 0
0, 0
0, 0
0, 0
0, 0
0, 0
0, 0
0, 0
0, 0
0, 0
0, 0
0, 0
0, 0
0, 0
0, 0
0, 0
0, 0
0, 0
0, 0
0, 0
0, 0
0, 0
0, 0
0, 0
0, 0
0, 0
0, 0
0, 0
0, 0
0, 0
0, 0
0, 0
0, 0
0, 0
0, 0
0, 0
0, 0
0, 0
0, 0
0, 0
0, 0
0, 0
0, 0
0, 0
0, 0
0, 0
0, 0
0, 0
0, 0
0, 0
0, 0
0, 0
0, 0
0, 0
0, 0
0, 0
0, 0
0, 0
0, 0
0, 0
#ENDOFDATA     end of spectrum data

File: ps__0852shot_2090.msa
#FORMAT      : EMSA/MAS spectral data file
#VERSION     : TC202v2.0 PIXL
#TITLE       : N/A
#DATE        :       Date in the format DD-MMM-YYYY, for example 07-JUL-2010
#TIME        :             The time of day at which the spectrum was recorded, in 24-hour format
#OWNER       : PIXL Flight Model       (PIXL will use this to indicate which instrument took the data.)
#NPOINTS     : 4096     Number of data points in the spectrum (This can be zero for configuration only files)
#NCOLUMNS    : 2     Number of data columns in the spectrum (This can be zero for configuration only files)
#XUNITS      : eV
#YUNITS      : COUNTS
#DATATYPE    : YY
#XPERCHAN    : 7.862, 7.881   eV per channel (separate by commas if more than one detector)
#OFFSET      : 18.5, -22.4         eV of first channel  (separate by commas if more than one detector
#SIGNALTYPE  : XRF
#YP_TEMP     : 2.235
#LIVETIME    : 8.59962, 8.58154   seconds (separate by commas if more than one detector)
#REALTIME    : 10, 10.0   seconds (separate by commas if more than one detector)
#SPECTRUM    : start of spectrum data
0, 0
0, 0
0, 0
0, 0
0, 0
0, 0
0, 0
0, 1
1, 0
1, 0
0, 2
31, 33
54, 52
11, 3
4, 2
85, 116
439, 411
89, 115
10, 1
2, 1
1, 4
1, 4
3, 6
7, 2
21, 40
35, 31
29, 19
19, 12
1, 7
5, 3
3, 3
1, 2
1, 3
18, 29
40, 37
8, 4
7, 8
6, 9
5, 3
5, 8
5, 4
4, 7
9, 16
18, 23
12, 55
12, 33
16, 6
6, 3
17, 6
39, 9
33, 11
8, 12
9, 16
36, 45
65, 57
28, 15
53, 40
510, 590
2177, 2184
1582, 1295
212, 144
22, 15
35, 20
114, 114
346, 352
222, 183
25, 11
9, 11
7, 14
9, 10
8, 8
6, 10
3, 10
2, 12
8, 10
5, 6
2, 5
8, 6
7, 1
2, 5
7, 0
3, 3
2, 4
5, 4
5, 7
4, 3
4, 1
5, 5
1, 0
4, 3
8, 3
2, 1
7, 4
3, 5
2, 9
3, 5
2, 4
2, 1
8, 1
4, 0
3, 3
1, 1
1, 2
1, 2
3, 2
7, 0
2, 2
1, 0
4, 2
0, 5
1, 0
0, 4
3, 3
3, 1
0, 4
2, 6
4, 4
7, 5
2, 0
1, 2
1, 2
0, 2
4, 4
3, 0
1, 1
2, 1
1, 1
1, 3
0, 0
0, 0
1, 2
1, 3
0, 0
1, 1
0, 2
1, 1
0, 0
2, 0
0, 0
0, 0
1, 0
1, 0
0, 1
1, 0
0, 1
1, 0
1, 1
0, 0
2, 0
0, 1
0, 0
0, 1
0, 1
1, 0
1, 0
0, 0
0, 1
0, 1
0, 0
0, 0
0, 0
1, 1
0, 2
0, 0
0, 2
0, 1
0, 0
0, 0
0, 0
0, 0
0, 0
0, 0
0, 0
0, 0
1, 0
0, 0
1, 0
0, 0
0, 0
0, 0
1, 0
0, 1
0, 0
0, 0
2, 0
1, 0
0, 0
0, 0
0, 0
0, 0
0, 0
0, 0
0, 0
0, 0
0, 0
1, 0
0, 1
0, 0
0, 0
0, 0
0, 0
0, 0
0, 0
0, 0
0, 0
0, 0
0, 0
0, 0
0, 0
0, 0
0, 0
0, 0
0, 0
0, 0
0, 0
0, 0
0, 0
0, 0
0, 0
0, 0
0, 0
0, 0
0, 0
0, 0
0, 0
0, 0
0, 0
0, 0
0, 0
0, 0
0, 0
0, 0
0, 0
0, 0
0, 0
0, 0
0, 0
0, 0
0, 0
0, 0
0, 0
0, 0
0, 0
0, 0
0, 0
0, 0
0, 0
0, 0
0, 0
0, 0
0, 0
0, 0
0, 0
0, 0
0, 0
0, 0
0, 0
0, 0
0, 0
0, 0
0, 0
0, 0
0, 0
0, 0
0, 0
0, 0
0, 0
0, 0
0, 0
0, 0
0, 0
0, 0
0, 0
0, 0
0, 0
0, 0
0, 0
0, 0
0, 0
0, 0
0, 0
0, 0
0, 0
0, 0
0, 0
0, 0
0, 0
0, 0
0, 0
0, 0
0, 0
0, 0
0, 0
0, 0
#ENDOFDATA     end of spectrum data