Folder: data-repository/host_upload/06-09-2024/ps_0852/dump3 (part 25)

File: ps__0852shot_2218.msa
#FORMAT      : EMSA/MAS spectral data file
#VERSION     : TC202v2.0 PIXL
#TITLE       : N/A
#DATE        :       Date in the format DD-MMM-YYYY, for example 07-JUL-2010
#TIME        :             The time of day at which the spectrum was recorded, in 24-hour format
#OWNER       : PIXL Flight Model       (PIXL will use this to indicate which instrument took the data.)
#NPOINTS     : 4096     Number of data points in the spectrum (This can be zero for configuration only files)
#NCOLUMNS    : 2     Number of data columns in the spectrum (This can be zero for configuration only files)
#XUNITS      : eV
#YUNITS      : COUNTS
#DATATYPE    : YY
#XPERCHAN    : 7.862, 7.881   eV per channel (separate by commas if more than one detector)
#OFFSET      : 18.5, -22.4         eV of first channel  (separate by commas if more than one detector
#SIGNALTYPE  : XRF
#YP_TEMP     : 2.46
#LIVETIME    : 8.55612, 8.55975   seconds (separate by commas if more than one detector)
#REALTIME    : 10, 10.0   seconds (separate by commas if more than one detector)
#SPECTRUM    : start of spectrum data
0, 0
0, 0
0, 0
0, 0
0, 0
0, 0
0, 0
0, 0
1, 0
2, 0
0, 4
43, 51
53, 66
3, 12
2, 7
95, 103
453, 421
111, 106
8, 3
1, 1
0, 1
1, 6
1, 1
8, 9
31, 41
38, 41
19, 21
6, 9
3, 3
1, 3
3, 4
1, 1
2, 3
5, 7
18, 15
7, 2
0, 1
4, 3
5, 4
8, 7
11, 11
10, 16
17, 16
12, 12
15, 1
8, 4
8, 7
3, 13
10, 20
9, 22
16, 15
9, 6
15, 17
34, 53
52, 57
26, 25
34, 35
459, 591
2238, 2292
1666, 1350
221, 154
17, 11
21, 22
104, 112
330, 344
267, 198
46, 26
12, 6
13, 21
13, 5
4, 4
1, 1
3, 2
7, 3
6, 4
3, 5
6, 9
4, 8
1, 4
5, 8
9, 10
14, 3
8, 4
10, 6
9, 5
5, 4
3, 6
3, 2
2, 5
2, 6
4, 11
2, 11
6, 5
1, 2
3, 4
2, 6
5, 2
2, 2
6, 2
1, 2
2, 3
3, 0
2, 0
0, 2
1, 5
0, 2
2, 4
1, 4
4, 2
3, 0
5, 1
4, 2
3, 4
3, 1
2, 2
2, 4
5, 7
3, 4
1, 1
0, 1
1, 2
2, 1
2, 2
3, 0
0, 3
3, 1
1, 3
1, 1
3, 0
1, 0
0, 3
1, 0
1, 1
0, 2
0, 1
0, 2
0, 1
2, 1
0, 1
1, 0
1, 1
0, 1
0, 0
0, 0
1, 0
2, 0
1, 0
0, 1
0, 0
0, 1
0, 1
0, 3
2, 0
0, 0
0, 0
0, 0
0, 1
1, 0
1, 0
0, 0
0, 0
0, 0
0, 2
0, 0
0, 0
0, 1
0, 0
1, 0
0, 0
1, 0
1, 0
2, 0
0, 0
2, 0
0, 0
0, 0
0, 0
0, 0
0, 0
0, 0
0, 0
0, 0
0, 0
0, 0
0, 0
1, 0
0, 0
0, 0
0, 0
0, 0
0, 0
0, 0
0, 0
0, 0
0, 0
0, 0
0, 0
0, 0
0, 0
0, 0
0, 0
0, 0
0, 0
0, 0
0, 0
0, 0
0, 0
0, 0
0, 0
0, 0
0, 0
0, 0
0, 0
0, 0
0, 0
0, 0
0, 0
0, 0
0, 0
0, 0
0, 0
0, 0
0, 0
0, 0
0, 0
0, 0
0, 0
0, 0
0, 0
0, 0
0, 0
0, 0
0, 0
0, 0
0, 0
0, 0
0, 0
0, 0
0, 0
0, 0
0, 0
0, 0
0, 0
0, 0
0, 0
0, 0
0, 0
0, 0
0, 0
0, 0
0, 0
0, 0
0, 0
0, 0
0, 0
0, 0
0, 0
0, 0
0, 0
0, 0
0, 0
0, 0
0, 0
0, 0
0, 0
0, 0
0, 0
0, 0
0, 0
0, 0
0, 0
0, 0
0, 0
0, 0
0, 0
0, 0
0, 0
0, 0
0, 0
0, 0
0, 0
0, 0
0, 0
0, 0
0, 0
0, 0
0, 0
0, 0
0, 0
0, 0
0, 0
0, 0
0, 0
0, 0
#ENDOFDATA     end of spectrum data

File: ps__0852shot_2219.msa
#FORMAT      : EMSA/MAS spectral data file
#VERSION     : TC202v2.0 PIXL
#TITLE       : N/A
#DATE        :       Date in the format DD-MMM-YYYY, for example 07-JUL-2010
#TIME        :             The time of day at which the spectrum was recorded, in 24-hour format
#OWNER       : PIXL Flight Model       (PIXL will use this to indicate which instrument took the data.)
#NPOINTS     : 4096     Number of data points in the spectrum (This can be zero for configuration only files)
#NCOLUMNS    : 2     Number of data columns in the spectrum (This can be zero for configuration only files)
#XUNITS      : eV
#YUNITS      : COUNTS
#DATATYPE    : YY
#XPERCHAN    : 7.862, 7.881   eV per channel (separate by commas if more than one detector)
#OFFSET      : 18.5, -22.4         eV of first channel  (separate by commas if more than one detector
#SIGNALTYPE  : XRF
#YP_TEMP     : 2.428
#LIVETIME    : 8.55652, 8.36658   seconds (separate by commas if more than one detector)
#REALTIME    : 10, 10.0   seconds (separate by commas if more than one detector)
#SPECTRUM    : start of spectrum data
0, 0
0, 0
0, 0
0, 0
0, 0
0, 0
0, 0
0, 0
0, 4
1, 9
5, 5
51, 45
79, 49
11, 4
4, 5
83, 94
445, 435
88, 96
1, 2
2, 0
1, 1
4, 5
5, 0
2, 38
28, 451
38, 521
19, 60
19, 7
7, 5
6, 2
4, 1
3, 1
2, 2
10, 3
9, 11
3, 8
4, 2
5, 3
4, 11
3, 3
3, 10
12, 9
23, 20
52, 9
104, 3
81, 4
9, 5
6, 7
1, 58
14, 50
7, 20
11, 10
7, 7
52, 42
70, 55
19, 17
34, 36
492, 606
2233, 2244
1737, 1266
210, 130
20, 15
15, 21
94, 109
354, 342
235, 186
40, 28
12, 11
7, 11
8, 5
4, 5
7, 8
12, 31
30, 43
29, 14
5, 6
5, 4
1, 4
4, 8
2, 10
6, 2
8, 3
5, 4
4, 6
5, 5
6, 4
3, 4
2, 2
7, 2
2, 2
3, 4
5, 3
3, 6
3, 0
2, 2
8, 8
4, 6
3, 3
1, 6
2, 4
2, 1
3, 4
2, 0
0, 1
3, 1
3, 1
2, 4
4, 4
2, 4
0, 2
2, 5
5, 1
3, 4
3, 1
2, 2
3, 1
6, 8
2, 1
0, 1
2, 1
2, 2
1, 2
0, 3
1, 1
3, 1
0, 3
4, 0
2, 0
0, 0
1, 0
0, 0
1, 1
4, 1
1, 0
1, 0
1, 0
2, 0
0, 0
2, 0
2, 1
3, 0
2, 0
0, 0
1, 1
1, 1
1, 0
0, 0
1, 2
0, 0
1, 0
0, 0
1, 0
0, 1
1, 0
0, 0
0, 0
0, 0
0, 0
2, 0
1, 1
0, 1
0, 0
0, 0
1, 0
2, 0
0, 0
0, 0
0, 0
0, 0
0, 0
0, 0
0, 0
0, 0
1, 0
0, 0
0, 1
0, 0
0, 0
0, 0
1, 0
0, 0
0, 1
1, 0
0, 0
0, 0
0, 0
0, 0
0, 0
1, 0
0, 0
0, 0
0, 0
1, 0
0, 0
0, 0
0, 0
0, 0
0, 0
0, 0
0, 0
0, 0
0, 0
0, 0
0, 0
0, 0
0, 0
0, 0
0, 0
0, 0
0, 0
0, 0
0, 0
0, 0
0, 0
0, 0
0, 0
0, 0
0, 0
0, 0
0, 0
0, 0
0, 0
0, 0
0, 1
0, 0
0, 0
0, 0
0, 0
0, 0
0, 0
0, 0
0, 0
0, 0
0, 0
0, 0
0, 0
0, 0
0, 0
0, 0
0, 0
0, 0
0, 0
0, 0
0, 0
0, 0
0, 0
0, 0
0, 0
0, 0
0, 0
0, 0
0, 0
0, 0
0, 0
0, 0
0, 0
0, 0
0, 0
0, 0
0, 0
0, 0
0, 0
0, 0
0, 0
0, 0
0, 0
0, 0
0, 0
0, 0
0, 0
0, 0
0, 0
0, 0
0, 0
0, 0
0, 0
0, 0
0, 0
0, 0
0, 0
0, 0
0, 0
0, 0
0, 0
0, 0
0, 0
0, 0
0, 0
0, 0
0, 0
0, 0
0, 0
0, 0
0, 0
#ENDOFDATA     end of spectrum data

File: ps__0852shot_2220.msa
#FORMAT      : EMSA/MAS spectral data file
#VERSION     : TC202v2.0 PIXL
#TITLE       : N/A
#DATE        :       Date in the format DD-MMM-YYYY, for example 07-JUL-2010
#TIME        :             The time of day at which the spectrum was recorded, in 24-hour format
#OWNER       : PIXL Flight Model       (PIXL will use this to indicate which instrument took the data.)
#NPOINTS     : 4096     Number of data points in the spectrum (This can be zero for configuration only files)
#NCOLUMNS    : 2     Number of data columns in the spectrum (This can be zero for configuration only files)
#XUNITS      : eV
#YUNITS      : COUNTS
#DATATYPE    : YY
#XPERCHAN    : 7.862, 7.881   eV per channel (separate by commas if more than one detector)
#OFFSET      : 18.5, -22.4         eV of first channel  (separate by commas if more than one detector
#SIGNALTYPE  : XRF
#YP_TEMP     : 2.556
#LIVETIME    : 8.56199, 8.5688   seconds (separate by commas if more than one detector)
#REALTIME    : 10, 10.0   seconds (separate by commas if more than one detector)
#SPECTRUM    : start of spectrum data
0, 0
0, 0
0, 0
0, 0
0, 0
0, 0
0, 0
0, 2
2, 17
0, 45
6, 14
51, 34
75, 75
5, 6
5, 5
81, 62
447, 428
127, 98
9, 11
0, 3
2, 2
5, 4
6, 4
5, 91
16, 1856
26, 2679
15, 297
8, 12
4, 3
13, 3
10, 0
6, 4
3, 6
14, 12
12, 17
3, 7
2, 5
4, 2
2, 4
6, 6
3, 3
5, 12
11, 15
50, 11
146, 3
58, 6
10, 3
8, 7
4, 41
11, 115
15, 28
8, 8
8, 7
41, 48
74, 45
22, 28
34, 36
485, 600
2272, 2265
1604, 1342
195, 132
15, 23
14, 35
99, 127
351, 346
219, 188
27, 26
3, 4
11, 5
3, 6
3, 2
0, 11
17, 44
20, 72
19, 34
2, 12
6, 3
6, 5
2, 3
6, 2
2, 3
4, 3
1, 9
3, 4
7, 4
6, 3
2, 6
3, 6
2, 7
7, 3
4, 2
5, 1
1, 4
7, 2
9, 1
11, 2
11, 1
3, 6
2, 13
2, 3
4, 5
3, 2
2, 5
3, 3
3, 2
0, 1
0, 3
4, 5
1, 5
1, 3
2, 4
3, 4
1, 2
3, 2
3, 0
0, 2
3, 4
4, 3
5, 0
4, 3
2, 0
3, 0
2, 0
1, 1
0, 1
1, 0
1, 0
1, 1
1, 0
0, 1
5, 1
0, 1
3, 3
0, 2
0, 0
2, 1
0, 1
1, 0
0, 0
1, 0
1, 0
0, 1
2, 1
0, 0
0, 1
4, 2
0, 1
1, 0
1, 3
0, 0
0, 0
0, 0
0, 0
0, 2
1, 1
0, 0
0, 0
1, 0
0, 2
1, 0
0, 0
0, 0
1, 0
1, 0
0, 0
0, 0
0, 0
0, 0
1, 1
1, 0
0, 1
0, 0
1, 0
0, 0
0, 0
0, 0
1, 1
0, 0
0, 0
0, 0
0, 0
0, 0
0, 0
0, 0
1, 0
0, 0
0, 0
0, 0
1, 0
0, 0
1, 0
0, 0
0, 0
0, 0
0, 0
0, 0
0, 0
0, 0
0, 0
0, 0
0, 0
0, 1
0, 1
0, 0
1, 0
0, 0
0, 1
0, 0
0, 0
0, 0
0, 0
0, 0
0, 0
0, 0
0, 0
0, 0
0, 0
0, 0
0, 0
0, 0
0, 0
0, 0
0, 0
0, 0
0, 0
0, 0
0, 0
0, 0
0, 0
0, 0
0, 0
0, 0
0, 0
0, 0
0, 0
0, 0
0, 0
0, 0
0, 0
0, 0
0, 0
0, 0
0, 0
0, 0
0, 0
0, 0
0, 0
0, 0
0, 0
0, 0
0, 0
0, 0
0, 0
0, 0
0, 0
0, 0
0, 0
0, 0
0, 0
0, 0
0, 0
0, 0
0, 0
0, 0
0, 0
0, 0
0, 0
0, 0
0, 0
0, 0
0, 0
0, 0
0, 0
0, 0
0, 0
0, 0
0, 0
0, 0
0, 0
0, 0
0, 0
0, 0
0, 0
0, 0
0, 0
0, 0
0, 0
0, 0
0, 0
0, 0
0, 0
0, 0
0, 0
0, 0
#ENDOFDATA     end of spectrum data

File: ps__0852shot_2221.msa
#FORMAT      : EMSA/MAS spectral data file
#VERSION     : TC202v2.0 PIXL
#TITLE       : N/A
#DATE        :       Date in the format DD-MMM-YYYY, for example 07-JUL-2010
#TIME        :             The time of day at which the spectrum was recorded, in 24-hour format
#OWNER       : PIXL Flight Model       (PIXL will use this to indicate which instrument took the data.)
#NPOINTS     : 4096     Number of data points in the spectrum (This can be zero for configuration only files)
#NCOLUMNS    : 2     Number of data columns in the spectrum (This can be zero for configuration only files)
#XUNITS      : eV
#YUNITS      : COUNTS
#DATATYPE    : YY
#XPERCHAN    : 7.862, 7.881   eV per channel (separate by commas if more than one detector)
#OFFSET      : 18.5, -22.4         eV of first channel  (separate by commas if more than one detector
#SIGNALTYPE  : XRF
#YP_TEMP     : 2.043
#LIVETIME    : 8.56364, 8.5786   seconds (separate by commas if more than one detector)
#REALTIME    : 10, 10.0   seconds (separate by commas if more than one detector)
#SPECTRUM    : start of spectrum data
0, 0
0, 0
0, 0
0, 0
0, 0
0, 0
0, 0
0, 0
2, 23
1, 77
2, 18
56, 49
69, 66
6, 5
3, 9
92, 89
455, 416
146, 86
0, 5
1, 4
1, 4
6, 7
1, 9
4, 161
25, 2817
26, 4228
13, 410
9, 13
6, 5
6, 2
10, 2
4, 2
0, 3
7, 9
20, 13
3, 4
2, 11
8, 3
4, 16
2, 14
5, 8
5, 8
20, 13
49, 3
140, 6
58, 10
8, 6
7, 8
10, 65
8, 106
7, 35
7, 9
8, 3
40, 35
52, 53
29, 26
41, 38
443, 571
2237, 2305
1580, 1401
216, 167
16, 28
21, 59
112, 146
348, 354
214, 188
38, 24
8, 7
24, 10
12, 2
4, 7
3, 8
8, 29
33, 70
16, 47
9, 9
14, 2
4, 2
4, 2
2, 5
8, 5
5, 8
3, 13
4, 9
5, 7
2, 5
3, 10
3, 12
4, 5
2, 4
2, 3
3, 2
1, 0
8, 3
13, 2
18, 2
8, 4
6, 10
1, 10
2, 5
1, 3
0, 2
2, 1
3, 4
1, 1
0, 0
2, 2
0, 2
2, 4
0, 2
3, 4
4, 3
2, 5
1, 8
0, 3
5, 1
6, 3
3, 3
0, 4
2, 0
0, 4
1, 2
2, 2
2, 1
2, 0
1, 1
2, 0
2, 1
1, 0
1, 1
0, 0
1, 2
2, 1
5, 1
0, 0
2, 0
2, 0
0, 1
0, 0
1, 1
1, 0
0, 1
1, 0
2, 0
0, 0
0, 0
1, 1
2, 0
1, 1
0, 0
0, 0
0, 0
1, 1
0, 0
0, 1
0, 0
0, 1
1, 1
0, 0
1, 1
0, 1
0, 0
0, 1
0, 0
0, 0
1, 0
2, 0
0, 0
0, 0
1, 0
0, 1
0, 1
0, 1
0, 0
0, 0
1, 0
0, 0
0, 0
0, 0
0, 0
0, 0
0, 0
0, 0
0, 0
0, 0
0, 0
0, 0
0, 1
0, 0
0, 0
0, 0
0, 0
0, 0
0, 0
0, 0
0, 0
0, 0
0, 1
0, 0
0, 0
0, 0
0, 0
0, 0
0, 0
0, 1
0, 1
0, 0
0, 0
0, 0
0, 0
0, 0
0, 0
0, 0
0, 0
0, 0
0, 0
0, 0
0, 0
0, 0
0, 0
0, 0
0, 0
0, 0
0, 0
0, 0
0, 0
0, 0
0, 0
0, 0
0, 0
0, 0
0, 0
0, 0
0, 0
0, 0
0, 0
0, 0
0, 0
0, 0
0, 0
0, 0
0, 0
0, 0
0, 0
0, 0
0, 0
0, 0
0, 0
0, 0
0, 0
0, 0
0, 0
0, 0
0, 0
0, 0
0, 0
0, 0
0, 0
0, 0
0, 0
0, 0
0, 0
0, 0
0, 0
0, 0
0, 0
0, 0
0, 0
0, 0
0, 0
0, 0
0, 0
0, 0
0, 0
0, 0
0, 0
0, 0
0, 0
0, 0
0, 0
0, 0
0, 0
0, 0
0, 0
0, 0
0, 0
0, 0
0, 0
0, 0
0, 0
0, 0
0, 0
0, 0
0, 0
#ENDOFDATA     end of spectrum data

File: ps__0852shot_2222.msa
#FORMAT      : EMSA/MAS spectral data file
#VERSION     : TC202v2.0 PIXL
#TITLE       : N/A
#DATE        :       Date in the format DD-MMM-YYYY, for example 07-JUL-2010
#TIME        :             The time of day at which the spectrum was recorded, in 24-hour format
#OWNER       : PIXL Flight Model       (PIXL will use this to indicate which instrument took the data.)
#NPOINTS     : 4096     Number of data points in the spectrum (This can be zero for configuration only files)
#NCOLUMNS    : 2     Number of data columns in the spectrum (This can be zero for configuration only files)
#XUNITS      : eV
#YUNITS      : COUNTS
#DATATYPE    : YY
#XPERCHAN    : 7.862, 7.881   eV per channel (separate by commas if more than one detector)
#OFFSET      : 18.5, -22.4         eV of first channel  (separate by commas if more than one detector
#SIGNALTYPE  : XRF
#YP_TEMP     : 2.588
#LIVETIME    : 8.54274, 8.58088   seconds (separate by commas if more than one detector)
#REALTIME    : 10, 10.0   seconds (separate by commas if more than one detector)
#SPECTRUM    : start of spectrum data
0, 0
0, 0
0, 0
0, 0
0, 0
0, 0
0, 0
0, 0
0, 13
1, 65
1, 15
50, 56
67, 61
10, 11
5, 5
87, 121
475, 446
119, 109
3, 5
0, 0
1, 2
1, 6
1, 13
2, 97
23, 2231
17, 3296
16, 302
8, 19
6, 1
2, 1
1, 4
1, 5
1, 2
9, 6
13, 10
9, 4
7, 0
7, 8
8, 14
4, 14
1, 14
7, 9
17, 12
13, 14
22, 18
8, 15
7, 8
4, 6
5, 27
9, 59
6, 32
8, 10
6, 21
40, 43
66, 63
23, 23
32, 50
467, 543
2211, 2300
1598, 1370
192, 128
18, 17
27, 37
110, 130
323, 356
201, 207
28, 55
8, 35
7, 15
9, 6
4, 7
3, 4
5, 12
4, 36
7, 39
5, 27
6, 14
4, 2
4, 4
8, 4
5, 6
3, 8
3, 12
1, 10
2, 0
1, 6
6, 8
10, 13
4, 6
1, 7
2, 4
1, 5
1, 1
7, 2
7, 1
11, 4
5, 6
8, 3
3, 3
2, 0
2, 4
1, 3
2, 1
1, 1
4, 3
3, 3
3, 2
3, 1
1, 1
0, 2
1, 3
4, 3
1, 2
3, 1
1, 1
1, 4
0, 3
0, 2
4, 4
1, 2
1, 2
1, 2
2, 1
4, 2
0, 4
1, 1
1, 2
0, 1
0, 1
0, 0
1, 1
1, 1
1, 1
1, 1
0, 1
1, 1
0, 0
0, 1
0, 1
0, 0
0, 2
0, 1
0, 3
1, 1
0, 1
1, 0
0, 0
1, 0
0, 0
0, 0
0, 1
1, 1
0, 0
1, 0
0, 0
1, 0
0, 1
1, 0
0, 1
1, 0
0, 0
0, 1
0, 0
0, 1
0, 0
0, 0
0, 1
0, 0
0, 0
1, 0
0, 0
1, 1
0, 0
0, 0
0, 0
0, 0
0, 0
1, 0
0, 0
0, 0
1, 0
0, 0
0, 0
2, 1
0, 0
0, 0
0, 0
0, 0
0, 0
0, 0
0, 0
0, 0
0, 0
0, 0
0, 0
0, 0
0, 0
0, 0
0, 0
0, 0
0, 0
0, 0
0, 0
0, 0
0, 0
0, 0
0, 0
0, 0
0, 0
0, 0
0, 0
0, 0
0, 0
0, 0
0, 0
0, 0
0, 1
0, 1
0, 0
0, 0
0, 0
0, 0
0, 0
0, 0
0, 0
0, 0
0, 0
0, 0
0, 0
0, 0
0, 0
0, 0
0, 0
0, 0
0, 0
0, 0
0, 0
0, 0
0, 0
0, 0
0, 0
0, 0
0, 0
0, 0
0, 0
0, 0
0, 0
0, 0
0, 0
0, 0
0, 0
0, 0
0, 0
0, 0
0, 0
0, 0
0, 0
0, 0
0, 0
0, 0
0, 0
0, 0
0, 0
0, 0
0, 0
0, 0
0, 0
0, 0
0, 0
0, 0
0, 0
0, 0
0, 0
0, 0
0, 0
0, 0
0, 0
0, 0
0, 0
0, 0
0, 0
0, 0
0, 0
0, 0
0, 0
0, 0
0, 0
0, 0
0, 0
0, 0
0, 0
0, 0
0, 0
0, 0
#ENDOFDATA     end of spectrum data

File: ps__0852shot_2223.msa
#FORMAT      : EMSA/MAS spectral data file
#VERSION     : TC202v2.0 PIXL
#TITLE       : N/A
#DATE        :       Date in the format DD-MMM-YYYY, for example 07-JUL-2010
#TIME        :             The time of day at which the spectrum was recorded, in 24-hour format
#OWNER       : PIXL Flight Model       (PIXL will use this to indicate which instrument took the data.)
#NPOINTS     : 4096     Number of data points in the spectrum (This can be zero for configuration only files)
#NCOLUMNS    : 2     Number of data columns in the spectrum (This can be zero for configuration only files)
#XUNITS      : eV
#YUNITS      : COUNTS
#DATATYPE    : YY
#XPERCHAN    : 7.862, 7.881   eV per channel (separate by commas if more than one detector)
#OFFSET      : 18.5, -22.4         eV of first channel  (separate by commas if more than one detector
#SIGNALTYPE  : XRF
#YP_TEMP     : 2.46
#LIVETIME    : 8.54637, 8.54819   seconds (separate by commas if more than one detector)
#REALTIME    : 10, 10.0   seconds (separate by commas if more than one detector)
#SPECTRUM    : start of spectrum data
0, 0
0, 0
0, 0
0, 0
0, 0
0, 0
0, 0
0, 0
0, 2
0, 2
6, 2
46, 54
56, 53
8, 8
3, 4
117, 96
460, 416
94, 104
8, 6
1, 0
5, 1
3, 5
4, 13
2, 15
14, 122
16, 189
14, 18
15, 7
6, 1
2, 4
2, 3
2, 1
1, 0
8, 6
15, 11
4, 2
9, 3
11, 3
77, 0
98, 4
11, 3
7, 6
7, 12
15, 12
8, 15
5, 13
2, 10
4, 3
8, 5
17, 12
8, 11
3, 15
10, 33
37, 78
56, 56
20, 16
44, 35
515, 578
2285, 2393
1620, 1416
223, 150
13, 18
22, 17
79, 118
359, 376
241, 201
31, 65
10, 67
14, 29
10, 8
3, 4
3, 2
1, 4
3, 8
3, 30
6, 37
13, 20
24, 6
17, 3
2, 2
6, 3
2, 3
3, 7
2, 1
7, 3
4, 3
8, 2
14, 3
7, 2
6, 2
0, 1
1, 4
4, 5
4, 4
3, 2
6, 3
6, 3
8, 3
4, 1
2, 1
0, 2
2, 0
3, 0
0, 2
2, 5
1, 3
3, 4
1, 0
2, 0
1, 1
0, 1
4, 2
2, 2
3, 2
3, 4
3, 2
9, 4
7, 1
2, 5
2, 1
2, 1
0, 3
2, 1
0, 2
0, 2
1, 2
1, 0
1, 3
1, 3
1, 0
1, 3
1, 1
0, 0
1, 2
2, 0
0, 0
0, 2
1, 0
0, 0
0, 0
3, 2
0, 1
0, 0
0, 0
1, 0
0, 0
1, 0
2, 0
0, 0
0, 1
2, 0
1, 1
1, 0
2, 0
0, 2
0, 0
0, 0
0, 0
2, 0
0, 0
0, 1
0, 0
0, 0
1, 0
0, 0
1, 0
0, 0
0, 0
0, 0
1, 1
0, 0
1, 0
0, 1
0, 0
0, 0
0, 0
0, 0
0, 1
1, 0
0, 0
0, 1
0, 0
0, 0
0, 0
0, 0
0, 0
0, 0
0, 0
0, 0
0, 0
0, 0
0, 0
0, 0
0, 0
1, 0
0, 0
0, 0
0, 0
0, 0
0, 0
0, 0
0, 0
0, 0
0, 0
0, 0
0, 0
0, 0
0, 0
0, 0
0, 0
0, 0
0, 0
0, 0
0, 0
0, 0
0, 0
0, 0
0, 0
0, 0
0, 0
0, 0
1, 0
0, 0
0, 0
0, 0
0, 0
0, 0
0, 0
0, 0
0, 0
0, 0
0, 0
0, 0
0, 0
0, 0
0, 0
0, 0
0, 0
0, 0
0, 0
0, 0
0, 0
0, 0
0, 0
0, 0
0, 0
0, 0
0, 0
0, 0
0, 0
0, 0
0, 0
0, 0
0, 0
0, 0
0, 0
0, 0
0, 0
0, 0
0, 0
0, 0
0, 0
0, 0
0, 0
0, 0
0, 0
0, 0
0, 0
0, 0
0, 0
0, 0
0, 0
0, 0
0, 0
0, 0
0, 0
0, 0
0, 0
0, 0
0, 0
0, 0
0, 0
0, 0
0, 0
0, 0
0, 0
0, 0
0, 0
0, 0
0, 0
0, 0
0, 0
0, 0
0, 0
#ENDOFDATA     end of spectrum data

File: ps__0852shot_2224.msa
#FORMAT      : EMSA/MAS spectral data file
#VERSION     : TC202v2.0 PIXL
#TITLE       : N/A
#DATE        :       Date in the format DD-MMM-YYYY, for example 07-JUL-2010
#TIME        :             The time of day at which the spectrum was recorded, in 24-hour format
#OWNER       : PIXL Flight Model       (PIXL will use this to indicate which instrument took the data.)
#NPOINTS     : 4096     Number of data points in the spectrum (This can be zero for configuration only files)
#NCOLUMNS    : 2     Number of data columns in the spectrum (This can be zero for configuration only files)
#XUNITS      : eV
#YUNITS      : COUNTS
#DATATYPE    : YY
#XPERCHAN    : 7.862, 7.881   eV per channel (separate by commas if more than one detector)
#OFFSET      : 18.5, -22.4         eV of first channel  (separate by commas if more than one detector
#SIGNALTYPE  : XRF
#YP_TEMP     : 2.267
#LIVETIME    : 8.54651, 8.57987   seconds (separate by commas if more than one detector)
#REALTIME    : 10, 10.0   seconds (separate by commas if more than one detector)
#SPECTRUM    : start of spectrum data
0, 0
0, 0
0, 0
0, 0
0, 0
0, 0
0, 0
0, 0
0, 1
2, 0
1, 1
41, 38
64, 51
4, 4
3, 5
118, 92
450, 376
106, 85
6, 4
0, 2
3, 3
1, 4
1, 16
3, 6
12, 9
27, 19
14, 13
8, 19
8, 1
1, 0
2, 4
2, 1
2, 2
22, 10
20, 14
5, 5
1, 2
14, 5
71, 1
68, 5
7, 5
11, 4
12, 12
6, 18
6, 25
3, 21
2, 4
5, 5
8, 6
22, 10
15, 14
8, 6
8, 44
35, 70
60, 69
16, 16
25, 38
457, 591
2265, 2163
1718, 1296
245, 135
15, 22
11, 24
95, 116
352, 336
248, 200
34, 77
6, 45
8, 20
10, 3
3, 3
5, 6
3, 4
3, 4
11, 23
10, 25
16, 20
19, 6
7, 5
4, 4
3, 2
3, 4
8, 4
2, 6
1, 6
3, 2
10, 1
12, 3
7, 4
3, 5
6, 5
3, 3
1, 2
4, 1
4, 4
3, 3
11, 0
2, 1
2, 2
1, 2
2, 3
1, 1
0, 1
4, 2
1, 3
3, 7
4, 3
1, 3
3, 0
0, 2
1, 0
2, 2
0, 2
2, 1
2, 0
3, 0
5, 3
2, 3
0, 0
0, 3
0, 2
0, 2
2, 2
0, 4
3, 2
2, 1
1, 1
0, 2
1, 3
1, 1
0, 0
0, 1
1, 1
0, 1
0, 0
1, 1
0, 1
0, 0
0, 1
0, 1
0, 1
1, 0
0, 0
0, 0
1, 0
0, 0
0, 1
0, 1
0, 1
1, 0
1, 0
0, 0
0, 0
1, 0
1, 0
0, 1
0, 0
0, 1
1, 1
0, 0
0, 0
0, 0
1, 0
0, 0
0, 0
1, 0
0, 0
0, 0
0, 1
0, 0
0, 0
0, 0
0, 2
1, 0
0, 0
0, 0
0, 1
0, 0
0, 0
0, 0
0, 0
0, 0
0, 0
2, 0
0, 0
0, 0
0, 0
0, 0
0, 0
0, 0
0, 1
0, 0
0, 0
0, 0
0, 0
0, 0
0, 0
1, 0
0, 0
0, 0
0, 0
0, 0
0, 0
0, 0
0, 0
0, 0
0, 0
0, 0
0, 0
0, 0
0, 0
0, 0
0, 0
0, 0
0, 0
0, 0
0, 0
0, 0
0, 0
0, 0
0, 0
0, 0
0, 0
0, 0
0, 0
0, 0
0, 0
0, 0
0, 0
0, 0
0, 0
0, 0
0, 0
0, 0
0, 0
0, 0
0, 0
0, 0
0, 0
0, 0
0, 0
0, 0
0, 0
0, 0
0, 0
0, 0
0, 0
0, 0
0, 0
0, 0
0, 0
0, 0
0, 0
0, 0
0, 0
0, 0
0, 0
0, 0
0, 0
0, 0
0, 0
0, 0
0, 0
0, 0
0, 0
0, 0
0, 0
0, 0
0, 0
0, 0
0, 0
0, 0
0, 0
0, 0
0, 0
0, 0
0, 0
0, 0
0, 0
0, 0
0, 0
0, 0
0, 0
0, 0
0, 0
0, 0
0, 0
0, 0
0, 0
0, 0
0, 0
0, 0
0, 0
0, 0
#ENDOFDATA     end of spectrum data

File: ps__0852shot_2225.msa
#FORMAT      : EMSA/MAS spectral data file
#VERSION     : TC202v2.0 PIXL
#TITLE       : N/A
#DATE        :       Date in the format DD-MMM-YYYY, for example 07-JUL-2010
#TIME        :             The time of day at which the spectrum was recorded, in 24-hour format
#OWNER       : PIXL Flight Model       (PIXL will use this to indicate which instrument took the data.)
#NPOINTS     : 4096     Number of data points in the spectrum (This can be zero for configuration only files)
#NCOLUMNS    : 2     Number of data columns in the spectrum (This can be zero for configuration only files)
#XUNITS      : eV
#YUNITS      : COUNTS
#DATATYPE    : YY
#XPERCHAN    : 7.862, 7.881   eV per channel (separate by commas if more than one detector)
#OFFSET      : 18.5, -22.4         eV of first channel  (separate by commas if more than one detector
#SIGNALTYPE  : XRF
#YP_TEMP     : 2.364
#LIVETIME    : 8.54768, 8.6005   seconds (separate by commas if more than one detector)
#REALTIME    : 10, 10.0   seconds (separate by commas if more than one detector)
#SPECTRUM    : start of spectrum data
0, 0
0, 0
0, 0
0, 0
0, 0
0, 0
0, 0
2, 0
0, 0
1, 2
2, 2
51, 48
71, 69
8, 5
7, 6
118, 98
460, 422
123, 98
10, 4
2, 1
2, 1
2, 3
2, 8
8, 0
29, 25
38, 42
19, 14
18, 9
6, 8
1, 2
2, 3
5, 6
2, 2
13, 15
29, 13
6, 3
6, 12
18, 6
37, 5
26, 5
10, 4
7, 9
12, 12
8, 12
6, 5
8, 18
10, 4
2, 4
4, 11
14, 12
12, 14
10, 9
6, 29
39, 79
66, 72
23, 17
38, 35
488, 605
2189, 2273
1673, 1409
204, 154
20, 13
13, 24
97, 141
323, 328
213, 205
21, 48
9, 33
11, 27
7, 9
5, 2
7, 5
6, 7
3, 6
3, 14
9, 30
4, 16
13, 11
5, 2
6, 4
4, 6
7, 2
5, 4
1, 5
5, 6
4, 3
11, 6
10, 4
3, 5
4, 3
4, 1
3, 2
4, 4
4, 4
3, 3
4, 0
9, 4
4, 2
3, 3
2, 4
2, 3
1, 0
1, 4
4, 6
4, 9
1, 3
3, 3
2, 4
0, 2
0, 4
0, 2
1, 2
1, 3
1, 0
1, 0
3, 1
8, 9
1, 3
3, 3
2, 0
2, 1
1, 1
1, 2
1, 1
2, 1
1, 1
1, 1
0, 2
1, 1
2, 2
0, 2
0, 2
1, 1
1, 0
3, 0
0, 2
1, 0
0, 0
1, 1
0, 2
2, 0
1, 2
1, 0
1, 0
0, 0
1, 1
0, 0
1, 0
0, 0
0, 1
0, 1
0, 0
0, 0
0, 2
0, 0
0, 0
1, 0
0, 0
0, 0
0, 1
0, 1
0, 0
1, 1
0, 1
0, 1
0, 0
0, 0
1, 0
0, 0
0, 0
0, 0
0, 0
1, 0
0, 0
0, 0
0, 0
0, 2
0, 0
0, 0
0, 0
1, 0
0, 0
1, 0
0, 0
1, 0
0, 0
0, 0
0, 0
0, 0
0, 0
1, 0
0, 0
1, 0
0, 0
1, 0
0, 0
0, 0
0, 0
0, 0
0, 0
0, 0
0, 0
0, 0
0, 0
0, 0
0, 0
0, 0
0, 0
0, 0
0, 0
0, 0
0, 0
0, 0
0, 0
0, 0
0, 0
0, 0
0, 0
0, 0
0, 0
0, 0
0, 0
0, 0
0, 0
0, 0
0, 0
0, 0
0, 0
0, 0
0, 0
0, 0
0, 0
0, 0
0, 0
0, 0
0, 0
0, 0
0, 0
0, 0
0, 0
0, 0
0, 0
0, 0
0, 0
0, 0
0, 0
0, 0
0, 0
0, 0
0, 0
0, 0
0, 0
0, 0
0, 0
0, 0
0, 0
0, 0
0, 0
0, 0
0, 0
0, 0
0, 0
0, 0
0, 0
0, 0
0, 0
0, 0
0, 0
0, 0
0, 0
0, 0
0, 0
0, 0
0, 0
0, 0
0, 0
0, 0
0, 0
0, 0
0, 0
0, 0
0, 0
0, 0
0, 0
0, 0
0, 0
0, 0
0, 0
0, 0
0, 0
0, 0
0, 0
0, 0
0, 0
#ENDOFDATA     end of spectrum data

File: ps__0852shot_2226.msa
#FORMAT      : EMSA/MAS spectral data file
#VERSION     : TC202v2.0 PIXL
#TITLE       : N/A
#DATE        :       Date in the format DD-MMM-YYYY, for example 07-JUL-2010
#TIME        :             The time of day at which the spectrum was recorded, in 24-hour format
#OWNER       : PIXL Flight Model       (PIXL will use this to indicate which instrument took the data.)
#NPOINTS     : 4096     Number of data points in the spectrum (This can be zero for configuration only files)
#NCOLUMNS    : 2     Number of data columns in the spectrum (This can be zero for configuration only files)
#XUNITS      : eV
#YUNITS      : COUNTS
#DATATYPE    : YY
#XPERCHAN    : 7.862, 7.881   eV per channel (separate by commas if more than one detector)
#OFFSET      : 18.5, -22.4         eV of first channel  (separate by commas if more than one detector
#SIGNALTYPE  : XRF
#YP_TEMP     : 2.235
#LIVETIME    : 8.54626, 8.5617   seconds (separate by commas if more than one detector)
#REALTIME    : 10, 10.0   seconds (separate by commas if more than one detector)
#SPECTRUM    : start of spectrum data
0, 0
0, 0
0, 0
0, 0
0, 0
0, 0
0, 0
0, 0
0, 3
0, 6
2, 1
50, 40
66, 52
7, 7
3, 6
103, 107
453, 395
106, 114
4, 3
1, 1
1, 2
2, 1
1, 15
7, 15
17, 80
30, 126
11, 24
13, 7
4, 5
2, 1
0, 2
2, 2
4, 0
10, 8
19, 16
5, 5
8, 3
11, 4
41, 8
35, 4
5, 6
8, 15
15, 10
11, 12
2, 19
6, 8
7, 12
7, 8
4, 6
15, 17
10, 12
14, 10
22, 49
42, 94
60, 75
18, 27
26, 35
504, 633
2107, 2326
1644, 1388
200, 145
20, 24
17, 18
116, 121
320, 338
237, 194
32, 53
9, 30
11, 21
8, 6
1, 4
2, 5
2, 2
9, 7
2, 24
8, 43
9, 20
8, 9
8, 7
6, 3
1, 5
2, 1
0, 11
2, 16
2, 6
6, 3
14, 4
6, 0
6, 3
2, 3
2, 2
5, 3
3, 2
3, 3
3, 3
6, 1
4, 2
7, 1
1, 2
2, 2
2, 2
4, 1
1, 4
5, 3
5, 3
2, 7
1, 3
0, 3
1, 2
0, 1
3, 0
2, 1
0, 2
1, 2
1, 4
5, 0
8, 6
4, 3
1, 1
0, 1
2, 2
3, 5
3, 5
0, 1
2, 0
3, 1
0, 1
3, 0
0, 2
1, 1
0, 2
2, 1
2, 1
0, 0
1, 0
1, 1
2, 1
0, 1
0, 2
0, 0
0, 0
0, 1
0, 0
1, 0
1, 0
0, 0
1, 0
0, 1
0, 0
1, 2
0, 0
1, 2
0, 1
0, 0
0, 0
0, 1
0, 1
0, 0
0, 0
0, 0
0, 0
0, 1
0, 0
0, 1
0, 0
0, 0
0, 0
0, 0
0, 0
2, 0
0, 0
0, 1
0, 0
0, 0
0, 0
0, 0
1, 0
0, 0
0, 0
1, 0
0, 0
0, 0
0, 0
0, 0
0, 0
0, 0
0, 0
0, 0
0, 0
0, 1
0, 0
0, 0
0, 0
0, 0
0, 1
0, 0
0, 0
0, 0
0, 0
0, 0
0, 0
0, 0
0, 0
0, 0
0, 0
0, 0
0, 0
0, 0
0, 0
0, 0
0, 0
0, 0
0, 0
0, 0
0, 0
0, 0
0, 0
0, 0
0, 0
0, 0
1, 0
0, 0
0, 0
0, 0
0, 0
0, 0
0, 0
0, 0
0, 0
0, 0
0, 0
0, 0
0, 0
0, 0
0, 0
0, 0
0, 0
0, 0
0, 0
0, 0
0, 0
0, 0
0, 0
0, 0
0, 0
0, 0
0, 0
0, 0
0, 0
0, 0
0, 0
0, 0
0, 0
0, 0
0, 0
0, 0
0, 0
0, 0
0, 0
0, 0
0, 0
0, 0
0, 0
0, 0
0, 0
0, 0
0, 0
0, 0
0, 0
0, 0
0, 0
0, 0
0, 0
0, 0
0, 0
0, 0
0, 0
0, 0
0, 0
0, 0
0, 0
0, 0
0, 0
0, 0
0, 0
0, 0
0, 0
0, 0
0, 0
0, 0
0, 0
0, 0
0, 0
0, 0
#ENDOFDATA     end of spectrum data