Folder: data-repository/host_upload/06-09-2024/ps_0852/dump3 (part 9)

File: ps__0852shot_2072.msa
#FORMAT      : EMSA/MAS spectral data file
#VERSION     : TC202v2.0 PIXL
#TITLE       : N/A
#DATE        :       Date in the format DD-MMM-YYYY, for example 07-JUL-2010
#TIME        :             The time of day at which the spectrum was recorded, in 24-hour format
#OWNER       : PIXL Flight Model       (PIXL will use this to indicate which instrument took the data.)
#NPOINTS     : 4096     Number of data points in the spectrum (This can be zero for configuration only files)
#NCOLUMNS    : 2     Number of data columns in the spectrum (This can be zero for configuration only files)
#XUNITS      : eV
#YUNITS      : COUNTS
#DATATYPE    : YY
#XPERCHAN    : 7.862, 7.881   eV per channel (separate by commas if more than one detector)
#OFFSET      : 18.5, -22.4         eV of first channel  (separate by commas if more than one detector
#SIGNALTYPE  : XRF
#YP_TEMP     : 2.428
#LIVETIME    : 8.55999, 8.56337   seconds (separate by commas if more than one detector)
#REALTIME    : 10, 10.0   seconds (separate by commas if more than one detector)
#SPECTRUM    : start of spectrum data
0, 0
0, 0
0, 0
0, 0
0, 0
0, 0
0, 0
0, 0
1, 0
1, 2
4, 1
41, 44
66, 54
6, 5
3, 8
85, 94
412, 363
107, 110
9, 7
1, 2
3, 2
23, 17
7, 6
6, 13
43, 50
79, 60
40, 32
17, 21
4, 3
6, 4
3, 6
4, 6
12, 4
30, 25
49, 26
8, 10
7, 6
8, 12
13, 8
9, 6
5, 15
11, 40
18, 19
15, 9
7, 2
5, 6
10, 9
9, 8
8, 6
19, 20
21, 10
20, 13
18, 15
49, 43
63, 45
22, 29
38, 36
488, 582
2203, 2215
1606, 1326
222, 154
16, 26
31, 26
98, 130
312, 340
228, 195
32, 20
13, 8
18, 14
14, 10
4, 4
6, 2
9, 5
5, 5
7, 11
4, 9
10, 10
3, 5
6, 8
6, 2
3, 6
6, 4
9, 6
8, 4
5, 7
9, 4
6, 5
5, 0
3, 2
5, 3
3, 0
5, 2
2, 1
5, 2
2, 3
1, 4
1, 5
4, 2
3, 1
4, 4
4, 2
1, 2
2, 3
2, 0
1, 1
4, 1
4, 2
1, 2
2, 2
3, 5
4, 2
0, 1
2, 1
3, 3
4, 2
2, 0
7, 1
2, 6
3, 1
2, 1
3, 2
1, 4
1, 1
3, 2
2, 1
0, 0
2, 1
1, 1
2, 1
4, 2
3, 0
4, 1
2, 0
3, 1
2, 1
1, 0
1, 0
0, 0
0, 0
1, 0
2, 2
0, 0
1, 0
1, 0
1, 1
0, 1
0, 0
0, 0
0, 1
1, 0
0, 1
1, 0
0, 0
0, 1
3, 0
0, 0
0, 0
1, 1
0, 1
1, 0
0, 0
1, 1
0, 0
0, 0
0, 0
0, 0
0, 0
0, 0
0, 1
0, 0
0, 0
0, 0
0, 0
1, 0
0, 0
0, 0
0, 0
0, 0
0, 0
0, 0
0, 0
0, 0
0, 0
0, 0
0, 1
0, 0
0, 0
0, 0
0, 0
0, 0
0, 0
0, 0
1, 0
0, 0
0, 0
0, 0
0, 0
0, 0
0, 0
0, 0
0, 0
0, 0
0, 0
0, 0
0, 0
0, 0
0, 0
0, 0
0, 0
0, 0
0, 0
0, 0
0, 0
0, 0
0, 0
0, 0
1, 0
0, 0
0, 0
0, 0
0, 0
0, 1
0, 0
0, 0
0, 0
0, 0
0, 0
0, 0
0, 0
0, 0
0, 0
0, 0
0, 0
0, 0
0, 0
0, 0
0, 0
0, 0
0, 0
0, 0
0, 0
0, 0
0, 0
0, 0
0, 0
0, 0
0, 0
0, 0
0, 0
0, 0
0, 0
0, 0
0, 0
0, 0
0, 0
0, 0
0, 0
0, 0
0, 0
0, 0
0, 0
0, 0
0, 0
0, 0
0, 0
0, 0
0, 0
0, 0
0, 0
0, 0
0, 0
0, 0
0, 0
0, 0
0, 0
0, 0
0, 0
0, 0
0, 0
0, 0
0, 0
0, 0
0, 0
0, 0
0, 0
0, 0
0, 0
0, 0
0, 0
0, 0
0, 0
0, 0
0, 0
0, 0
#ENDOFDATA     end of spectrum data

File: ps__0852shot_2073.msa
#FORMAT      : EMSA/MAS spectral data file
#VERSION     : TC202v2.0 PIXL
#TITLE       : N/A
#DATE        :       Date in the format DD-MMM-YYYY, for example 07-JUL-2010
#TIME        :             The time of day at which the spectrum was recorded, in 24-hour format
#OWNER       : PIXL Flight Model       (PIXL will use this to indicate which instrument took the data.)
#NPOINTS     : 4096     Number of data points in the spectrum (This can be zero for configuration only files)
#NCOLUMNS    : 2     Number of data columns in the spectrum (This can be zero for configuration only files)
#XUNITS      : eV
#YUNITS      : COUNTS
#DATATYPE    : YY
#XPERCHAN    : 7.862, 7.881   eV per channel (separate by commas if more than one detector)
#OFFSET      : 18.5, -22.4         eV of first channel  (separate by commas if more than one detector
#SIGNALTYPE  : XRF
#YP_TEMP     : 2.556
#LIVETIME    : 8.55153, 8.55841   seconds (separate by commas if more than one detector)
#REALTIME    : 10, 10.0   seconds (separate by commas if more than one detector)
#SPECTRUM    : start of spectrum data
0, 0
0, 0
0, 0
0, 0
0, 0
0, 0
0, 0
0, 0
1, 0
0, 3
5, 1
44, 38
62, 60
4, 6
5, 2
97, 111
442, 423
105, 97
5, 3
0, 0
8, 6
14, 15
5, 5
6, 10
59, 54
74, 61
26, 34
15, 18
8, 5
2, 1
2, 2
10, 1
7, 6
24, 31
31, 30
19, 10
7, 10
11, 6
10, 10
6, 8
7, 9
7, 18
9, 26
18, 11
13, 15
9, 9
6, 7
6, 5
11, 14
21, 23
33, 11
23, 14
21, 23
54, 43
60, 56
34, 19
50, 50
484, 590
2219, 2309
1695, 1431
240, 158
25, 16
34, 24
111, 145
353, 337
237, 194
30, 22
14, 10
16, 14
8, 11
5, 8
8, 7
6, 10
5, 7
2, 5
7, 9
5, 6
9, 6
4, 6
2, 2
2, 5
5, 5
3, 4
10, 7
5, 6
7, 6
3, 3
4, 1
7, 3
0, 6
3, 3
3, 2
8, 3
9, 4
2, 3
4, 7
4, 5
5, 1
4, 2
6, 1
3, 6
1, 1
2, 0
2, 3
6, 4
1, 0
1, 1
0, 3
2, 3
6, 3
2, 1
1, 2
3, 1
5, 0
5, 3
1, 3
4, 3
2, 1
3, 0
5, 3
2, 3
5, 3
1, 3
1, 3
1, 1
1, 0
0, 3
1, 0
2, 2
1, 1
1, 0
0, 0
0, 2
0, 1
0, 1
0, 0
0, 0
1, 1
1, 2
1, 1
0, 1
0, 1
1, 1
3, 0
0, 2
1, 2
4, 0
0, 0
1, 1
0, 1
0, 2
0, 0
0, 0
1, 0
0, 0
0, 0
1, 0
0, 0
0, 0
0, 0
0, 0
0, 2
0, 0
0, 2
0, 2
0, 0
0, 0
1, 0
0, 1
0, 0
0, 0
0, 0
0, 1
0, 0
0, 0
0, 0
0, 0
0, 0
0, 0
0, 0
1, 0
0, 0
0, 0
0, 0
0, 0
0, 0
0, 0
0, 0
0, 0
0, 0
0, 0
0, 0
0, 0
0, 0
0, 0
0, 0
0, 0
0, 0
0, 0
1, 0
0, 0
0, 0
0, 0
0, 0
0, 0
0, 0
0, 0
0, 0
0, 0
0, 0
0, 0
0, 0
0, 0
0, 0
0, 0
0, 0
0, 0
0, 0
0, 0
0, 0
0, 0
0, 0
0, 0
0, 0
0, 0
0, 0
0, 0
0, 0
0, 0
0, 0
0, 0
0, 0
0, 0
0, 0
0, 0
0, 0
0, 0
0, 0
0, 0
0, 0
0, 0
0, 0
0, 0
0, 0
0, 0
0, 0
0, 0
0, 0
0, 0
0, 0
0, 0
0, 0
0, 0
0, 0
0, 0
0, 0
0, 0
0, 0
0, 0
0, 0
0, 0
0, 0
0, 0
0, 0
0, 0
0, 0
0, 0
0, 0
0, 0
0, 0
0, 0
0, 0
0, 0
0, 0
0, 0
0, 0
0, 0
0, 0
0, 0
0, 0
0, 0
0, 0
0, 0
0, 0
0, 0
0, 0
0, 0
0, 0
0, 0
0, 0
0, 0
0, 0
0, 0
0, 0
#ENDOFDATA     end of spectrum data

File: ps__0852shot_2074.msa
#FORMAT      : EMSA/MAS spectral data file
#VERSION     : TC202v2.0 PIXL
#TITLE       : N/A
#DATE        :       Date in the format DD-MMM-YYYY, for example 07-JUL-2010
#TIME        :             The time of day at which the spectrum was recorded, in 24-hour format
#OWNER       : PIXL Flight Model       (PIXL will use this to indicate which instrument took the data.)
#NPOINTS     : 4096     Number of data points in the spectrum (This can be zero for configuration only files)
#NCOLUMNS    : 2     Number of data columns in the spectrum (This can be zero for configuration only files)
#XUNITS      : eV
#YUNITS      : COUNTS
#DATATYPE    : YY
#XPERCHAN    : 7.862, 7.881   eV per channel (separate by commas if more than one detector)
#OFFSET      : 18.5, -22.4         eV of first channel  (separate by commas if more than one detector
#SIGNALTYPE  : XRF
#YP_TEMP     : 2.364
#LIVETIME    : 8.54146, 8.56773   seconds (separate by commas if more than one detector)
#REALTIME    : 10, 10.0   seconds (separate by commas if more than one detector)
#SPECTRUM    : start of spectrum data
0, 0
0, 0
0, 0
0, 0
0, 0
0, 0
0, 0
0, 0
1, 0
3, 5
4, 4
39, 36
74, 53
6, 4
2, 2
98, 89
440, 407
112, 81
6, 5
3, 1
4, 1
5, 9
10, 3
8, 6
41, 44
64, 49
47, 36
22, 9
6, 5
9, 5
4, 1
5, 1
12, 3
19, 14
26, 21
11, 12
8, 6
11, 10
6, 10
6, 10
5, 10
18, 8
27, 14
16, 17
17, 11
13, 8
9, 5
9, 11
19, 8
25, 22
26, 25
11, 13
25, 19
46, 54
75, 57
37, 30
43, 39
574, 516
2315, 2143
1675, 1259
221, 135
25, 20
45, 24
153, 112
385, 333
255, 165
28, 22
12, 8
16, 16
8, 9
1, 4
3, 5
4, 2
3, 4
8, 5
8, 4
10, 10
8, 4
5, 4
5, 3
9, 9
3, 7
11, 4
6, 6
4, 8
3, 2
3, 8
4, 5
2, 6
4, 6
0, 5
3, 5
7, 5
2, 6
5, 6
5, 1
4, 0
0, 1
0, 3
6, 2
1, 3
7, 2
0, 2
3, 3
6, 3
4, 4
5, 4
3, 0
2, 2
2, 1
0, 2
2, 3
2, 1
4, 0
5, 5
2, 3
5, 3
3, 1
1, 0
2, 0
0, 3
4, 6
0, 1
1, 1
0, 1
2, 0
0, 1
1, 0
0, 2
0, 1
3, 0
2, 0
0, 0
1, 0
0, 0
2, 0
1, 1
0, 0
1, 1
0, 1
0, 2
2, 1
1, 0
0, 0
1, 0
0, 1
1, 0
1, 0
0, 1
1, 0
1, 0
0, 0
1, 1
1, 0
0, 1
1, 0
1, 0
0, 2
1, 0
1, 0
1, 0
0, 0
0, 0
0, 1
1, 1
0, 0
1, 0
0, 0
0, 1
0, 0
0, 0
0, 0
2, 1
0, 0
0, 0
0, 0
1, 0
0, 0
0, 0
0, 0
0, 0
1, 0
0, 0
0, 0
0, 0
0, 0
0, 0
0, 0
0, 0
0, 0
0, 0
0, 0
0, 0
0, 0
0, 0
0, 0
0, 0
0, 0
0, 1
0, 0
0, 0
0, 0
0, 0
0, 0
0, 0
0, 0
0, 0
0, 0
0, 0
0, 0
0, 0
0, 0
0, 0
0, 0
0, 0
0, 0
0, 0
0, 0
0, 0
0, 0
0, 0
0, 0
0, 0
0, 0
0, 0
0, 0
0, 0
0, 0
0, 0
0, 0
0, 0
0, 0
0, 0
0, 0
0, 0
0, 0
0, 0
0, 0
0, 0
0, 0
0, 0
0, 0
0, 0
0, 0
0, 0
0, 0
0, 0
0, 0
0, 0
0, 0
0, 0
0, 0
0, 0
0, 0
0, 0
0, 0
0, 0
0, 0
0, 0
0, 0
0, 0
0, 0
0, 0
0, 0
0, 0
0, 0
0, 0
0, 0
0, 0
0, 0
0, 0
0, 0
0, 0
0, 0
0, 0
0, 0
0, 0
0, 0
0, 0
0, 0
0, 0
0, 0
0, 0
0, 0
0, 0
0, 0
0, 0
0, 0
0, 0
0, 0
0, 0
0, 0
0, 0
0, 0
#ENDOFDATA     end of spectrum data

File: ps__0852shot_2076.msa
#FORMAT      : EMSA/MAS spectral data file
#VERSION     : TC202v2.0 PIXL
#TITLE       : N/A
#DATE        :       Date in the format DD-MMM-YYYY, for example 07-JUL-2010
#TIME        :             The time of day at which the spectrum was recorded, in 24-hour format
#OWNER       : PIXL Flight Model       (PIXL will use this to indicate which instrument took the data.)
#NPOINTS     : 4096     Number of data points in the spectrum (This can be zero for configuration only files)
#NCOLUMNS    : 2     Number of data columns in the spectrum (This can be zero for configuration only files)
#XUNITS      : eV
#YUNITS      : COUNTS
#DATATYPE    : YY
#XPERCHAN    : 7.862, 7.881   eV per channel (separate by commas if more than one detector)
#OFFSET      : 18.5, -22.4         eV of first channel  (separate by commas if more than one detector
#SIGNALTYPE  : XRF
#YP_TEMP     : 2.267
#LIVETIME    : 8.57334, 8.56587   seconds (separate by commas if more than one detector)
#REALTIME    : 10, 10.0   seconds (separate by commas if more than one detector)
#SPECTRUM    : start of spectrum data
0, 0
0, 0
0, 0
0, 0
0, 0
0, 0
0, 0
0, 0
0, 1
1, 1
4, 1
44, 43
74, 50
6, 7
4, 4
89, 102
429, 396
110, 102
10, 7
3, 0
0, 0
8, 5
2, 10
12, 10
52, 57
78, 61
36, 31
13, 14
4, 9
2, 2
1, 1
4, 1
2, 6
23, 18
33, 26
15, 14
6, 9
9, 9
10, 14
10, 14
4, 4
16, 20
22, 25
16, 16
9, 11
10, 7
13, 13
8, 6
8, 11
27, 16
18, 20
15, 20
15, 16
48, 46
62, 63
30, 34
39, 50
491, 578
2191, 2260
1625, 1436
213, 173
45, 14
37, 24
103, 124
337, 357
220, 193
36, 38
8, 11
14, 19
10, 3
5, 4
2, 5
7, 3
7, 5
5, 11
6, 4
11, 4
4, 4
8, 2
4, 4
6, 4
7, 9
11, 8
6, 6
7, 8
4, 5
2, 5
1, 6
2, 4
5, 5
5, 2
4, 4
3, 6
4, 5
2, 4
5, 6
1, 3
3, 1
3, 9
3, 2
1, 4
2, 1
2, 3
3, 3
2, 6
0, 4
3, 2
5, 6
4, 1
2, 0
1, 2
2, 4
2, 0
4, 2
3, 2
4, 3
6, 4
2, 1
1, 1
0, 2
4, 1
0, 2
3, 2
0, 4
0, 0
2, 0
1, 1
1, 0
0, 0
0, 2
0, 1
2, 0
2, 1
1, 0
0, 1
1, 0
0, 1
2, 0
0, 1
0, 0
0, 1
0, 0
1, 2
0, 1
0, 0
0, 0
2, 3
2, 1
2, 0
0, 0
0, 0
0, 0
0, 0
0, 0
2, 0
0, 1
0, 2
0, 0
0, 0
0, 0
0, 1
2, 0
0, 0
0, 0
0, 0
1, 0
1, 0
0, 0
0, 0
0, 0
0, 0
0, 0
0, 0
0, 0
0, 0
0, 0
0, 1
0, 0
1, 0
0, 0
0, 0
1, 0
0, 0
0, 0
0, 0
0, 0
0, 0
0, 0
0, 0
0, 0
0, 1
0, 0
0, 0
0, 0
0, 0
0, 0
0, 0
0, 0
0, 0
0, 0
0, 0
0, 0
0, 1
0, 0
0, 0
0, 0
0, 0
0, 0
0, 0
0, 0
0, 0
0, 0
0, 0
0, 0
0, 0
0, 0
0, 0
0, 0
0, 0
0, 0
0, 0
0, 0
0, 0
0, 0
0, 0
0, 0
0, 0
0, 0
0, 0
0, 0
0, 0
0, 0
0, 0
0, 0
0, 0
0, 0
0, 0
0, 0
0, 0
0, 0
0, 0
0, 0
0, 0
0, 0
0, 0
0, 0
0, 0
0, 0
0, 0
0, 0
0, 0
0, 0
0, 0
0, 0
0, 0
0, 0
0, 0
0, 0
0, 0
0, 0
0, 0
0, 0
0, 0
0, 0
0, 0
0, 0
0, 0
0, 0
0, 0
0, 0
0, 0
0, 0
0, 0
0, 0
0, 0
0, 0
0, 0
0, 0
0, 0
0, 0
0, 0
0, 0
0, 0
0, 0
0, 0
0, 0
0, 0
0, 0
0, 0
0, 0
0, 0
0, 0
0, 0
0, 0
#ENDOFDATA     end of spectrum data

File: ps__0852shot_2077.msa
#FORMAT      : EMSA/MAS spectral data file
#VERSION     : TC202v2.0 PIXL
#TITLE       : N/A
#DATE        :       Date in the format DD-MMM-YYYY, for example 07-JUL-2010
#TIME        :             The time of day at which the spectrum was recorded, in 24-hour format
#OWNER       : PIXL Flight Model       (PIXL will use this to indicate which instrument took the data.)
#NPOINTS     : 4096     Number of data points in the spectrum (This can be zero for configuration only files)
#NCOLUMNS    : 2     Number of data columns in the spectrum (This can be zero for configuration only files)
#XUNITS      : eV
#YUNITS      : COUNTS
#DATATYPE    : YY
#XPERCHAN    : 7.862, 7.881   eV per channel (separate by commas if more than one detector)
#OFFSET      : 18.5, -22.4         eV of first channel  (separate by commas if more than one detector
#SIGNALTYPE  : XRF
#YP_TEMP     : 2.203
#LIVETIME    : 8.59786, 8.56312   seconds (separate by commas if more than one detector)
#REALTIME    : 10, 10.0   seconds (separate by commas if more than one detector)
#SPECTRUM    : start of spectrum data
0, 0
0, 0
0, 0
0, 0
0, 0
0, 0
0, 0
0, 0
0, 2
2, 1
3, 2
49, 48
59, 57
4, 6
4, 8
84, 107
424, 458
108, 101
8, 7
2, 1
1, 4
10, 7
11, 7
7, 11
50, 52
63, 77
38, 35
18, 29
7, 3
3, 1
3, 4
1, 5
11, 5
12, 25
29, 25
10, 7
3, 6
9, 3
12, 6
1, 6
12, 9
22, 19
28, 16
18, 23
13, 9
11, 13
7, 7
5, 10
15, 13
23, 30
35, 40
17, 25
17, 22
49, 47
64, 73
30, 33
32, 47
458, 593
2067, 2328
1646, 1492
189, 149
26, 24
28, 31
99, 110
304, 387
227, 233
35, 23
13, 17
13, 14
8, 3
4, 4
5, 8
4, 12
3, 7
10, 9
6, 4
6, 8
7, 3
1, 8
10, 3
7, 4
3, 8
10, 4
3, 14
5, 5
4, 4
4, 5
5, 2
5, 9
3, 2
7, 6
7, 7
8, 3
1, 2
2, 3
4, 7
4, 4
2, 0
0, 3
7, 0
3, 2
2, 1
2, 1
0, 3
2, 2
0, 2
4, 4
3, 6
5, 2
5, 2
5, 1
4, 3
4, 0
0, 1
2, 0
2, 2
3, 2
4, 4
1, 2
1, 3
0, 0
1, 1
3, 3
4, 1
1, 2
1, 1
2, 3
0, 1
4, 0
4, 1
2, 1
2, 0
0, 0
0, 2
1, 2
0, 0
0, 0
1, 1
0, 0
0, 0
0, 0
0, 2
2, 0
0, 0
0, 0
0, 0
1, 0
0, 1
0, 0
0, 0
1, 0
1, 0
0, 0
1, 0
0, 0
2, 0
0, 0
0, 0
0, 0
0, 1
0, 0
0, 1
0, 0
3, 0
0, 0
0, 0
0, 0
0, 0
0, 0
0, 0
0, 0
1, 0
0, 1
0, 0
0, 0
0, 0
0, 0
0, 0
0, 0
1, 1
1, 0
0, 0
0, 1
1, 0
0, 0
0, 0
0, 0
0, 0
0, 0
0, 0
0, 0
0, 0
0, 0
1, 0
0, 0
0, 0
1, 0
1, 0
0, 0
0, 0
0, 0
0, 1
0, 0
0, 0
0, 0
0, 0
0, 0
0, 0
0, 0
0, 0
0, 0
1, 0
0, 0
0, 0
0, 0
0, 0
0, 0
0, 0
0, 0
0, 0
0, 0
0, 0
0, 0
0, 0
0, 0
0, 0
0, 0
0, 0
0, 0
0, 0
0, 0
0, 0
0, 0
0, 0
0, 0
0, 0
0, 0
0, 0
0, 0
0, 0
0, 0
0, 0
0, 0
0, 0
0, 0
0, 0
0, 0
0, 0
0, 0
0, 0
0, 0
0, 0
0, 0
0, 0
0, 0
0, 0
0, 0
0, 0
0, 0
0, 0
0, 0
0, 0
0, 0
0, 0
0, 0
0, 0
0, 0
0, 0
0, 0
0, 0
0, 0
0, 0
0, 0
0, 0
0, 0
0, 0
0, 0
0, 0
0, 0
0, 0
0, 0
0, 0
0, 0
0, 0
0, 0
0, 0
0, 0
0, 0
0, 0
0, 0
0, 0
0, 0
0, 0
0, 0
#ENDOFDATA     end of spectrum data

File: ps__0852shot_2078.msa
#FORMAT      : EMSA/MAS spectral data file
#VERSION     : TC202v2.0 PIXL
#TITLE       : N/A
#DATE        :       Date in the format DD-MMM-YYYY, for example 07-JUL-2010
#TIME        :             The time of day at which the spectrum was recorded, in 24-hour format
#OWNER       : PIXL Flight Model       (PIXL will use this to indicate which instrument took the data.)
#NPOINTS     : 4096     Number of data points in the spectrum (This can be zero for configuration only files)
#NCOLUMNS    : 2     Number of data columns in the spectrum (This can be zero for configuration only files)
#XUNITS      : eV
#YUNITS      : COUNTS
#DATATYPE    : YY
#XPERCHAN    : 7.862, 7.881   eV per channel (separate by commas if more than one detector)
#OFFSET      : 18.5, -22.4         eV of first channel  (separate by commas if more than one detector
#SIGNALTYPE  : XRF
#YP_TEMP     : 2.203
#LIVETIME    : 8.56924, 8.55032   seconds (separate by commas if more than one detector)
#REALTIME    : 10, 10.0   seconds (separate by commas if more than one detector)
#SPECTRUM    : start of spectrum data
0, 0
0, 0
0, 0
0, 0
0, 0
0, 0
0, 0
0, 0
0, 0
3, 0
4, 1
35, 43
78, 68
8, 4
6, 3
95, 110
445, 454
98, 102
10, 5
1, 2
1, 3
17, 4
7, 3
10, 16
45, 40
58, 73
24, 82
16, 18
5, 8
3, 0
4, 0
3, 5
5, 6
25, 22
31, 20
16, 5
6, 7
6, 5
6, 9
5, 13
9, 8
8, 20
25, 28
19, 9
7, 11
13, 7
12, 7
4, 6
9, 14
20, 19
20, 34
10, 32
10, 22
53, 46
60, 61
23, 22
40, 41
483, 652
2069, 2357
1540, 1496
208, 145
37, 30
36, 22
141, 127
324, 389
204, 219
37, 23
18, 12
12, 13
9, 14
4, 6
6, 4
6, 8
4, 7
2, 4
8, 11
3, 4
7, 6
9, 5
8, 4
5, 7
5, 9
5, 3
1, 1
2, 4
3, 4
4, 4
3, 2
5, 6
2, 3
6, 6
2, 9
3, 5
4, 5
1, 5
4, 2
7, 2
3, 2
1, 2
4, 2
4, 1
1, 2
1, 1
4, 2
2, 7
3, 1
0, 4
1, 3
2, 2
4, 1
5, 0
1, 3
0, 3
3, 3
1, 5
7, 3
3, 2
2, 6
2, 4
3, 1
2, 1
0, 2
0, 2
3, 2
2, 0
1, 1
0, 0
1, 1
1, 0
0, 2
1, 4
1, 0
0, 0
0, 0
1, 1
1, 0
1, 2
0, 0
1, 1
0, 0
1, 1
1, 1
0, 1
1, 1
0, 1
0, 0
2, 1
0, 0
2, 0
1, 0
3, 3
0, 0
0, 0
0, 0
0, 0
1, 0
1, 0
0, 1
0, 0
0, 2
0, 1
0, 0
1, 0
0, 1
0, 0
0, 0
0, 1
0, 0
0, 0
1, 1
0, 0
1, 0
0, 0
1, 0
0, 0
0, 0
0, 0
0, 0
0, 0
0, 0
0, 0
0, 0
0, 1
0, 0
2, 0
0, 0
0, 1
0, 0
0, 1
0, 0
1, 0
0, 0
0, 0
0, 0
0, 0
0, 0
0, 0
0, 0
0, 1
0, 1
0, 0
0, 0
0, 0
0, 1
0, 0
0, 0
1, 0
0, 0
0, 0
0, 0
0, 0
0, 0
0, 0
0, 0
0, 0
0, 0
0, 0
0, 0
0, 0
0, 0
0, 0
0, 0
0, 0
0, 0
0, 0
0, 0
0, 0
0, 0
0, 0
0, 0
0, 0
0, 0
0, 0
0, 0
0, 0
0, 0
0, 0
0, 0
0, 0
0, 0
0, 0
0, 0
0, 0
0, 0
0, 0
0, 0
0, 0
0, 0
0, 0
0, 0
0, 0
0, 0
0, 0
0, 0
0, 0
0, 0
0, 0
0, 0
0, 0
0, 0
0, 0
0, 0
0, 0
0, 0
0, 0
0, 0
0, 0
0, 0
0, 0
0, 0
0, 0
0, 0
0, 0
0, 0
0, 0
0, 0
0, 0
0, 0
0, 0
0, 0
0, 0
0, 0
0, 0
0, 0
0, 0
0, 0
0, 0
0, 0
0, 0
0, 0
0, 0
0, 0
0, 0
0, 0
#ENDOFDATA     end of spectrum data

File: ps__0852shot_2079.msa
#FORMAT      : EMSA/MAS spectral data file
#VERSION     : TC202v2.0 PIXL
#TITLE       : N/A
#DATE        :       Date in the format DD-MMM-YYYY, for example 07-JUL-2010
#TIME        :             The time of day at which the spectrum was recorded, in 24-hour format
#OWNER       : PIXL Flight Model       (PIXL will use this to indicate which instrument took the data.)
#NPOINTS     : 4096     Number of data points in the spectrum (This can be zero for configuration only files)
#NCOLUMNS    : 2     Number of data columns in the spectrum (This can be zero for configuration only files)
#XUNITS      : eV
#YUNITS      : COUNTS
#DATATYPE    : YY
#XPERCHAN    : 7.862, 7.881   eV per channel (separate by commas if more than one detector)
#OFFSET      : 18.5, -22.4         eV of first channel  (separate by commas if more than one detector
#SIGNALTYPE  : XRF
#YP_TEMP     : 2.396
#LIVETIME    : 8.57483, 8.55214   seconds (separate by commas if more than one detector)
#REALTIME    : 10, 10.0   seconds (separate by commas if more than one detector)
#SPECTRUM    : start of spectrum data
0, 0
0, 0
0, 0
0, 0
0, 0
0, 0
0, 1
0, 0
0, 1
3, 2
1, 4
63, 43
56, 37
8, 6
4, 1
95, 113
453, 338
92, 72
7, 7
4, 3
5, 2
11, 18
9, 7
11, 7
91, 36
113, 50
36, 36
18, 12
5, 6
3, 3
4, 1
2, 4
6, 4
17, 14
14, 15
6, 5
4, 1
8, 6
14, 12
11, 9
7, 4
15, 13
12, 29
11, 13
10, 24
8, 8
11, 8
9, 7
8, 7
27, 9
18, 18
27, 10
9, 13
43, 42
63, 54
21, 19
45, 34
533, 476
2342, 1894
1726, 1160
242, 122
77, 21
79, 25
162, 122
365, 324
234, 191
40, 21
11, 10
25, 8
15, 11
10, 9
8, 3
3, 5
4, 4
2, 8
4, 2
14, 5
12, 5
7, 4
7, 3
4, 5
3, 6
4, 3
5, 4
6, 8
4, 2
4, 3
3, 3
5, 4
12, 2
12, 5
10, 2
3, 1
4, 3
4, 2
7, 1
1, 0
2, 4
3, 2
3, 1
2, 4
4, 3
1, 5
1, 2
0, 3
1, 0
2, 2
1, 0
2, 1
2, 3
3, 2
4, 2
5, 1
2, 2
2, 2
2, 1
5, 0
7, 1
2, 1
4, 0
1, 1
4, 1
3, 5
2, 0
0, 1
3, 3
1, 0
1, 1
0, 1
1, 3
3, 0
2, 3
1, 0
1, 1
1, 0
0, 1
1, 0
2, 1
0, 1
0, 0
0, 1
1, 0
2, 0
1, 1
0, 1
0, 0
0, 2
0, 0
0, 0
1, 0
2, 0
1, 0
1, 1
0, 0
0, 0
0, 0
2, 0
0, 2
3, 1
0, 0
0, 0
0, 1
0, 0
0, 0
0, 0
0, 0
0, 0
0, 0
0, 1
1, 0
0, 0
1, 0
0, 0
0, 0
0, 0
0, 0
0, 0
0, 0
0, 0
0, 0
0, 0
0, 0
0, 3
0, 0
0, 0
1, 0
0, 1
0, 0
0, 0
0, 0
0, 0
0, 0
0, 0
0, 0
0, 0
0, 0
0, 0
0, 0
0, 0
0, 0
0, 0
0, 0
0, 0
0, 0
0, 0
0, 0
0, 0
0, 0
0, 0
0, 1
0, 0
0, 0
0, 0
0, 0
0, 0
0, 1
0, 0
0, 0
0, 0
0, 0
0, 0
0, 0
0, 0
0, 0
0, 0
0, 0
0, 0
0, 0
0, 0
0, 0
0, 0
0, 0
0, 0
0, 0
0, 0
0, 0
0, 0
0, 0
0, 0
0, 0
0, 0
0, 0
0, 0
0, 0
0, 0
0, 0
0, 0
0, 0
0, 0
0, 0
0, 0
0, 0
0, 0
0, 0
0, 0
0, 0
0, 0
0, 0
0, 0
0, 0
0, 0
0, 0
0, 0
0, 0
0, 0
0, 0
0, 0
0, 0
0, 0
0, 0
0, 0
0, 0
0, 0
0, 0
0, 0
0, 0
0, 0
0, 0
0, 0
0, 0
0, 0
0, 0
0, 0
0, 0
0, 0
0, 0
0, 0
0, 0
0, 0
0, 0
0, 0
0, 0
0, 0
0, 0
#ENDOFDATA     end of spectrum data

File: ps__0852shot_2080.msa
#FORMAT      : EMSA/MAS spectral data file
#VERSION     : TC202v2.0 PIXL
#TITLE       : N/A
#DATE        :       Date in the format DD-MMM-YYYY, for example 07-JUL-2010
#TIME        :             The time of day at which the spectrum was recorded, in 24-hour format
#OWNER       : PIXL Flight Model       (PIXL will use this to indicate which instrument took the data.)
#NPOINTS     : 4096     Number of data points in the spectrum (This can be zero for configuration only files)
#NCOLUMNS    : 2     Number of data columns in the spectrum (This can be zero for configuration only files)
#XUNITS      : eV
#YUNITS      : COUNTS
#DATATYPE    : YY
#XPERCHAN    : 7.862, 7.881   eV per channel (separate by commas if more than one detector)
#OFFSET      : 18.5, -22.4         eV of first channel  (separate by commas if more than one detector
#SIGNALTYPE  : XRF
#YP_TEMP     : 2.428
#LIVETIME    : 8.5609, 8.5569   seconds (separate by commas if more than one detector)
#REALTIME    : 10, 10.0   seconds (separate by commas if more than one detector)
#SPECTRUM    : start of spectrum data
0, 0
0, 0
0, 0
0, 0
0, 0
0, 0
0, 0
0, 0
1, 0
2, 1
3, 0
59, 50
57, 55
10, 4
6, 6
77, 92
374, 347
102, 81
5, 3
1, 1
7, 12
24, 27
15, 16
20, 8
165, 20
307, 27
66, 15
15, 22
7, 4
1, 5
2, 1
5, 1
2, 0
13, 13
26, 14
9, 3
5, 1
23, 2
49, 9
21, 6
5, 4
9, 5
14, 35
8, 76
4, 75
4, 19
7, 7
6, 8
11, 9
12, 16
31, 12
28, 10
20, 12
38, 33
62, 59
27, 33
30, 47
485, 562
2080, 2217
1461, 1274
201, 158
85, 22
114, 28
152, 127
358, 345
219, 218
37, 23
10, 13
7, 13
5, 9
3, 8
3, 2
4, 3
6, 2
17, 1
43, 2
50, 6
23, 8
7, 11
6, 5
3, 1
3, 3
4, 6
2, 2
4, 7
1, 5
2, 6
2, 10
3, 2
7, 6
13, 2
10, 3
5, 4
4, 1
2, 2
2, 1
2, 2
1, 5
2, 0
3, 5
2, 1
4, 2
8, 1
4, 2
1, 1
3, 1
1, 1
1, 1
1, 3
1, 0
1, 0
2, 0
0, 0
2, 1
3, 2
3, 3
4, 4
3, 6
0, 3
0, 0
3, 1
1, 3
4, 1
3, 1
1, 1
2, 2
1, 1
0, 1
0, 1
1, 1
3, 1
2, 0
3, 0
0, 1
0, 0
0, 0
0, 1
1, 1
1, 2
2, 2
0, 1
1, 0
0, 1
0, 1
0, 0
0, 1
0, 1
0, 0
0, 0
0, 0
1, 0
1, 0
3, 1
0, 0
0, 0
0, 0
1, 0
0, 0
0, 0
1, 1
0, 0
1, 0
0, 0
0, 0
0, 0
0, 0
0, 1
0, 0
0, 0
0, 0
0, 0
1, 0
1, 0
0, 2
0, 0
1, 1
1, 0
0, 0
0, 0
0, 0
0, 0
1, 0
0, 0
0, 0
1, 1
1, 0
0, 0
0, 0
0, 0
1, 0
0, 0
0, 0
0, 0
0, 0
0, 0
0, 0
0, 0
0, 0
0, 0
0, 0
0, 0
0, 0
0, 0
0, 0
0, 0
0, 0
0, 1
0, 0
0, 0
0, 0
0, 0
0, 0
0, 0
0, 0
0, 0
0, 0
1, 0
0, 0
0, 0
0, 0
0, 0
0, 0
0, 0
0, 0
0, 0
0, 0
0, 0
0, 0
0, 0
0, 0
0, 0
0, 0
0, 0
0, 0
0, 0
0, 0
0, 0
0, 0
0, 0
0, 0
0, 0
0, 0
0, 0
0, 0
0, 0
0, 0
0, 0
0, 0
0, 0
0, 0
0, 0
0, 0
0, 0
0, 0
0, 0
0, 0
0, 0
0, 0
0, 0
0, 0
0, 0
0, 0
0, 0
0, 0
0, 0
0, 0
0, 0
0, 0
0, 0
0, 0
0, 0
0, 0
0, 0
0, 0
0, 0
0, 0
0, 0
0, 0
0, 0
0, 0
0, 0
0, 0
0, 0
0, 0
0, 0
0, 0
0, 0
0, 0
0, 0
0, 0
0, 0
0, 0
0, 0
0, 0
#ENDOFDATA     end of spectrum data

File: ps__0852shot_2081.msa
#FORMAT      : EMSA/MAS spectral data file
#VERSION     : TC202v2.0 PIXL
#TITLE       : N/A
#DATE        :       Date in the format DD-MMM-YYYY, for example 07-JUL-2010
#TIME        :             The time of day at which the spectrum was recorded, in 24-hour format
#OWNER       : PIXL Flight Model       (PIXL will use this to indicate which instrument took the data.)
#NPOINTS     : 4096     Number of data points in the spectrum (This can be zero for configuration only files)
#NCOLUMNS    : 2     Number of data columns in the spectrum (This can be zero for configuration only files)
#XUNITS      : eV
#YUNITS      : COUNTS
#DATATYPE    : YY
#XPERCHAN    : 7.862, 7.881   eV per channel (separate by commas if more than one detector)
#OFFSET      : 18.5, -22.4         eV of first channel  (separate by commas if more than one detector
#SIGNALTYPE  : XRF
#YP_TEMP     : 2.428
#LIVETIME    : 8.56196, 8.5584   seconds (separate by commas if more than one detector)
#REALTIME    : 10, 10.0   seconds (separate by commas if more than one detector)
#SPECTRUM    : start of spectrum data
0, 0
0, 0
0, 0
0, 0
0, 0
0, 0
0, 0
0, 0
6, 1
11, 0
3, 1
47, 57
72, 61
8, 6
1, 7
118, 107
414, 437
134, 96
8, 8
4, 2
6, 6
24, 27
15, 7
15, 4
366, 22
561, 28
95, 16
12, 10
7, 1
2, 0
1, 2
0, 3
3, 2
12, 12
16, 21
3, 2
2, 3
46, 7
77, 3
25, 6
9, 5
12, 9
15, 24
13, 104
7, 126
1, 20
6, 9
6, 7
9, 7
9, 11
33, 13
57, 4
34, 10
30, 35
44, 50
18, 26
22, 55
445, 619
2182, 2388
1556, 1366
175, 153
37, 18
109, 22
217, 116
365, 348
228, 209
24, 23
9, 5
15, 12
7, 7
3, 1
3, 1
2, 0
6, 6
18, 6
62, 2
106, 8
46, 6
6, 12
4, 0
7, 2
3, 3
8, 4
5, 4
2, 4
2, 3
1, 4
5, 5
3, 6
5, 3
3, 7
1, 4
0, 4
2, 3
3, 0
3, 2
1, 3
1, 2
1, 4
6, 0
5, 8
8, 1
4, 2
6, 3
5, 0
0, 0
1, 0
2, 4
1, 5
6, 1
4, 1
1, 3
2, 5
4, 5
5, 1
3, 4
4, 3
5, 1
1, 4
1, 0
0, 0
6, 1
2, 5
2, 2
0, 2
2, 1
0, 0
1, 1
0, 2
0, 1
1, 2
0, 2
0, 0
0, 2
1, 0
1, 1
2, 3
0, 0
3, 0
3, 1
1, 3
1, 0
0, 0
1, 1
1, 0
1, 1
0, 1
1, 1
0, 1
0, 0
0, 0
0, 0
2, 3
0, 0
0, 0
1, 0
1, 3
0, 0
0, 1
0, 0
1, 0
0, 0
1, 0
0, 0
0, 0
0, 1
0, 0
0, 0
0, 0
0, 0
0, 0
0, 0
0, 0
0, 0
0, 0
0, 1
0, 1
1, 0
0, 0
0, 0
0, 1
1, 1
0, 0
0, 1
0, 0
0, 0
1, 0
0, 0
0, 0
0, 0
0, 0
0, 0
0, 0
0, 0
0, 0
0, 0
0, 0
0, 0
0, 0
0, 0
0, 0
0, 0
0, 0
0, 0
0, 0
0, 0
0, 0
0, 0
0, 0
0, 1
0, 0
0, 0
0, 0
0, 0
0, 0
0, 0
0, 0
0, 0
0, 0
0, 0
0, 0
0, 0
0, 0
0, 0
0, 0
0, 0
0, 0
1, 0
0, 0
0, 0
0, 0
0, 0
0, 0
0, 0
0, 0
0, 0
0, 0
0, 0
0, 0
0, 0
0, 0
0, 0
0, 0
0, 0
0, 0
0, 0
0, 0
0, 0
0, 0
0, 0
0, 0
0, 0
0, 0
0, 0
0, 0
0, 0
0, 0
0, 0
0, 0
0, 0
0, 0
0, 0
0, 0
0, 0
0, 0
0, 0
0, 0
0, 0
0, 0
0, 0
0, 0
0, 0
0, 0
0, 0
0, 0
0, 0
0, 0
0, 0
0, 0
0, 0
0, 0
0, 0
0, 0
0, 0
0, 0
0, 0
0, 0
0, 0
0, 0
0, 0
0, 0
0, 0
0, 0
0, 0
#ENDOFDATA     end of spectrum data