Folder: data-repository/host_upload/06-09-2024/ps_0852/dump3 (part 39)

File: ps__0852shot_2346.msa
#FORMAT      : EMSA/MAS spectral data file
#VERSION     : TC202v2.0 PIXL
#TITLE       : N/A
#DATE        :       Date in the format DD-MMM-YYYY, for example 07-JUL-2010
#TIME        :             The time of day at which the spectrum was recorded, in 24-hour format
#OWNER       : PIXL Flight Model       (PIXL will use this to indicate which instrument took the data.)
#NPOINTS     : 4096     Number of data points in the spectrum (This can be zero for configuration only files)
#NCOLUMNS    : 2     Number of data columns in the spectrum (This can be zero for configuration only files)
#XUNITS      : eV
#YUNITS      : COUNTS
#DATATYPE    : YY
#XPERCHAN    : 7.862, 7.881   eV per channel (separate by commas if more than one detector)
#OFFSET      : 18.5, -22.4         eV of first channel  (separate by commas if more than one detector
#SIGNALTYPE  : XRF
#YP_TEMP     : 2.203
#LIVETIME    : 8.55985, 8.56377   seconds (separate by commas if more than one detector)
#REALTIME    : 10, 10.0   seconds (separate by commas if more than one detector)
#SPECTRUM    : start of spectrum data
0, 0
0, 0
0, 0
0, 0
0, 0
0, 0
0, 0
0, 0
0, 0
0, 2
1, 1
58, 47
75, 67
6, 6
6, 3
94, 106
438, 440
115, 94
4, 9
1, 1
0, 1
7, 7
2, 3
7, 5
21, 27
18, 35
18, 17
16, 10
4, 5
1, 4
1, 1
3, 2
1, 6
5, 11
14, 19
1, 3
4, 6
3, 5
3, 2
6, 3
3, 7
11, 14
18, 12
9, 11
5, 1
6, 4
6, 4
4, 6
9, 9
56, 13
137, 9
60, 5
15, 3
53, 41
130, 56
32, 13
26, 44
459, 584
2201, 2487
1536, 1426
170, 147
16, 11
12, 11
99, 110
308, 367
213, 183
24, 23
10, 9
15, 17
9, 5
1, 7
5, 11
6, 12
8, 2
8, 5
3, 3
6, 2
3, 2
6, 8
2, 2
11, 3
24, 5
16, 8
7, 7
4, 2
5, 6
6, 3
7, 3
5, 5
2, 6
1, 3
1, 3
2, 2
1, 2
4, 2
2, 5
2, 3
3, 5
1, 2
7, 4
5, 6
7, 1
3, 3
0, 0
1, 2
3, 3
2, 3
2, 3
2, 4
2, 0
3, 3
1, 6
1, 4
0, 3
0, 3
1, 6
4, 2
7, 1
1, 1
0, 0
4, 0
0, 1
2, 3
4, 2
1, 1
0, 3
2, 2
2, 1
0, 2
2, 1
1, 0
0, 0
0, 1
1, 0
1, 0
0, 1
1, 1
0, 1
0, 1
3, 1
0, 1
4, 0
0, 1
0, 1
0, 0
1, 1
0, 0
0, 0
0, 0
0, 0
0, 0
0, 0
0, 0
0, 0
0, 1
2, 1
2, 1
0, 0
0, 0
0, 2
0, 0
0, 0
0, 0
0, 1
1, 0
1, 0
1, 0
0, 0
0, 0
0, 1
0, 0
0, 0
0, 0
1, 1
1, 0
1, 0
0, 0
0, 0
0, 0
0, 0
0, 0
0, 0
1, 1
0, 0
1, 0
0, 0
0, 1
0, 0
0, 0
0, 0
0, 0
0, 1
0, 0
0, 0
0, 0
0, 0
0, 0
0, 0
0, 0
0, 0
0, 0
0, 0
0, 0
0, 0
0, 0
0, 0
0, 0
0, 0
0, 0
0, 0
0, 0
0, 0
0, 0
0, 0
0, 0
0, 0
0, 0
0, 0
0, 0
0, 0
0, 0
0, 0
0, 0
0, 0
0, 0
0, 0
0, 0
0, 0
0, 0
0, 0
0, 0
0, 0
0, 0
0, 0
0, 0
0, 0
0, 0
0, 0
0, 0
0, 0
0, 0
0, 0
0, 0
0, 0
0, 0
0, 0
0, 0
0, 0
0, 0
0, 0
0, 0
0, 0
0, 0
0, 0
0, 0
0, 0
0, 0
0, 0
0, 0
0, 0
0, 0
0, 0
0, 0
0, 0
0, 0
0, 0
0, 0
0, 0
0, 0
0, 0
0, 0
0, 0
0, 0
0, 0
0, 0
0, 0
0, 0
0, 0
0, 0
0, 0
0, 0
0, 0
0, 0
0, 0
0, 0
0, 0
0, 0
0, 0
0, 0
0, 0
0, 0
0, 0
0, 0
0, 0
#ENDOFDATA     end of spectrum data

File: ps__0852shot_2347.msa
#FORMAT      : EMSA/MAS spectral data file
#VERSION     : TC202v2.0 PIXL
#TITLE       : N/A
#DATE        :       Date in the format DD-MMM-YYYY, for example 07-JUL-2010
#TIME        :             The time of day at which the spectrum was recorded, in 24-hour format
#OWNER       : PIXL Flight Model       (PIXL will use this to indicate which instrument took the data.)
#NPOINTS     : 4096     Number of data points in the spectrum (This can be zero for configuration only files)
#NCOLUMNS    : 2     Number of data columns in the spectrum (This can be zero for configuration only files)
#XUNITS      : eV
#YUNITS      : COUNTS
#DATATYPE    : YY
#XPERCHAN    : 7.862, 7.881   eV per channel (separate by commas if more than one detector)
#OFFSET      : 18.5, -22.4         eV of first channel  (separate by commas if more than one detector
#SIGNALTYPE  : XRF
#YP_TEMP     : 2.203
#LIVETIME    : 8.57169, 8.55611   seconds (separate by commas if more than one detector)
#REALTIME    : 10, 10.0   seconds (separate by commas if more than one detector)
#SPECTRUM    : start of spectrum data
0, 0
0, 0
0, 0
0, 0
0, 0
0, 0
0, 0
0, 0
0, 0
0, 1
3, 4
35, 80
59, 69
5, 4
1, 3
90, 115
374, 475
91, 101
4, 10
2, 1
3, 1
0, 2
2, 4
5, 5
18, 23
28, 34
13, 26
8, 12
1, 1
2, 4
1, 1
1, 1
1, 0
9, 11
17, 9
2, 7
4, 2
4, 9
1, 2
1, 1
9, 7
7, 13
18, 11
6, 8
5, 11
4, 6
2, 5
5, 3
6, 5
49, 15
119, 7
46, 7
8, 8
42, 44
113, 81
37, 25
33, 53
403, 660
1915, 2527
1449, 1513
182, 148
15, 11
16, 15
71, 141
286, 372
215, 219
24, 29
5, 10
9, 11
7, 9
4, 7
4, 10
6, 12
9, 5
8, 2
6, 9
4, 7
8, 4
9, 1
7, 5
20, 2
22, 6
16, 14
3, 6
3, 4
4, 1
6, 4
2, 3
4, 10
1, 4
0, 2
1, 3
3, 1
2, 3
2, 1
4, 2
0, 7
3, 4
5, 0
10, 3
8, 3
5, 1
1, 4
1, 3
1, 3
4, 3
3, 4
0, 4
2, 4
1, 1
4, 4
1, 1
1, 3
0, 5
1, 3
1, 3
3, 4
3, 2
0, 0
1, 3
0, 2
2, 1
3, 3
1, 1
1, 2
1, 2
2, 1
0, 1
1, 1
2, 1
1, 2
1, 2
1, 0
1, 0
0, 0
0, 0
1, 0
0, 3
0, 0
0, 0
0, 0
1, 1
0, 0
1, 0
0, 0
0, 0
0, 0
1, 0
0, 2
0, 0
0, 0
0, 0
0, 0
1, 2
0, 0
0, 0
0, 0
0, 0
0, 0
0, 0
0, 0
0, 0
1, 0
0, 0
0, 0
1, 0
0, 0
0, 1
1, 0
1, 0
1, 0
0, 0
1, 0
0, 0
0, 0
0, 0
0, 0
0, 0
0, 0
0, 0
0, 0
0, 0
0, 0
1, 0
0, 0
0, 0
0, 0
0, 0
0, 0
0, 0
0, 0
0, 0
0, 0
0, 0
1, 0
0, 0
0, 0
0, 0
0, 0
0, 0
0, 0
0, 0
0, 0
0, 0
0, 0
0, 0
0, 0
0, 0
0, 0
0, 0
0, 0
0, 0
0, 0
0, 0
0, 0
0, 0
0, 0
0, 0
0, 0
0, 0
0, 0
0, 0
0, 0
0, 0
0, 0
0, 0
0, 0
0, 0
0, 0
0, 0
0, 0
0, 0
0, 0
0, 0
0, 0
0, 0
0, 0
0, 0
0, 0
0, 0
0, 0
0, 0
0, 0
0, 0
0, 0
0, 0
0, 0
0, 0
0, 0
0, 0
0, 0
0, 0
0, 0
0, 0
0, 0
0, 0
0, 0
0, 0
0, 0
0, 0
0, 0
0, 0
0, 0
0, 0
0, 0
0, 0
0, 0
0, 0
0, 0
0, 0
0, 0
0, 0
0, 0
0, 0
0, 0
0, 0
0, 0
0, 0
0, 0
0, 0
0, 0
0, 0
0, 0
0, 0
0, 0
0, 0
0, 0
0, 0
0, 0
0, 0
0, 0
0, 0
0, 0
0, 0
#ENDOFDATA     end of spectrum data

File: ps__0852shot_2348.msa
#FORMAT      : EMSA/MAS spectral data file
#VERSION     : TC202v2.0 PIXL
#TITLE       : N/A
#DATE        :       Date in the format DD-MMM-YYYY, for example 07-JUL-2010
#TIME        :             The time of day at which the spectrum was recorded, in 24-hour format
#OWNER       : PIXL Flight Model       (PIXL will use this to indicate which instrument took the data.)
#NPOINTS     : 4096     Number of data points in the spectrum (This can be zero for configuration only files)
#NCOLUMNS    : 2     Number of data columns in the spectrum (This can be zero for configuration only files)
#XUNITS      : eV
#YUNITS      : COUNTS
#DATATYPE    : YY
#XPERCHAN    : 7.862, 7.881   eV per channel (separate by commas if more than one detector)
#OFFSET      : 18.5, -22.4         eV of first channel  (separate by commas if more than one detector
#SIGNALTYPE  : XRF
#YP_TEMP     : 2.46
#LIVETIME    : 8.55963, 8.56994   seconds (separate by commas if more than one detector)
#REALTIME    : 10, 10.0   seconds (separate by commas if more than one detector)
#SPECTRUM    : start of spectrum data
0, 0
0, 0
0, 0
0, 0
0, 0
0, 0
0, 0
0, 0
0, 0
1, 2
0, 7
38, 44
65, 58
16, 6
5, 6
83, 90
420, 452
104, 82
4, 5
1, 2
1, 7
15, 16
9, 10
5, 6
26, 20
23, 29
12, 18
9, 6
1, 4
3, 1
3, 1
3, 2
3, 1
8, 12
16, 22
4, 9
4, 12
3, 4
5, 3
3, 5
7, 3
13, 8
6, 9
5, 6
5, 6
9, 8
3, 14
7, 10
8, 6
46, 17
84, 17
33, 7
14, 7
51, 43
97, 56
47, 25
26, 35
482, 558
2173, 2244
1595, 1296
192, 136
18, 11
19, 25
135, 113
359, 375
214, 179
27, 12
5, 3
15, 13
5, 8
9, 4
2, 12
7, 5
7, 4
11, 5
4, 1
8, 2
10, 6
12, 3
13, 2
9, 1
20, 4
7, 6
8, 8
5, 5
7, 6
10, 11
6, 3
3, 8
2, 3
3, 1
1, 4
3, 6
2, 2
4, 1
2, 1
4, 6
3, 4
5, 2
6, 4
10, 4
2, 2
4, 1
2, 0
2, 1
1, 3
4, 3
3, 4
0, 2
0, 1
2, 1
3, 1
0, 3
1, 1
2, 3
2, 4
7, 3
3, 3
1, 1
0, 3
3, 1
2, 1
1, 3
3, 1
1, 2
2, 0
0, 2
1, 0
1, 0
1, 2
0, 0
0, 2
3, 2
2, 0
0, 0
1, 1
1, 0
3, 2
1, 0
1, 1
0, 0
1, 0
0, 0
0, 1
0, 0
2, 1
0, 0
0, 2
0, 1
0, 0
0, 0
0, 0
0, 0
1, 0
0, 0
0, 0
0, 0
0, 1
1, 0
2, 0
0, 0
0, 0
1, 1
0, 0
0, 1
0, 0
0, 0
0, 0
0, 1
1, 1
0, 0
0, 0
0, 0
1, 1
0, 1
0, 0
0, 0
0, 0
0, 0
0, 0
0, 0
0, 0
0, 1
0, 0
0, 0
2, 0
0, 0
0, 0
0, 0
0, 0
0, 0
0, 0
0, 0
0, 0
0, 0
0, 0
0, 0
0, 0
0, 0
0, 0
0, 0
0, 0
0, 0
0, 0
0, 0
0, 0
0, 1
0, 0
0, 0
0, 0
0, 0
0, 0
0, 0
0, 0
0, 0
0, 1
0, 0
0, 0
0, 0
0, 0
0, 0
0, 0
0, 0
0, 0
0, 0
0, 0
0, 0
0, 0
0, 0
0, 0
0, 0
0, 0
0, 0
0, 0
0, 0
0, 0
0, 0
0, 0
0, 0
0, 0
0, 0
0, 0
0, 0
0, 0
0, 0
0, 0
0, 0
0, 0
0, 0
0, 0
0, 0
0, 0
0, 0
0, 0
0, 0
0, 0
0, 0
0, 0
0, 0
0, 0
0, 0
0, 0
0, 0
0, 0
0, 0
0, 0
0, 0
0, 0
0, 0
0, 0
0, 0
0, 0
0, 0
0, 0
0, 0
0, 0
0, 0
0, 0
0, 0
0, 0
0, 0
0, 0
0, 0
0, 0
0, 0
0, 0
0, 0
0, 0
0, 0
0, 0
0, 0
0, 0
0, 0
0, 0
#ENDOFDATA     end of spectrum data

File: ps__0852shot_2349.msa
#FORMAT      : EMSA/MAS spectral data file
#VERSION     : TC202v2.0 PIXL
#TITLE       : N/A
#DATE        :       Date in the format DD-MMM-YYYY, for example 07-JUL-2010
#TIME        :             The time of day at which the spectrum was recorded, in 24-hour format
#OWNER       : PIXL Flight Model       (PIXL will use this to indicate which instrument took the data.)
#NPOINTS     : 4096     Number of data points in the spectrum (This can be zero for configuration only files)
#NCOLUMNS    : 2     Number of data columns in the spectrum (This can be zero for configuration only files)
#XUNITS      : eV
#YUNITS      : COUNTS
#DATATYPE    : YY
#XPERCHAN    : 7.862, 7.881   eV per channel (separate by commas if more than one detector)
#OFFSET      : 18.5, -22.4         eV of first channel  (separate by commas if more than one detector
#SIGNALTYPE  : XRF
#YP_TEMP     : 2.364
#LIVETIME    : 8.56756, 8.54988   seconds (separate by commas if more than one detector)
#REALTIME    : 10, 10.0   seconds (separate by commas if more than one detector)
#SPECTRUM    : start of spectrum data
0, 0
0, 0
0, 0
0, 0
0, 0
0, 0
0, 0
0, 0
1, 0
2, 0
1, 1
38, 47
66, 51
9, 2
5, 5
99, 103
475, 466
102, 100
3, 10
1, 1
1, 4
18, 37
5, 11
15, 11
38, 37
42, 37
20, 28
8, 12
3, 7
1, 1
5, 0
9, 3
7, 4
15, 21
42, 56
9, 43
5, 30
7, 10
5, 2
0, 4
8, 4
21, 9
21, 9
15, 14
11, 8
5, 24
2, 32
3, 16
4, 23
13, 35
13, 22
7, 25
8, 17
44, 47
64, 58
31, 19
41, 39
480, 612
2154, 2366
1552, 1382
206, 145
24, 20
40, 25
160, 114
363, 347
246, 171
37, 28
3, 9
17, 8
20, 10
5, 16
1, 7
1, 9
4, 3
5, 9
6, 2
5, 10
13, 3
9, 5
7, 5
4, 6
4, 3
1, 5
4, 5
2, 11
6, 7
18, 3
11, 1
4, 0
5, 3
6, 6
3, 11
3, 9
2, 3
4, 1
5, 3
4, 0
1, 5
4, 2
10, 1
1, 4
2, 1
1, 0
0, 3
5, 4
5, 2
2, 1
2, 5
4, 3
6, 1
3, 4
3, 2
0, 0
5, 3
2, 3
2, 2
3, 7
4, 4
0, 1
3, 1
2, 1
3, 1
2, 2
3, 2
3, 1
1, 0
5, 0
1, 0
2, 0
1, 0
0, 0
0, 1
1, 2
2, 3
0, 1
0, 0
2, 0
2, 0
1, 1
0, 1
2, 2
0, 0
0, 0
0, 0
2, 0
0, 0
1, 1
0, 1
0, 1
0, 1
0, 0
1, 0
0, 0
0, 1
0, 0
0, 0
0, 0
1, 0
0, 0
0, 0
0, 0
0, 0
0, 0
0, 0
0, 0
0, 1
1, 0
0, 0
0, 0
0, 1
0, 0
2, 0
0, 0
0, 0
0, 1
1, 0
1, 0
0, 0
0, 0
0, 0
0, 0
0, 0
0, 1
0, 0
0, 0
0, 0
0, 0
1, 0
0, 0
0, 0
0, 0
0, 0
0, 0
0, 0
0, 0
0, 0
0, 1
0, 0
0, 0
0, 0
0, 1
0, 1
0, 0
0, 0
0, 0
0, 0
0, 0
0, 0
0, 0
0, 0
0, 0
0, 0
0, 0
0, 0
0, 0
0, 0
0, 0
0, 0
0, 0
0, 0
0, 0
0, 0
0, 0
0, 0
0, 0
0, 0
0, 0
0, 0
0, 0
0, 0
0, 0
0, 0
0, 0
0, 0
0, 0
0, 0
0, 0
0, 0
0, 0
0, 0
0, 0
0, 0
0, 0
0, 0
0, 0
0, 0
0, 0
0, 0
0, 0
0, 0
0, 0
0, 0
0, 0
0, 0
0, 0
0, 0
0, 0
0, 0
0, 0
0, 0
0, 0
0, 0
0, 0
0, 0
0, 0
0, 0
0, 0
0, 0
0, 0
0, 0
0, 0
0, 0
0, 0
0, 0
0, 0
0, 0
0, 0
0, 0
0, 0
0, 0
0, 0
0, 0
0, 0
0, 0
0, 0
0, 0
0, 0
0, 0
0, 0
0, 0
0, 0
0, 0
0, 0
0, 0
#ENDOFDATA     end of spectrum data

File: ps__0852shot_2350.msa
#FORMAT      : EMSA/MAS spectral data file
#VERSION     : TC202v2.0 PIXL
#TITLE       : N/A
#DATE        :       Date in the format DD-MMM-YYYY, for example 07-JUL-2010
#TIME        :             The time of day at which the spectrum was recorded, in 24-hour format
#OWNER       : PIXL Flight Model       (PIXL will use this to indicate which instrument took the data.)
#NPOINTS     : 4096     Number of data points in the spectrum (This can be zero for configuration only files)
#NCOLUMNS    : 2     Number of data columns in the spectrum (This can be zero for configuration only files)
#XUNITS      : eV
#YUNITS      : COUNTS
#DATATYPE    : YY
#XPERCHAN    : 7.862, 7.881   eV per channel (separate by commas if more than one detector)
#OFFSET      : 18.5, -22.4         eV of first channel  (separate by commas if more than one detector
#SIGNALTYPE  : XRF
#YP_TEMP     : 2.107
#LIVETIME    : 8.55615, 8.55023   seconds (separate by commas if more than one detector)
#REALTIME    : 10, 10.0   seconds (separate by commas if more than one detector)
#SPECTRUM    : start of spectrum data
0, 0
0, 0
0, 0
0, 0
0, 0
0, 0
0, 0
0, 0
0, 0
0, 2
0, 3
39, 47
64, 58
6, 4
3, 6
89, 118
441, 476
108, 110
6, 8
1, 1
6, 10
22, 32
13, 13
10, 6
31, 33
32, 39
19, 26
6, 14
4, 3
1, 1
3, 1
5, 2
4, 1
21, 20
24, 32
10, 21
9, 12
8, 5
2, 4
1, 1
5, 4
25, 4
13, 12
15, 6
8, 4
12, 8
6, 8
3, 6
5, 29
10, 89
9, 40
11, 30
7, 34
38, 61
46, 58
28, 32
31, 37
473, 647
2100, 2381
1603, 1422
202, 156
19, 13
18, 38
109, 144
362, 377
258, 214
30, 26
7, 5
18, 16
11, 4
2, 6
15, 4
2, 7
10, 7
2, 4
3, 4
3, 7
3, 6
4, 2
2, 5
14, 2
4, 2
3, 3
5, 4
7, 3
5, 4
7, 4
4, 1
3, 4
2, 10
2, 8
9, 5
2, 1
1, 5
10, 6
8, 4
8, 3
5, 2
3, 4
0, 2
6, 1
5, 2
5, 2
4, 3
2, 4
4, 3
3, 1
10, 4
8, 2
3, 2
2, 1
1, 3
0, 3
0, 3
3, 2
2, 3
3, 2
3, 3
1, 3
0, 1
1, 2
2, 1
3, 4
1, 0
2, 3
0, 1
2, 1
0, 0
0, 1
1, 0
1, 0
1, 2
0, 0
1, 1
0, 1
1, 3
2, 0
1, 2
1, 0
0, 0
0, 0
0, 0
0, 1
0, 0
0, 0
0, 1
1, 0
0, 0
0, 1
0, 0
1, 1
0, 0
0, 0
0, 0
0, 0
0, 1
0, 1
0, 0
0, 2
1, 2
0, 0
0, 0
0, 0
0, 0
1, 0
0, 0
0, 0
0, 0
2, 0
0, 0
0, 0
1, 0
1, 0
1, 0
0, 0
0, 0
0, 1
1, 0
0, 0
0, 0
0, 0
0, 1
0, 0
0, 0
0, 0
0, 0
0, 0
0, 0
0, 0
0, 0
0, 0
1, 1
0, 0
0, 0
0, 0
0, 0
0, 0
0, 0
0, 0
0, 0
0, 0
0, 0
0, 0
0, 0
0, 0
0, 0
0, 0
0, 0
0, 0
0, 0
0, 0
0, 0
0, 1
0, 0
0, 0
0, 0
0, 0
0, 0
0, 0
0, 0
0, 0
0, 0
0, 0
0, 0
0, 0
0, 0
0, 0
0, 0
0, 0
0, 0
0, 0
0, 0
0, 0
0, 0
0, 0
0, 0
0, 0
0, 0
0, 0
0, 0
0, 0
0, 0
0, 0
0, 0
0, 0
0, 0
0, 0
0, 0
0, 0
0, 0
0, 0
0, 0
0, 0
0, 0
0, 0
0, 0
0, 0
0, 0
0, 0
0, 0
0, 0
0, 0
0, 0
0, 0
0, 0
0, 0
0, 0
0, 0
0, 0
0, 0
0, 0
0, 0
0, 0
0, 0
0, 0
0, 0
0, 0
0, 0
0, 0
0, 0
0, 0
0, 0
0, 0
0, 0
0, 0
0, 0
0, 0
0, 0
0, 0
0, 0
0, 0
0, 0
0, 0
0, 0
#ENDOFDATA     end of spectrum data

File: ps__0852shot_2351.msa
#FORMAT      : EMSA/MAS spectral data file
#VERSION     : TC202v2.0 PIXL
#TITLE       : N/A
#DATE        :       Date in the format DD-MMM-YYYY, for example 07-JUL-2010
#TIME        :             The time of day at which the spectrum was recorded, in 24-hour format
#OWNER       : PIXL Flight Model       (PIXL will use this to indicate which instrument took the data.)
#NPOINTS     : 4096     Number of data points in the spectrum (This can be zero for configuration only files)
#NCOLUMNS    : 2     Number of data columns in the spectrum (This can be zero for configuration only files)
#XUNITS      : eV
#YUNITS      : COUNTS
#DATATYPE    : YY
#XPERCHAN    : 7.862, 7.881   eV per channel (separate by commas if more than one detector)
#OFFSET      : 18.5, -22.4         eV of first channel  (separate by commas if more than one detector
#SIGNALTYPE  : XRF
#YP_TEMP     : 2.171
#LIVETIME    : 8.56222, 8.55382   seconds (separate by commas if more than one detector)
#REALTIME    : 10, 10.0   seconds (separate by commas if more than one detector)
#SPECTRUM    : start of spectrum data
0, 0
0, 0
0, 0
0, 0
0, 0
0, 0
0, 0
0, 0
0, 2
2, 1
2, 2
43, 45
48, 53
3, 6
7, 4
98, 85
375, 436
95, 86
2, 4
1, 1
3, 3
23, 17
12, 9
8, 12
32, 52
49, 42
18, 27
7, 13
1, 4
1, 4
0, 9
4, 4
3, 2
18, 14
39, 29
5, 11
3, 5
4, 7
5, 4
4, 5
8, 1
14, 8
26, 16
13, 11
8, 3
4, 6
2, 6
2, 9
10, 13
20, 43
10, 25
11, 13
15, 18
45, 51
52, 58
20, 23
28, 51
454, 615
2106, 2290
1593, 1337
201, 152
11, 25
22, 31
105, 109
332, 348
231, 180
32, 26
13, 14
11, 28
11, 23
1, 5
3, 5
1, 2
4, 3
6, 3
9, 5
7, 3
7, 6
2, 3
2, 5
3, 4
6, 3
10, 5
9, 3
11, 2
4, 4
9, 5
4, 3
1, 4
1, 5
5, 5
2, 8
9, 3
12, 3
10, 4
5, 1
2, 6
5, 4
1, 4
0, 4
3, 1
2, 5
3, 1
2, 0
2, 3
1, 3
2, 3
3, 2
3, 3
0, 1
1, 3
4, 2
1, 0
2, 2
2, 4
2, 2
2, 5
3, 0
0, 0
3, 0
0, 0
0, 4
2, 1
2, 1
1, 2
1, 1
4, 3
1, 1
1, 2
1, 0
1, 1
0, 1
2, 2
1, 0
1, 1
1, 1
0, 1
2, 0
0, 1
0, 2
0, 0
1, 1
0, 0
3, 1
0, 0
1, 1
1, 0
0, 1
0, 1
0, 0
0, 0
0, 0
0, 0
0, 0
0, 1
0, 1
0, 2
1, 0
0, 0
0, 0
0, 1
0, 0
0, 0
0, 0
0, 0
0, 0
1, 0
0, 0
1, 1
0, 0
0, 1
0, 0
1, 0
1, 0
0, 0
0, 0
0, 0
0, 0
0, 0
0, 0
0, 0
0, 0
0, 0
1, 0
0, 0
0, 0
2, 0
0, 1
1, 0
1, 0
0, 0
0, 0
0, 0
0, 0
0, 0
0, 1
0, 0
0, 0
0, 0
0, 0
0, 0
0, 0
0, 0
0, 0
0, 0
0, 0
0, 0
0, 0
0, 0
0, 0
0, 0
0, 0
0, 0
0, 0
0, 0
0, 0
0, 0
0, 0
0, 0
0, 0
0, 0
0, 0
0, 0
0, 0
0, 0
0, 0
0, 0
0, 0
0, 0
0, 0
0, 0
0, 0
0, 0
0, 0
0, 0
0, 0
0, 0
0, 0
0, 0
0, 0
0, 0
0, 0
0, 0
0, 0
0, 0
0, 0
0, 0
0, 0
0, 0
0, 0
0, 0
0, 0
0, 0
0, 0
0, 0
0, 0
0, 0
0, 0
0, 0
0, 0
0, 0
0, 0
0, 0
0, 0
0, 0
0, 0
0, 0
0, 0
0, 0
0, 0
0, 0
0, 0
0, 0
0, 0
0, 0
0, 0
0, 0
0, 0
0, 0
0, 0
0, 0
0, 0
0, 0
0, 0
0, 0
0, 0
0, 0
0, 0
0, 0
0, 0
0, 0
0, 0
0, 0
0, 0
#ENDOFDATA     end of spectrum data

File: ps__0852shot_2353.msa
#FORMAT      : EMSA/MAS spectral data file
#VERSION     : TC202v2.0 PIXL
#TITLE       : N/A
#DATE        :       Date in the format DD-MMM-YYYY, for example 07-JUL-2010
#TIME        :             The time of day at which the spectrum was recorded, in 24-hour format
#OWNER       : PIXL Flight Model       (PIXL will use this to indicate which instrument took the data.)
#NPOINTS     : 4096     Number of data points in the spectrum (This can be zero for configuration only files)
#NCOLUMNS    : 2     Number of data columns in the spectrum (This can be zero for configuration only files)
#XUNITS      : eV
#YUNITS      : COUNTS
#DATATYPE    : YY
#XPERCHAN    : 7.862, 7.881   eV per channel (separate by commas if more than one detector)
#OFFSET      : 18.5, -22.4         eV of first channel  (separate by commas if more than one detector
#SIGNALTYPE  : XRF
#YP_TEMP     : 2.235
#LIVETIME    : 8.56728, 8.3711   seconds (separate by commas if more than one detector)
#REALTIME    : 10, 10.0   seconds (separate by commas if more than one detector)
#SPECTRUM    : start of spectrum data
0, 0
0, 0
0, 0
0, 0
0, 0
0, 0
0, 0
0, 0
0, 1
0, 1
4, 1
36, 36
59, 52
2, 6
2, 5
93, 114
407, 485
94, 110
4, 5
4, 3
3, 7
21, 26
13, 8
15, 12
37, 64
56, 45
30, 25
15, 8
0, 4
1, 1
4, 2
3, 2
3, 3
4, 6
9, 9
4, 8
1, 5
7, 12
1, 15
0, 3
2, 6
10, 7
13, 28
6, 28
5, 1
5, 5
6, 8
4, 6
5, 10
6, 12
13, 4
10, 4
9, 17
45, 53
54, 54
18, 20
34, 32
433, 614
2088, 2433
1559, 1447
175, 153
12, 19
20, 23
94, 113
346, 401
221, 197
34, 22
35, 11
34, 16
10, 10
3, 6
4, 8
8, 6
5, 4
7, 4
6, 5
5, 5
2, 2
1, 5
2, 5
6, 4
4, 2
1, 8
9, 10
3, 18
3, 7
4, 0
5, 3
2, 4
1, 3
5, 4
2, 5
3, 2
0, 6
3, 2
2, 7
2, 5
5, 4
5, 3
0, 2
2, 3
1, 2
0, 1
5, 4
2, 6
1, 7
1, 4
1, 0
5, 4
1, 2
0, 1
2, 0
1, 2
0, 0
4, 2
6, 6
3, 6
0, 2
5, 0
3, 1
2, 4
0, 0
4, 2
0, 2
1, 1
2, 2
2, 1
0, 4
0, 2
1, 1
0, 2
1, 0
0, 0
3, 2
1, 2
1, 0
1, 2
2, 0
0, 1
0, 0
1, 0
1, 0
1, 0
0, 0
1, 0
0, 1
0, 0
0, 0
0, 1
1, 0
0, 1
0, 0
0, 2
0, 2
1, 0
2, 0
1, 1
0, 0
0, 0
0, 0
0, 1
0, 0
0, 0
0, 0
0, 0
0, 0
0, 0
0, 1
0, 0
1, 1
1, 0
0, 1
0, 0
1, 0
0, 0
0, 1
1, 0
1, 0
1, 0
0, 0
0, 0
1, 1
0, 0
1, 0
0, 0
0, 0
0, 0
0, 0
0, 0
0, 0
0, 0
0, 0
0, 0
0, 0
0, 0
0, 2
1, 0
0, 0
0, 0
0, 0
0, 0
0, 0
0, 0
0, 0
0, 0
0, 0
0, 0
0, 0
0, 0
0, 0
0, 0
0, 0
0, 0
0, 0
0, 0
0, 0
0, 0
0, 0
0, 0
1, 0
0, 0
0, 0
0, 0
0, 0
0, 0
0, 0
0, 0
0, 0
0, 0
0, 0
0, 0
0, 0
0, 0
0, 0
0, 0
0, 0
0, 0
0, 0
0, 0
0, 0
0, 0
0, 0
0, 0
0, 0
0, 0
0, 0
0, 0
0, 0
0, 0
0, 0
0, 0
0, 0
0, 0
0, 0
0, 0
0, 0
0, 0
0, 0
0, 0
0, 0
0, 0
0, 0
0, 0
0, 0
0, 0
0, 0
0, 0
0, 0
0, 0
0, 0
0, 0
0, 0
0, 0
0, 0
0, 0
0, 0
0, 0
0, 0
0, 0
0, 0
0, 0
0, 0
0, 0
0, 0
0, 0
0, 0
0, 0
0, 0
0, 0
0, 0
0, 0
0, 0
0, 0
0, 0
#ENDOFDATA     end of spectrum data

File: ps__0852shot_2354.msa
#FORMAT      : EMSA/MAS spectral data file
#VERSION     : TC202v2.0 PIXL
#TITLE       : N/A
#DATE        :       Date in the format DD-MMM-YYYY, for example 07-JUL-2010
#TIME        :             The time of day at which the spectrum was recorded, in 24-hour format
#OWNER       : PIXL Flight Model       (PIXL will use this to indicate which instrument took the data.)
#NPOINTS     : 4096     Number of data points in the spectrum (This can be zero for configuration only files)
#NCOLUMNS    : 2     Number of data columns in the spectrum (This can be zero for configuration only files)
#XUNITS      : eV
#YUNITS      : COUNTS
#DATATYPE    : YY
#XPERCHAN    : 7.862, 7.881   eV per channel (separate by commas if more than one detector)
#OFFSET      : 18.5, -22.4         eV of first channel  (separate by commas if more than one detector
#SIGNALTYPE  : XRF
#YP_TEMP     : 2.267
#LIVETIME    : 8.57467, 8.54937   seconds (separate by commas if more than one detector)
#REALTIME    : 10, 10.0   seconds (separate by commas if more than one detector)
#SPECTRUM    : start of spectrum data
0, 0
0, 0
0, 0
0, 0
0, 0
0, 0
0, 0
0, 0
1, 1
4, 0
3, 1
26, 50
43, 54
5, 6
4, 6
91, 122
395, 462
91, 105
5, 9
0, 0
8, 11
53, 81
29, 41
6, 17
49, 49
51, 38
23, 27
16, 15
3, 6
2, 1
2, 2
6, 3
2, 1
5, 13
13, 14
2, 55
5, 57
10, 8
8, 6
8, 3
3, 5
9, 8
15, 19
18, 18
5, 10
6, 4
6, 6
10, 6
7, 8
13, 12
10, 16
3, 5
9, 10
36, 46
59, 68
75, 24
84, 39
395, 622
1811, 2633
1336, 1483
139, 143
15, 49
20, 43
66, 136
299, 388
206, 219
28, 20
18, 11
17, 16
18, 8
4, 13
6, 16
5, 6
7, 8
5, 3
9, 10
5, 4
3, 6
3, 3
1, 3
5, 7
2, 3
4, 3
4, 5
2, 11
4, 13
5, 2
9, 5
11, 2
7, 5
3, 8
2, 9
0, 5
2, 6
3, 4
2, 7
2, 2
0, 5
1, 4
4, 1
1, 6
2, 7
2, 2
1, 4
0, 8
3, 6
5, 2
3, 2
3, 3
2, 3
4, 4
0, 0
0, 4
2, 2
3, 6
1, 7
2, 2
1, 5
3, 0
0, 1
2, 2
1, 1
1, 1
0, 2
4, 1
1, 0
1, 1
0, 1
2, 0
0, 1
0, 0
0, 3
1, 0
0, 3
1, 1
0, 0
1, 0
1, 0
0, 0
1, 2
0, 1
0, 0
1, 1
1, 2
0, 2
3, 0
1, 1
1, 0
1, 0
1, 0
1, 0
0, 0
1, 0
0, 0
0, 1
1, 0
0, 0
0, 0
0, 0
0, 0
0, 0
0, 0
0, 0
0, 0
0, 0
0, 0
0, 1
0, 0
0, 0
0, 2
0, 0
0, 0
0, 0
0, 0
0, 0
0, 0
0, 0
0, 0
0, 0
0, 0
0, 0
1, 2
0, 0
0, 0
0, 0
1, 0
0, 0
0, 0
0, 0
1, 0
0, 0
0, 0
0, 0
0, 0
0, 0
0, 0
0, 0
0, 0
0, 0
0, 0
0, 0
0, 0
0, 0
0, 0
0, 0
0, 0
0, 0
0, 0
0, 0
0, 0
0, 0
0, 0
0, 0
0, 0
0, 0
0, 0
0, 0
0, 0
0, 0
0, 0
0, 0
0, 0
0, 0
0, 0
0, 0
0, 0
0, 0
0, 0
0, 0
0, 0
0, 0
0, 0
0, 0
0, 0
0, 0
0, 0
0, 0
0, 0
0, 0
0, 0
0, 0
0, 0
0, 0
0, 0
0, 0
0, 0
0, 0
0, 0
0, 0
0, 0
0, 0
0, 0
0, 0
0, 0
0, 0
0, 0
0, 0
0, 0
0, 0
0, 0
0, 0
0, 0
0, 0
0, 0
0, 0
0, 0
0, 0
0, 0
0, 0
0, 0
0, 0
0, 0
0, 0
0, 0
0, 0
0, 0
0, 0
0, 0
0, 0
0, 0
0, 0
0, 0
0, 0
0, 0
0, 0
0, 0
0, 0
0, 0
0, 0
0, 0
0, 0
0, 0
0, 0
0, 0
#ENDOFDATA     end of spectrum data

File: ps__0852shot_2355.msa
#FORMAT      : EMSA/MAS spectral data file
#VERSION     : TC202v2.0 PIXL
#TITLE       : N/A
#DATE        :       Date in the format DD-MMM-YYYY, for example 07-JUL-2010
#TIME        :             The time of day at which the spectrum was recorded, in 24-hour format
#OWNER       : PIXL Flight Model       (PIXL will use this to indicate which instrument took the data.)
#NPOINTS     : 4096     Number of data points in the spectrum (This can be zero for configuration only files)
#NCOLUMNS    : 2     Number of data columns in the spectrum (This can be zero for configuration only files)
#XUNITS      : eV
#YUNITS      : COUNTS
#DATATYPE    : YY
#XPERCHAN    : 7.862, 7.881   eV per channel (separate by commas if more than one detector)
#OFFSET      : 18.5, -22.4         eV of first channel  (separate by commas if more than one detector
#SIGNALTYPE  : XRF
#YP_TEMP     : 2.043
#LIVETIME    : 8.56523, 8.55033   seconds (separate by commas if more than one detector)
#REALTIME    : 10, 10.0   seconds (separate by commas if more than one detector)
#SPECTRUM    : start of spectrum data
0, 0
0, 0
0, 0
0, 0
0, 0
0, 0
0, 0
0, 0
1, 3
0, 2
3, 3
40, 34
61, 33
3, 4
7, 4
113, 93
453, 428
106, 88
7, 3
5, 2
11, 14
96, 99
35, 38
18, 15
55, 56
59, 49
26, 28
14, 17
7, 5
2, 5
2, 4
2, 1
3, 3
13, 9
11, 19
6, 29
3, 50
9, 10
13, 8
2, 3
8, 3
8, 5
16, 18
11, 11
8, 9
4, 6
7, 8
6, 9
5, 7
14, 9
9, 14
6, 6
14, 10
46, 36
69, 42
59, 21
75, 44
430, 593
1976, 2128
1499, 1307
187, 151
16, 27
17, 22
95, 112
301, 343
241, 158
29, 20
8, 4
15, 13
7, 12
4, 6
4, 18
5, 6
12, 12
16, 4
14, 4
8, 4
9, 7
8, 8
1, 8
0, 6
2, 4
1, 5
6, 2
1, 8
3, 1
3, 4
8, 2
14, 4
5, 5
3, 4
5, 4
3, 4
6, 10
2, 2
3, 7
2, 2
1, 5
2, 1
3, 1
1, 2
1, 2
1, 2
3, 4
0, 1
0, 4
2, 1
2, 2
3, 1
4, 1
4, 1
8, 0
4, 0
1, 1
2, 5
3, 2
4, 2
1, 1
2, 0
1, 0
2, 1
0, 2
2, 5
0, 4
1, 3
0, 0
2, 2
0, 0
0, 1
0, 1
0, 1
0, 2
0, 0
1, 0
0, 0
1, 1
1, 0
0, 1
0, 0
3, 0
2, 2
1, 2
0, 0
1, 1
2, 0
0, 0
2, 1
0, 0
1, 1
1, 0
0, 0
0, 1
0, 0
0, 0
1, 1
0, 1
1, 0
0, 0
0, 0
0, 0
1, 0
0, 0
0, 0
0, 0
1, 0
0, 0
0, 0
0, 0
1, 1
0, 0
0, 0
0, 0
0, 1
0, 0
0, 0
0, 0
0, 0
0, 0
0, 0
0, 0
0, 0
0, 0
0, 0
1, 0
0, 1
0, 1
0, 0
0, 0
0, 0
0, 0
0, 0
0, 0
0, 0
0, 0
1, 0
0, 0
0, 0
0, 0
0, 0
0, 0
0, 0
0, 0
1, 0
0, 0
0, 0
0, 0
0, 0
0, 0
0, 0
0, 0
0, 0
0, 0
0, 0
0, 0
0, 0
0, 0
0, 0
0, 0
0, 1
0, 0
0, 0
0, 0
0, 0
0, 0
0, 0
0, 0
0, 0
0, 0
0, 0
0, 0
0, 0
0, 0
0, 0
0, 0
0, 0
0, 0
0, 0
0, 0
0, 0
0, 0
0, 0
0, 0
0, 0
0, 0
0, 0
0, 0
0, 0
0, 0
0, 0
0, 0
0, 0
0, 0
0, 0
0, 0
0, 0
0, 0
0, 0
0, 0
0, 0
0, 0
0, 0
0, 0
0, 0
0, 0
0, 0
0, 0
0, 0
0, 0
0, 0
0, 0
0, 0
0, 0
0, 0
0, 0
0, 0
0, 0
0, 0
0, 0
0, 0
0, 0
0, 0
0, 0
0, 0
0, 0
0, 0
0, 0
0, 0
0, 0
0, 0
0, 0
0, 0
0, 0
0, 0
0, 0
#ENDOFDATA     end of spectrum data