Folder: data-repository/host_upload/06-09-2024/ps_0852/dump3 (part 27)

File: ps__0852shot_2237.msa
#FORMAT      : EMSA/MAS spectral data file
#VERSION     : TC202v2.0 PIXL
#TITLE       : N/A
#DATE        :       Date in the format DD-MMM-YYYY, for example 07-JUL-2010
#TIME        :             The time of day at which the spectrum was recorded, in 24-hour format
#OWNER       : PIXL Flight Model       (PIXL will use this to indicate which instrument took the data.)
#NPOINTS     : 4096     Number of data points in the spectrum (This can be zero for configuration only files)
#NCOLUMNS    : 2     Number of data columns in the spectrum (This can be zero for configuration only files)
#XUNITS      : eV
#YUNITS      : COUNTS
#DATATYPE    : YY
#XPERCHAN    : 7.862, 7.881   eV per channel (separate by commas if more than one detector)
#OFFSET      : 18.5, -22.4         eV of first channel  (separate by commas if more than one detector
#SIGNALTYPE  : XRF
#YP_TEMP     : 2.332
#LIVETIME    : 8.54415, 8.5199   seconds (separate by commas if more than one detector)
#REALTIME    : 10, 10.0   seconds (separate by commas if more than one detector)
#SPECTRUM    : start of spectrum data
0, 0
0, 0
0, 0
0, 0
0, 0
0, 0
0, 0
0, 0
0, 0
0, 0
1, 3
50, 43
62, 59
7, 6
6, 7
84, 97
467, 403
105, 108
2, 2
1, 2
2, 4
7, 5
3, 3
2, 3
25, 17
53, 19
25, 24
16, 12
4, 8
4, 4
4, 5
1, 5
2, 1
10, 11
15, 15
12, 3
5, 5
8, 5
16, 2
37, 4
55, 2
27, 9
16, 13
15, 21
6, 10
5, 8
6, 8
5, 10
8, 8
14, 18
21, 13
32, 8
53, 7
117, 41
89, 61
19, 22
30, 38
465, 562
2290, 2208
1661, 1341
184, 142
17, 18
24, 25
99, 141
334, 363
240, 169
43, 23
12, 3
17, 15
15, 7
3, 5
5, 3
6, 8
3, 3
8, 4
14, 7
16, 5
2, 7
17, 7
10, 5
16, 13
2, 16
5, 2
3, 4
2, 4
4, 2
2, 2
5, 10
2, 7
6, 7
3, 6
8, 2
13, 13
10, 17
4, 15
4, 3
2, 5
1, 4
1, 3
5, 3
1, 1
2, 0
3, 0
3, 0
4, 1
2, 1
4, 4
1, 3
1, 2
2, 6
0, 1
1, 2
1, 2
2, 0
3, 1
2, 6
4, 6
3, 4
5, 4
0, 1
2, 2
1, 0
0, 6
1, 0
2, 1
2, 1
1, 0
4, 2
2, 1
0, 1
1, 1
0, 2
0, 0
0, 1
0, 1
0, 1
0, 1
0, 2
0, 1
0, 0
2, 1
2, 0
1, 0
1, 0
2, 0
2, 3
0, 0
0, 2
0, 0
0, 1
0, 1
0, 0
0, 0
0, 0
1, 1
0, 2
0, 0
0, 0
0, 0
1, 0
0, 0
1, 0
0, 0
2, 1
0, 0
0, 0
0, 0
0, 0
1, 0
0, 0
0, 0
0, 0
0, 0
0, 0
0, 0
0, 0
0, 1
0, 0
0, 0
0, 0
1, 0
0, 0
0, 1
0, 0
0, 0
0, 0
0, 0
0, 0
0, 0
0, 0
0, 0
0, 0
0, 0
0, 0
0, 2
0, 0
0, 0
0, 0
0, 0
0, 0
0, 0
0, 0
0, 0
0, 0
0, 0
0, 0
0, 0
0, 0
0, 0
0, 0
0, 0
0, 0
1, 0
0, 0
0, 0
0, 0
0, 0
0, 0
0, 0
0, 0
0, 0
0, 0
0, 0
0, 0
0, 0
0, 0
0, 0
0, 0
0, 0
0, 0
0, 0
0, 0
0, 0
0, 0
0, 0
0, 0
0, 0
0, 0
0, 0
0, 0
0, 0
0, 0
0, 0
0, 0
0, 0
0, 0
0, 0
0, 0
0, 0
0, 0
0, 0
0, 0
0, 0
0, 0
0, 0
0, 0
0, 0
0, 0
0, 0
0, 0
0, 0
0, 0
0, 0
0, 0
0, 0
0, 0
0, 0
0, 0
0, 0
0, 0
0, 0
0, 0
0, 0
0, 0
0, 0
0, 0
0, 0
0, 0
0, 0
0, 0
0, 0
0, 0
0, 0
0, 0
0, 0
0, 0
0, 0
0, 0
0, 0
0, 0
0, 0
0, 0
0, 0
0, 0
#ENDOFDATA     end of spectrum data

File: ps__0852shot_2238.msa
#FORMAT      : EMSA/MAS spectral data file
#VERSION     : TC202v2.0 PIXL
#TITLE       : N/A
#DATE        :       Date in the format DD-MMM-YYYY, for example 07-JUL-2010
#TIME        :             The time of day at which the spectrum was recorded, in 24-hour format
#OWNER       : PIXL Flight Model       (PIXL will use this to indicate which instrument took the data.)
#NPOINTS     : 4096     Number of data points in the spectrum (This can be zero for configuration only files)
#NCOLUMNS    : 2     Number of data columns in the spectrum (This can be zero for configuration only files)
#XUNITS      : eV
#YUNITS      : COUNTS
#DATATYPE    : YY
#XPERCHAN    : 7.862, 7.881   eV per channel (separate by commas if more than one detector)
#OFFSET      : 18.5, -22.4         eV of first channel  (separate by commas if more than one detector
#SIGNALTYPE  : XRF
#YP_TEMP     : 2.267
#LIVETIME    : 8.56707, 8.51638   seconds (separate by commas if more than one detector)
#REALTIME    : 10, 10.0   seconds (separate by commas if more than one detector)
#SPECTRUM    : start of spectrum data
0, 0
0, 0
0, 0
0, 0
0, 0
0, 0
0, 0
0, 0
1, 1
4, 1
4, 4
53, 38
63, 78
8, 9
8, 12
98, 89
459, 416
113, 95
4, 3
1, 0
1, 0
4, 5
3, 2
6, 0
67, 21
110, 22
30, 16
13, 13
2, 7
3, 8
1, 5
4, 0
1, 9
12, 24
25, 20
2, 7
6, 4
10, 1
13, 2
15, 0
19, 4
14, 9
20, 23
13, 26
9, 8
3, 8
5, 17
4, 18
6, 6
11, 26
8, 21
13, 13
19, 9
68, 53
73, 54
27, 21
26, 39
468, 617
2094, 2368
1558, 1349
195, 159
18, 18
26, 36
118, 124
350, 355
234, 203
33, 26
15, 5
13, 14
13, 13
7, 7
4, 3
1, 3
6, 5
5, 6
10, 8
4, 9
1, 11
6, 11
10, 8
6, 8
4, 9
3, 10
2, 6
2, 3
4, 7
3, 3
3, 0
1, 3
2, 2
2, 3
3, 5
6, 6
6, 9
4, 8
6, 1
5, 6
2, 4
1, 5
1, 4
2, 1
1, 2
2, 1
4, 3
3, 1
3, 5
5, 3
3, 3
4, 2
1, 3
1, 2
4, 2
4, 1
3, 4
0, 1
0, 3
3, 3
1, 3
4, 1
1, 2
3, 2
4, 3
2, 2
0, 2
2, 5
0, 1
2, 2
3, 0
1, 1
1, 2
1, 3
0, 1
2, 1
0, 0
2, 2
2, 2
1, 2
0, 2
0, 2
1, 2
0, 2
0, 1
0, 1
1, 1
1, 0
2, 1
1, 0
2, 1
0, 0
0, 1
1, 0
1, 0
0, 0
0, 0
0, 0
2, 0
0, 0
0, 0
0, 0
1, 0
1, 0
0, 0
1, 0
0, 0
0, 0
0, 0
1, 0
0, 0
0, 0
0, 1
0, 1
0, 1
0, 0
0, 0
0, 2
0, 0
0, 0
0, 0
1, 1
0, 0
0, 0
0, 1
0, 0
0, 0
1, 0
0, 1
0, 0
0, 0
0, 0
0, 0
0, 0
0, 0
0, 0
0, 0
0, 0
0, 0
0, 0
0, 0
0, 0
0, 0
0, 0
0, 0
0, 0
0, 0
0, 0
0, 0
1, 0
0, 0
0, 0
0, 0
0, 0
0, 0
0, 0
0, 0
0, 0
0, 0
0, 0
0, 0
0, 0
0, 0
0, 0
0, 0
0, 0
0, 0
0, 0
0, 0
0, 0
0, 0
0, 0
0, 0
0, 0
0, 0
0, 0
0, 0
0, 0
0, 0
0, 0
0, 0
0, 0
0, 0
0, 0
0, 0
0, 0
0, 0
0, 0
0, 0
0, 0
0, 0
0, 0
0, 0
0, 0
0, 0
0, 0
0, 0
0, 0
0, 0
0, 0
0, 0
0, 0
0, 0
0, 0
0, 0
0, 0
0, 0
0, 0
0, 0
0, 0
0, 0
0, 0
0, 0
0, 0
0, 0
0, 0
0, 0
0, 0
0, 0
0, 0
0, 0
0, 0
0, 0
0, 0
0, 0
0, 0
0, 0
0, 0
0, 0
0, 0
0, 0
0, 0
0, 0
0, 0
0, 0
0, 0
0, 0
#ENDOFDATA     end of spectrum data

File: ps__0852shot_2239.msa
#FORMAT      : EMSA/MAS spectral data file
#VERSION     : TC202v2.0 PIXL
#TITLE       : N/A
#DATE        :       Date in the format DD-MMM-YYYY, for example 07-JUL-2010
#TIME        :             The time of day at which the spectrum was recorded, in 24-hour format
#OWNER       : PIXL Flight Model       (PIXL will use this to indicate which instrument took the data.)
#NPOINTS     : 4096     Number of data points in the spectrum (This can be zero for configuration only files)
#NCOLUMNS    : 2     Number of data columns in the spectrum (This can be zero for configuration only files)
#XUNITS      : eV
#YUNITS      : COUNTS
#DATATYPE    : YY
#XPERCHAN    : 7.862, 7.881   eV per channel (separate by commas if more than one detector)
#OFFSET      : 18.5, -22.4         eV of first channel  (separate by commas if more than one detector
#SIGNALTYPE  : XRF
#YP_TEMP     : 2.332
#LIVETIME    : 8.56289, 8.52623   seconds (separate by commas if more than one detector)
#REALTIME    : 10, 10.0   seconds (separate by commas if more than one detector)
#SPECTRUM    : start of spectrum data
0, 0
0, 0
0, 0
0, 0
0, 0
0, 0
0, 0
0, 0
0, 0
1, 1
3, 3
59, 43
63, 58
4, 5
5, 2
96, 84
470, 377
126, 82
7, 5
1, 0
0, 2
1, 1
3, 4
4, 2
24, 15
33, 22
21, 15
16, 14
5, 2
1, 2
3, 2
1, 7
1, 15
12, 50
17, 13
4, 0
5, 4
9, 1
4, 3
8, 1
18, 3
24, 8
18, 10
22, 9
12, 8
6, 8
3, 15
0, 4
10, 11
15, 21
13, 23
8, 11
33, 12
65, 36
89, 48
31, 14
76, 37
540, 527
2282, 2176
1705, 1194
195, 124
12, 22
21, 23
120, 106
332, 350
237, 179
46, 18
24, 12
33, 13
10, 10
6, 2
8, 5
3, 1
4, 1
3, 4
4, 2
4, 3
5, 5
6, 4
9, 3
7, 5
9, 5
2, 2
4, 5
5, 1
5, 3
8, 4
3, 4
3, 2
6, 3
4, 3
3, 1
6, 9
5, 6
7, 6
4, 1
3, 0
3, 3
2, 3
2, 2
2, 3
2, 2
2, 2
5, 0
3, 1
2, 2
2, 1
4, 5
5, 0
2, 0
3, 1
3, 4
7, 5
2, 3
0, 0
4, 3
1, 5
4, 2
6, 2
4, 2
2, 1
0, 2
1, 1
2, 0
1, 1
1, 1
2, 3
3, 0
0, 0
0, 0
2, 1
0, 0
1, 1
0, 2
1, 0
1, 1
1, 1
3, 0
1, 3
0, 1
1, 1
1, 0
0, 0
0, 0
0, 0
0, 1
1, 0
2, 1
0, 1
0, 0
0, 1
0, 0
0, 0
1, 0
0, 1
1, 0
0, 0
1, 1
1, 0
0, 0
1, 1
0, 0
0, 2
0, 0
0, 0
0, 0
1, 0
0, 1
0, 0
0, 0
1, 1
0, 2
0, 0
0, 0
0, 1
0, 1
0, 0
0, 0
0, 0
0, 0
0, 0
0, 0
0, 0
0, 0
0, 1
0, 0
0, 0
0, 0
0, 0
1, 0
0, 0
0, 1
0, 0
0, 0
0, 0
0, 0
0, 0
0, 0
0, 0
0, 0
0, 0
0, 0
0, 0
0, 0
0, 0
0, 0
0, 0
0, 0
0, 0
0, 0
0, 0
0, 0
0, 0
0, 0
0, 0
0, 0
0, 0
0, 0
0, 0
0, 0
0, 0
0, 0
0, 0
0, 0
0, 0
0, 0
0, 0
0, 0
0, 0
0, 0
0, 0
0, 0
0, 0
0, 0
0, 0
0, 0
0, 0
0, 0
0, 0
0, 0
0, 0
0, 0
0, 0
0, 0
0, 0
0, 0
0, 0
0, 0
0, 0
0, 0
0, 0
0, 0
0, 0
0, 0
0, 0
0, 0
0, 0
0, 0
0, 0
0, 0
0, 0
0, 0
0, 0
0, 0
0, 0
0, 0
0, 0
0, 0
0, 0
0, 0
0, 0
0, 0
0, 0
0, 0
0, 0
0, 0
0, 0
0, 0
0, 0
0, 0
0, 0
0, 0
0, 0
0, 0
0, 0
0, 0
0, 0
0, 0
0, 0
0, 0
0, 0
0, 0
0, 0
0, 0
#ENDOFDATA     end of spectrum data

File: ps__0852shot_2240.msa
#FORMAT      : EMSA/MAS spectral data file
#VERSION     : TC202v2.0 PIXL
#TITLE       : N/A
#DATE        :       Date in the format DD-MMM-YYYY, for example 07-JUL-2010
#TIME        :             The time of day at which the spectrum was recorded, in 24-hour format
#OWNER       : PIXL Flight Model       (PIXL will use this to indicate which instrument took the data.)
#NPOINTS     : 4096     Number of data points in the spectrum (This can be zero for configuration only files)
#NCOLUMNS    : 2     Number of data columns in the spectrum (This can be zero for configuration only files)
#XUNITS      : eV
#YUNITS      : COUNTS
#DATATYPE    : YY
#XPERCHAN    : 7.862, 7.881   eV per channel (separate by commas if more than one detector)
#OFFSET      : 18.5, -22.4         eV of first channel  (separate by commas if more than one detector
#SIGNALTYPE  : XRF
#YP_TEMP     : 2.332
#LIVETIME    : 8.55624, 8.52401   seconds (separate by commas if more than one detector)
#REALTIME    : 10, 10.0   seconds (separate by commas if more than one detector)
#SPECTRUM    : start of spectrum data
0, 0
0, 0
0, 0
0, 0
0, 0
0, 0
0, 0
0, 0
1, 2
0, 0
6, 1
49, 39
66, 60
7, 8
5, 4
103, 96
429, 434
105, 117
9, 4
1, 3
0, 1
4, 1
1, 2
2, 4
18, 11
22, 36
22, 12
13, 11
7, 3
0, 4
3, 1
2, 1
1, 6
8, 31
19, 23
8, 8
4, 0
4, 5
10, 5
33, 2
55, 2
25, 6
10, 10
13, 11
8, 5
8, 8
2, 8
8, 12
2, 9
15, 22
10, 21
17, 15
52, 14
147, 46
91, 54
35, 14
52, 35
515, 588
2236, 2195
1597, 1262
211, 120
15, 12
21, 30
109, 143
318, 351
231, 171
33, 27
10, 11
17, 12
10, 6
4, 4
4, 4
2, 2
5, 5
4, 7
2, 3
5, 4
5, 6
12, 5
17, 7
9, 4
1, 14
2, 12
3, 3
6, 4
4, 1
3, 4
2, 1
2, 2
4, 4
6, 4
11, 4
4, 12
8, 13
6, 8
3, 3
2, 3
4, 7
4, 2
2, 1
1, 0
4, 2
3, 1
5, 0
8, 1
2, 3
2, 0
0, 2
1, 1
1, 3
1, 3
4, 2
2, 2
1, 3
1, 1
3, 1
7, 4
0, 2
3, 1
1, 2
1, 4
0, 3
5, 0
2, 0
0, 1
0, 0
0, 0
2, 0
1, 0
0, 1
2, 2
1, 1
0, 0
0, 1
1, 0
0, 0
1, 2
1, 1
1, 0
1, 0
1, 2
1, 0
0, 1
0, 1
0, 0
0, 0
1, 0
0, 1
1, 0
0, 0
1, 0
1, 0
0, 0
0, 0
0, 0
0, 0
3, 0
0, 0
0, 0
0, 2
0, 1
1, 0
0, 0
0, 0
0, 0
1, 0
0, 0
0, 0
0, 0
0, 3
0, 0
0, 0
1, 1
0, 0
0, 1
0, 0
0, 0
0, 0
0, 0
0, 0
0, 1
0, 0
0, 0
0, 0
1, 0
0, 0
0, 0
0, 1
0, 0
0, 0
0, 0
0, 0
0, 0
0, 0
0, 0
0, 0
0, 0
0, 0
0, 0
0, 0
0, 0
0, 0
0, 0
0, 0
1, 0
0, 0
0, 0
0, 0
0, 0
0, 0
0, 0
0, 0
0, 0
0, 0
0, 0
0, 0
0, 0
0, 0
0, 0
0, 0
0, 0
0, 0
0, 0
0, 0
0, 0
0, 0
0, 0
0, 0
0, 0
0, 0
0, 0
0, 0
0, 0
0, 0
0, 0
0, 0
0, 0
0, 0
0, 0
0, 0
0, 0
0, 0
0, 0
0, 0
0, 0
0, 0
0, 0
0, 0
0, 0
0, 0
0, 0
0, 0
0, 0
0, 0
0, 0
0, 0
0, 0
0, 0
0, 0
0, 0
0, 0
0, 0
0, 0
0, 0
0, 0
0, 0
0, 0
0, 0
0, 0
0, 0
0, 0
0, 0
0, 0
0, 0
0, 0
0, 0
0, 0
0, 0
0, 0
0, 0
0, 0
0, 0
0, 0
0, 0
0, 0
0, 0
0, 0
0, 0
0, 0
0, 0
0, 0
0, 0
0, 0
0, 0
#ENDOFDATA     end of spectrum data

File: ps__0852shot_2241.msa
#FORMAT      : EMSA/MAS spectral data file
#VERSION     : TC202v2.0 PIXL
#TITLE       : N/A
#DATE        :       Date in the format DD-MMM-YYYY, for example 07-JUL-2010
#TIME        :             The time of day at which the spectrum was recorded, in 24-hour format
#OWNER       : PIXL Flight Model       (PIXL will use this to indicate which instrument took the data.)
#NPOINTS     : 4096     Number of data points in the spectrum (This can be zero for configuration only files)
#NCOLUMNS    : 2     Number of data columns in the spectrum (This can be zero for configuration only files)
#XUNITS      : eV
#YUNITS      : COUNTS
#DATATYPE    : YY
#XPERCHAN    : 7.862, 7.881   eV per channel (separate by commas if more than one detector)
#OFFSET      : 18.5, -22.4         eV of first channel  (separate by commas if more than one detector
#SIGNALTYPE  : XRF
#YP_TEMP     : 2.235
#LIVETIME    : 8.54141, 8.5526   seconds (separate by commas if more than one detector)
#REALTIME    : 10, 10.0   seconds (separate by commas if more than one detector)
#SPECTRUM    : start of spectrum data
0, 0
0, 0
0, 0
0, 0
0, 0
0, 0
0, 0
0, 0
2, 1
2, 2
3, 2
52, 44
61, 45
12, 9
15, 8
104, 109
410, 419
104, 100
13, 5
10, 5
10, 3
23, 3
3, 3
10, 9
47, 49
34, 38
34, 27
16, 10
6, 5
3, 2
8, 7
7, 10
6, 5
30, 31
69, 53
11, 6
6, 8
13, 12
7, 3
36, 8
65, 4
31, 22
17, 16
11, 9
7, 3
10, 12
17, 12
9, 12
5, 9
13, 20
18, 29
16, 12
50, 11
120, 45
86, 63
29, 16
39, 39
458, 587
2108, 2132
1613, 1248
190, 142
26, 16
15, 26
104, 111
349, 343
240, 171
48, 21
8, 12
12, 7
12, 9
6, 3
2, 4
9, 6
2, 3
4, 6
8, 8
7, 5
5, 6
14, 6
13, 5
8, 4
5, 13
4, 8
5, 4
3, 1
1, 0
5, 3
2, 3
0, 5
3, 6
5, 5
3, 2
15, 12
8, 6
3, 8
2, 5
3, 3
5, 0
4, 3
5, 0
3, 4
2, 4
2, 2
3, 1
0, 1
2, 3
6, 0
2, 2
2, 0
2, 4
2, 0
4, 3
4, 2
0, 2
2, 2
3, 3
7, 3
2, 2
5, 2
3, 3
1, 1
3, 1
3, 0
0, 0
1, 0
1, 3
2, 0
0, 1
2, 1
5, 1
1, 0
0, 1
3, 1
1, 1
2, 1
1, 1
2, 1
2, 0
0, 0
2, 2
0, 1
0, 0
0, 1
0, 0
0, 0
0, 0
0, 3
0, 1
1, 0
0, 0
0, 0
0, 0
0, 0
0, 0
1, 0
0, 0
0, 0
1, 1
1, 0
0, 1
0, 0
0, 0
1, 0
0, 0
0, 0
0, 1
0, 0
0, 0
0, 2
0, 0
0, 1
0, 0
1, 0
0, 1
0, 0
0, 0
0, 0
0, 0
0, 0
0, 0
0, 0
0, 0
0, 0
0, 0
0, 0
0, 0
0, 0
0, 0
0, 0
0, 0
0, 0
0, 1
0, 0
0, 0
0, 0
0, 0
0, 0
0, 0
0, 0
0, 0
0, 0
0, 0
1, 0
0, 0
0, 0
0, 0
0, 0
0, 0
0, 0
0, 0
0, 0
0, 0
0, 0
0, 0
0, 0
0, 0
0, 0
0, 0
0, 0
0, 0
0, 0
0, 0
0, 0
0, 0
0, 0
0, 0
0, 0
0, 0
0, 0
0, 0
0, 0
0, 0
0, 0
0, 0
0, 0
0, 0
0, 0
0, 0
0, 0
0, 0
0, 0
0, 0
0, 0
0, 0
0, 0
0, 0
0, 0
0, 0
0, 0
0, 0
0, 0
0, 0
0, 0
0, 0
0, 0
0, 0
0, 0
0, 0
0, 0
0, 0
0, 0
0, 0
0, 0
0, 0
0, 0
0, 0
0, 0
0, 0
0, 0
0, 0
0, 0
0, 0
0, 0
0, 0
0, 0
0, 0
0, 0
0, 0
0, 0
0, 0
0, 0
0, 0
0, 0
0, 0
0, 0
0, 0
0, 0
0, 0
0, 0
0, 0
0, 0
0, 0
0, 0
0, 0
#ENDOFDATA     end of spectrum data

File: ps__0852shot_2242.msa
#FORMAT      : EMSA/MAS spectral data file
#VERSION     : TC202v2.0 PIXL
#TITLE       : N/A
#DATE        :       Date in the format DD-MMM-YYYY, for example 07-JUL-2010
#TIME        :             The time of day at which the spectrum was recorded, in 24-hour format
#OWNER       : PIXL Flight Model       (PIXL will use this to indicate which instrument took the data.)
#NPOINTS     : 4096     Number of data points in the spectrum (This can be zero for configuration only files)
#NCOLUMNS    : 2     Number of data columns in the spectrum (This can be zero for configuration only files)
#XUNITS      : eV
#YUNITS      : COUNTS
#DATATYPE    : YY
#XPERCHAN    : 7.862, 7.881   eV per channel (separate by commas if more than one detector)
#OFFSET      : 18.5, -22.4         eV of first channel  (separate by commas if more than one detector
#SIGNALTYPE  : XRF
#YP_TEMP     : 2.267
#LIVETIME    : 8.54195, 8.5283   seconds (separate by commas if more than one detector)
#REALTIME    : 10, 10.0   seconds (separate by commas if more than one detector)
#SPECTRUM    : start of spectrum data
0, 0
0, 0
0, 0
0, 0
0, 0
0, 0
0, 0
0, 0
3, 1
2, 4
3, 1
40, 39
52, 52
6, 11
11, 12
113, 102
424, 446
108, 110
20, 7
15, 9
12, 2
26, 5
5, 7
19, 19
64, 67
58, 37
38, 33
20, 16
5, 5
3, 3
19, 11
13, 9
7, 5
34, 27
45, 42
9, 5
3, 8
11, 9
9, 4
7, 1
11, 7
27, 23
14, 24
12, 12
9, 11
12, 6
11, 8
7, 8
8, 13
29, 26
48, 22
28, 6
11, 11
39, 34
66, 58
23, 17
33, 88
487, 649
2075, 2166
1520, 1225
201, 127
20, 10
21, 22
104, 103
314, 357
215, 166
36, 25
9, 4
26, 19
16, 12
16, 6
5, 1
5, 6
2, 8
12, 9
11, 6
4, 9
9, 1
3, 1
3, 8
5, 2
11, 24
17, 26
8, 8
3, 3
2, 2
8, 3
6, 2
0, 5
7, 4
3, 3
6, 5
4, 2
8, 1
2, 4
2, 1
1, 5
2, 3
3, 1
4, 0
9, 3
8, 1
3, 1
2, 1
3, 8
3, 4
4, 3
5, 2
2, 1
2, 1
0, 1
2, 2
1, 1
2, 2
2, 4
3, 5
2, 8
1, 4
0, 1
1, 1
0, 1
1, 3
3, 3
2, 1
2, 1
0, 3
1, 1
1, 0
0, 2
0, 1
1, 0
1, 1
2, 1
0, 0
0, 1
1, 2
0, 0
2, 2
2, 1
0, 1
1, 0
3, 0
0, 2
2, 0
1, 1
0, 1
2, 0
2, 1
1, 1
0, 0
0, 0
0, 0
1, 0
0, 0
1, 0
0, 0
0, 0
0, 0
0, 1
1, 0
1, 0
1, 0
1, 0
0, 0
1, 0
0, 0
1, 0
0, 0
0, 0
1, 0
0, 0
0, 0
0, 1
1, 0
0, 0
0, 1
0, 0
0, 1
0, 0
0, 0
0, 0
0, 0
0, 0
0, 0
0, 0
0, 0
0, 0
0, 0
0, 0
0, 0
0, 0
0, 0
0, 0
0, 0
0, 0
0, 0
0, 0
0, 1
0, 0
0, 0
0, 0
0, 0
0, 0
0, 0
0, 0
0, 0
0, 0
0, 0
0, 0
0, 0
0, 0
0, 0
0, 0
0, 0
0, 0
0, 0
0, 0
0, 0
0, 0
0, 0
0, 0
0, 0
0, 0
0, 0
0, 0
0, 0
0, 0
0, 0
0, 0
0, 0
0, 0
0, 0
0, 0
0, 0
0, 0
0, 0
0, 0
0, 0
0, 0
0, 0
0, 0
0, 0
0, 0
0, 0
0, 0
0, 0
0, 0
0, 0
0, 0
0, 0
0, 0
0, 0
0, 0
0, 0
0, 0
0, 0
0, 0
0, 0
0, 0
0, 0
0, 0
0, 0
0, 0
0, 0
0, 0
0, 0
0, 0
0, 0
0, 0
0, 0
0, 0
0, 0
0, 0
0, 0
0, 0
0, 0
0, 0
0, 0
0, 0
0, 0
0, 0
0, 0
0, 0
0, 0
0, 0
0, 0
0, 0
0, 0
0, 0
0, 0
0, 0
0, 0
0, 0
0, 0
#ENDOFDATA     end of spectrum data

File: ps__0852shot_2243.msa
#FORMAT      : EMSA/MAS spectral data file
#VERSION     : TC202v2.0 PIXL
#TITLE       : N/A
#DATE        :       Date in the format DD-MMM-YYYY, for example 07-JUL-2010
#TIME        :             The time of day at which the spectrum was recorded, in 24-hour format
#OWNER       : PIXL Flight Model       (PIXL will use this to indicate which instrument took the data.)
#NPOINTS     : 4096     Number of data points in the spectrum (This can be zero for configuration only files)
#NCOLUMNS    : 2     Number of data columns in the spectrum (This can be zero for configuration only files)
#XUNITS      : eV
#YUNITS      : COUNTS
#DATATYPE    : YY
#XPERCHAN    : 7.862, 7.881   eV per channel (separate by commas if more than one detector)
#OFFSET      : 18.5, -22.4         eV of first channel  (separate by commas if more than one detector
#SIGNALTYPE  : XRF
#YP_TEMP     : 2.267
#LIVETIME    : 8.5797, 8.57314   seconds (separate by commas if more than one detector)
#REALTIME    : 10, 10.0   seconds (separate by commas if more than one detector)
#SPECTRUM    : start of spectrum data
0, 0
0, 0
0, 0
0, 0
0, 0
0, 0
0, 0
0, 0
1, 3
0, 0
4, 7
49, 48
63, 65
1, 5
6, 11
96, 125
438, 494
94, 108
6, 7
2, 0
1, 1
8, 5
1, 9
9, 28
44, 60
35, 54
20, 19
15, 13
7, 5
2, 4
3, 3
4, 4
3, 1
25, 13
26, 28
5, 1
5, 5
7, 9
1, 3
4, 5
0, 3
12, 11
14, 14
15, 15
4, 10
9, 6
5, 10
8, 4
5, 14
30, 12
44, 12
32, 9
11, 19
32, 48
67, 57
35, 35
29, 92
432, 735
2033, 2491
1425, 1451
180, 143
12, 18
19, 28
98, 144
347, 403
234, 201
34, 22
7, 8
16, 12
21, 11
8, 3
2, 2
7, 8
7, 10
10, 6
4, 2
5, 3
2, 4
3, 4
2, 3
1, 7
10, 22
24, 21
17, 4
7, 2
1, 1
1, 4
6, 1
2, 6
1, 5
2, 2
2, 2
4, 2
2, 1
4, 5
1, 4
1, 5
3, 4
3, 3
5, 3
5, 1
3, 1
5, 2
4, 5
2, 6
4, 4
2, 4
3, 2
1, 4
2, 2
0, 3
1, 1
2, 0
2, 5
2, 3
1, 3
5, 4
5, 4
2, 1
2, 1
3, 2
0, 4
4, 9
2, 0
1, 2
2, 2
1, 4
1, 1
1, 0
2, 1
0, 2
1, 1
1, 2
0, 0
1, 2
0, 2
0, 2
1, 3
0, 2
1, 1
2, 1
0, 0
1, 0
0, 1
0, 1
0, 0
0, 0
0, 1
1, 0
0, 2
1, 1
1, 0
1, 0
0, 0
0, 0
1, 0
1, 0
0, 0
0, 1
0, 1
0, 0
0, 1
0, 0
0, 1
0, 0
0, 0
0, 0
0, 0
0, 0
0, 1
0, 0
0, 2
1, 1
0, 0
1, 0
0, 0
0, 0
0, 0
0, 0
1, 0
0, 0
0, 0
0, 0
1, 0
0, 1
1, 0
0, 1
0, 0
1, 0
0, 0
0, 0
0, 0
0, 0
0, 0
0, 0
0, 0
0, 0
0, 0
0, 0
0, 0
0, 0
0, 0
0, 0
0, 0
0, 0
0, 0
0, 0
0, 0
0, 0
0, 0
0, 0
0, 0
0, 0
0, 0
0, 0
1, 0
0, 0
0, 0
0, 0
0, 0
0, 0
0, 0
0, 0
0, 0
0, 0
0, 0
0, 0
0, 0
0, 0
0, 0
0, 0
0, 0
0, 0
0, 0
0, 0
0, 0
0, 0
0, 0
0, 0
0, 0
0, 0
0, 0
0, 0
0, 0
0, 0
0, 0
0, 0
0, 0
0, 0
0, 0
0, 0
0, 0
0, 0
0, 0
0, 0
0, 0
0, 0
0, 0
0, 0
0, 0
0, 0
0, 0
0, 0
0, 0
0, 0
0, 0
0, 0
0, 0
0, 0
0, 0
0, 0
0, 0
0, 0
0, 0
0, 0
0, 0
0, 0
0, 0
0, 0
0, 0
0, 0
0, 0
0, 0
0, 0
0, 0
0, 0
0, 0
0, 0
0, 0
0, 0
0, 0
0, 0
0, 0
0, 0
#ENDOFDATA     end of spectrum data

File: ps__0852shot_2244.msa
#FORMAT      : EMSA/MAS spectral data file
#VERSION     : TC202v2.0 PIXL
#TITLE       : N/A
#DATE        :       Date in the format DD-MMM-YYYY, for example 07-JUL-2010
#TIME        :             The time of day at which the spectrum was recorded, in 24-hour format
#OWNER       : PIXL Flight Model       (PIXL will use this to indicate which instrument took the data.)
#NPOINTS     : 4096     Number of data points in the spectrum (This can be zero for configuration only files)
#NCOLUMNS    : 2     Number of data columns in the spectrum (This can be zero for configuration only files)
#XUNITS      : eV
#YUNITS      : COUNTS
#DATATYPE    : YY
#XPERCHAN    : 7.862, 7.881   eV per channel (separate by commas if more than one detector)
#OFFSET      : 18.5, -22.4         eV of first channel  (separate by commas if more than one detector
#SIGNALTYPE  : XRF
#YP_TEMP     : 2.075
#LIVETIME    : 8.57679, 8.57961   seconds (separate by commas if more than one detector)
#REALTIME    : 10, 10.0   seconds (separate by commas if more than one detector)
#SPECTRUM    : start of spectrum data
0, 0
0, 0
0, 0
0, 0
0, 0
0, 0
0, 0
0, 0
1, 0
0, 1
1, 5
39, 43
52, 58
8, 3
4, 7
84, 116
406, 434
93, 97
4, 3
4, 1
1, 0
8, 6
5, 12
11, 22
32, 37
38, 45
26, 26
18, 15
3, 7
0, 2
0, 2
5, 1
9, 3
16, 14
30, 30
10, 3
5, 6
5, 11
3, 11
7, 2
3, 8
15, 15
12, 24
18, 17
7, 7
6, 20
7, 27
9, 14
9, 8
16, 16
18, 19
10, 11
18, 9
51, 42
69, 63
31, 27
37, 41
487, 622
2188, 2468
1611, 1396
195, 173
24, 21
30, 23
120, 122
309, 337
241, 213
36, 27
7, 7
17, 12
13, 14
7, 4
3, 6
5, 7
3, 3
5, 10
16, 3
5, 4
6, 3
6, 1
3, 6
3, 3
6, 5
8, 7
7, 4
2, 11
5, 2
4, 3
8, 5
8, 8
9, 5
5, 2
5, 1
4, 3
1, 3
3, 4
3, 8
4, 7
3, 2
4, 3
5, 2
4, 2
2, 3
4, 3
1, 1
3, 2
3, 1
1, 7
2, 3
5, 0
1, 6
2, 1
1, 3
1, 1
1, 3
2, 2
0, 3
4, 3
1, 3
3, 2
2, 2
2, 0
5, 2
2, 1
2, 3
3, 1
1, 3
2, 3
0, 0
0, 3
1, 0
0, 2
0, 0
3, 0
1, 0
0, 0
0, 1
1, 1
0, 0
1, 0
1, 1
0, 0
0, 3
0, 1
2, 0
1, 0
3, 1
0, 0
0, 0
0, 1
0, 0
0, 0
1, 0
1, 0
0, 1
0, 1
0, 1
0, 0
0, 2
0, 0
1, 0
0, 0
1, 0
0, 0
0, 0
0, 0
0, 0
0, 1
0, 0
0, 1
0, 0
0, 0
0, 0
0, 0
1, 0
0, 0
1, 0
1, 0
0, 0
0, 0
0, 1
2, 0
0, 0
0, 0
0, 0
0, 1
1, 0
0, 0
0, 0
0, 0
0, 0
0, 0
0, 0
0, 0
0, 0
1, 0
0, 0
0, 0
0, 0
0, 0
0, 0
0, 0
0, 0
0, 0
0, 0
0, 0
0, 0
0, 0
0, 0
0, 0
1, 0
0, 0
0, 0
0, 0
0, 0
0, 0
0, 0
0, 0
0, 0
0, 0
0, 0
0, 0
0, 0
0, 0
0, 0
0, 0
0, 0
0, 0
0, 0
0, 0
0, 0
0, 0
0, 0
0, 0
0, 0
0, 0
0, 0
0, 0
0, 0
0, 0
0, 0
0, 0
0, 0
0, 0
0, 0
0, 0
0, 0
0, 0
0, 0
0, 0
0, 0
0, 0
0, 0
0, 0
0, 0
0, 0
0, 0
0, 0
0, 0
0, 0
0, 0
0, 0
0, 0
0, 0
0, 0
0, 0
0, 0
0, 0
0, 0
0, 0
0, 0
0, 0
0, 0
0, 0
0, 0
0, 0
0, 0
0, 0
0, 0
0, 0
0, 0
0, 0
0, 0
0, 0
0, 0
0, 0
0, 0
0, 0
0, 0
0, 0
0, 0
0, 0
0, 0
0, 0
0, 0
#ENDOFDATA     end of spectrum data

File: ps__0852shot_2245.msa
#FORMAT      : EMSA/MAS spectral data file
#VERSION     : TC202v2.0 PIXL
#TITLE       : N/A
#DATE        :       Date in the format DD-MMM-YYYY, for example 07-JUL-2010
#TIME        :             The time of day at which the spectrum was recorded, in 24-hour format
#OWNER       : PIXL Flight Model       (PIXL will use this to indicate which instrument took the data.)
#NPOINTS     : 4096     Number of data points in the spectrum (This can be zero for configuration only files)
#NCOLUMNS    : 2     Number of data columns in the spectrum (This can be zero for configuration only files)
#XUNITS      : eV
#YUNITS      : COUNTS
#DATATYPE    : YY
#XPERCHAN    : 7.862, 7.881   eV per channel (separate by commas if more than one detector)
#OFFSET      : 18.5, -22.4         eV of first channel  (separate by commas if more than one detector
#SIGNALTYPE  : XRF
#YP_TEMP     : 2.235
#LIVETIME    : 8.58036, 8.57194   seconds (separate by commas if more than one detector)
#REALTIME    : 10, 10.0   seconds (separate by commas if more than one detector)
#SPECTRUM    : start of spectrum data
0, 0
0, 0
0, 0
0, 0
0, 0
0, 0
0, 0
1, 0
1, 0
1, 2
0, 4
31, 41
70, 51
5, 4
12, 4
89, 88
443, 395
124, 94
4, 4
2, 6
1, 2
5, 5
1, 5
11, 12
39, 41
66, 38
33, 26
17, 17
6, 2
1, 1
6, 2
3, 2
7, 12
21, 11
17, 7
7, 5
3, 2
5, 8
5, 8
4, 7
3, 6
14, 19
18, 29
8, 15
12, 9
5, 8
6, 8
8, 21
28, 6
15, 17
30, 9
23, 26
14, 53
39, 60
70, 37
21, 20
59, 43
543, 556
2378, 2300
1679, 1339
237, 129
36, 22
41, 30
114, 131
335, 366
254, 183
41, 27
8, 13
17, 12
10, 4
3, 1
2, 3
7, 4
10, 4
7, 6
10, 12
10, 8
4, 11
1, 7
3, 4
4, 5
6, 2
9, 4
8, 6
9, 5
8, 7
7, 4
5, 3
5, 4
3, 3
3, 7
3, 3
3, 5
4, 6
5, 4
2, 0
1, 1
4, 2
5, 2
2, 1
4, 3
2, 0
3, 4
1, 4
6, 6
5, 5
1, 2
1, 4
4, 3
4, 3
2, 0
1, 1
4, 1
3, 2
1, 2
4, 2
2, 4
4, 0
1, 1
1, 1
1, 0
3, 2
2, 3
1, 4
1, 1
3, 1
1, 1
0, 1
2, 1
1, 1
0, 2
1, 2
0, 0
0, 2
0, 0
1, 0
1, 2
1, 0
1, 1
3, 1
1, 0
0, 0
0, 0
0, 1
0, 0
1, 0
1, 0
2, 1
2, 0
3, 0
1, 0
0, 0
1, 0
0, 1
0, 0
0, 0
0, 0
0, 0
0, 0
2, 1
0, 0
1, 0
0, 0
0, 0
0, 0
0, 0
1, 0
0, 0
1, 0
1, 0
1, 0
2, 0
0, 0
0, 1
0, 2
0, 0
1, 0
1, 0
0, 0
0, 0
0, 0
0, 0
1, 0
0, 0
0, 0
1, 0
0, 0
0, 0
0, 0
1, 0
0, 0
0, 0
0, 0
0, 0
1, 0
0, 1
0, 0
0, 1
0, 0
1, 0
0, 0
0, 0
0, 1
0, 0
0, 0
0, 0
0, 0
0, 0
0, 0
0, 0
0, 0
0, 0
0, 0
0, 0
0, 0
0, 0
0, 0
0, 0
0, 1
0, 0
0, 0
0, 0
0, 0
0, 0
0, 1
0, 0
0, 0
0, 0
0, 0
0, 0
0, 0
0, 0
0, 0
0, 0
0, 0
0, 0
0, 0
0, 0
0, 0
0, 0
0, 0
0, 0
0, 0
0, 0
0, 0
0, 0
0, 0
0, 0
0, 0
0, 0
0, 0
0, 0
0, 0
0, 0
0, 0
0, 0
0, 0
0, 0
0, 0
0, 0
0, 0
0, 0
0, 0
0, 0
0, 0
0, 0
0, 0
0, 0
0, 0
0, 0
0, 0
0, 0
0, 0
0, 0
0, 0
0, 0
0, 0
0, 0
0, 0
0, 0
0, 0
0, 0
0, 0
0, 0
0, 0
0, 0
0, 0
0, 0
0, 0
0, 0
0, 0
0, 0
0, 0
0, 0
#ENDOFDATA     end of spectrum data