Folder: data-repository/host_upload/06-09-2024/ps_0852/dump3 (part 54)

File: ps__0852shot_2483.msa
#FORMAT      : EMSA/MAS spectral data file
#VERSION     : TC202v2.0 PIXL
#TITLE       : N/A
#DATE        :       Date in the format DD-MMM-YYYY, for example 07-JUL-2010
#TIME        :             The time of day at which the spectrum was recorded, in 24-hour format
#OWNER       : PIXL Flight Model       (PIXL will use this to indicate which instrument took the data.)
#NPOINTS     : 4096     Number of data points in the spectrum (This can be zero for configuration only files)
#NCOLUMNS    : 2     Number of data columns in the spectrum (This can be zero for configuration only files)
#XUNITS      : eV
#YUNITS      : COUNTS
#DATATYPE    : YY
#XPERCHAN    : 7.862, 7.881   eV per channel (separate by commas if more than one detector)
#OFFSET      : 18.5, -22.4         eV of first channel  (separate by commas if more than one detector
#SIGNALTYPE  : XRF
#YP_TEMP     : 2.364
#LIVETIME    : 8.60352, 8.55793   seconds (separate by commas if more than one detector)
#REALTIME    : 10, 10.0   seconds (separate by commas if more than one detector)
#SPECTRUM    : start of spectrum data
0, 0
0, 0
0, 0
0, 0
0, 0
0, 0
0, 0
0, 0
0, 1
0, 0
3, 2
46, 44
65, 39
2, 9
3, 7
96, 110
436, 391
90, 89
2, 0
0, 1
1, 1
5, 1
0, 2
12, 6
28, 23
50, 24
36, 22
10, 13
5, 2
1, 1
2, 1
1, 3
3, 10
38, 34
59, 51
18, 16
23, 10
13, 9
1, 13
3, 4
4, 6
12, 10
13, 13
11, 17
10, 11
13, 4
5, 8
6, 5
13, 15
26, 43
39, 38
30, 9
15, 20
39, 63
64, 94
32, 48
37, 49
450, 521
2061, 2221
1506, 1284
185, 127
23, 20
16, 43
89, 119
317, 347
203, 215
33, 20
7, 4
8, 13
12, 14
6, 5
8, 2
8, 4
8, 1
12, 5
10, 8
6, 11
3, 3
1, 3
4, 2
4, 4
8, 1
1, 3
7, 3
3, 4
4, 2
3, 1
1, 1
1, 5
5, 5
3, 9
4, 4
3, 2
4, 5
2, 5
1, 4
0, 2
3, 1
0, 1
2, 3
3, 8
4, 2
2, 4
2, 1
3, 3
5, 3
1, 0
1, 5
3, 2
3, 4
4, 2
5, 2
1, 3
1, 2
0, 2
1, 2
6, 7
4, 3
3, 3
1, 3
0, 3
2, 3
2, 2
4, 1
0, 2
0, 1
0, 0
1, 2
0, 0
0, 0
0, 0
2, 0
1, 0
1, 1
0, 1
1, 2
0, 1
0, 0
2, 2
0, 2
2, 0
0, 0
1, 0
0, 0
2, 0
0, 2
1, 1
2, 1
0, 0
0, 1
0, 0
0, 0
0, 0
0, 0
1, 0
0, 0
0, 0
0, 1
0, 0
1, 1
0, 0
0, 0
0, 0
0, 0
0, 0
0, 0
0, 0
0, 0
1, 0
1, 0
0, 1
0, 0
0, 0
0, 0
0, 1
0, 0
0, 0
1, 0
0, 0
0, 0
0, 0
0, 0
0, 0
0, 0
0, 0
1, 0
0, 0
0, 0
0, 0
0, 0
0, 0
0, 0
0, 0
1, 0
0, 1
0, 0
0, 0
0, 0
0, 0
0, 0
0, 0
0, 0
0, 0
0, 0
0, 0
0, 0
0, 0
0, 0
0, 0
0, 0
0, 0
0, 0
0, 0
0, 0
0, 0
0, 0
0, 0
0, 0
0, 0
0, 0
0, 0
0, 0
0, 0
0, 0
0, 0
0, 0
0, 0
0, 0
0, 0
0, 0
0, 0
0, 0
0, 0
0, 0
0, 0
0, 0
0, 0
0, 0
0, 0
0, 0
0, 0
0, 0
0, 0
0, 0
0, 0
0, 0
0, 0
0, 0
0, 0
0, 0
0, 0
0, 0
0, 0
0, 0
0, 0
0, 0
0, 0
0, 0
0, 0
0, 0
0, 0
0, 0
0, 0
0, 0
0, 0
0, 0
0, 0
0, 0
0, 0
0, 0
0, 0
0, 0
0, 0
0, 0
0, 0
0, 0
0, 0
0, 0
0, 0
0, 0
0, 0
0, 0
0, 0
0, 0
0, 0
0, 0
0, 0
0, 0
0, 0
0, 0
0, 0
0, 0
0, 0
0, 0
#ENDOFDATA     end of spectrum data

File: ps__0852shot_2484.msa
#FORMAT      : EMSA/MAS spectral data file
#VERSION     : TC202v2.0 PIXL
#TITLE       : N/A
#DATE        :       Date in the format DD-MMM-YYYY, for example 07-JUL-2010
#TIME        :             The time of day at which the spectrum was recorded, in 24-hour format
#OWNER       : PIXL Flight Model       (PIXL will use this to indicate which instrument took the data.)
#NPOINTS     : 4096     Number of data points in the spectrum (This can be zero for configuration only files)
#NCOLUMNS    : 2     Number of data columns in the spectrum (This can be zero for configuration only files)
#XUNITS      : eV
#YUNITS      : COUNTS
#DATATYPE    : YY
#XPERCHAN    : 7.862, 7.881   eV per channel (separate by commas if more than one detector)
#OFFSET      : 18.5, -22.4         eV of first channel  (separate by commas if more than one detector
#SIGNALTYPE  : XRF
#YP_TEMP     : 2.332
#LIVETIME    : 8.56292, 8.36737   seconds (separate by commas if more than one detector)
#REALTIME    : 10, 10.0   seconds (separate by commas if more than one detector)
#SPECTRUM    : start of spectrum data
0, 0
0, 0
0, 0
0, 0
0, 0
0, 0
0, 0
0, 0
0, 0
1, 0
1, 4
34, 32
54, 68
3, 5
4, 9
94, 80
377, 486
100, 104
7, 6
0, 2
3, 5
6, 3
3, 1
10, 13
48, 50
35, 37
24, 28
7, 21
8, 7
1, 1
1, 1
1, 1
4, 3
36, 34
48, 51
38, 10
71, 9
37, 9
1, 5
4, 6
6, 6
17, 18
18, 24
8, 15
5, 7
8, 6
4, 8
4, 17
18, 23
81, 101
59, 45
13, 11
14, 9
48, 49
61, 78
27, 25
35, 48
422, 594
2021, 2404
1449, 1375
154, 150
10, 10
23, 18
103, 119
323, 396
197, 195
29, 26
9, 5
14, 20
8, 20
17, 8
52, 3
58, 4
14, 9
11, 12
6, 11
5, 2
3, 3
3, 5
1, 6
6, 4
5, 3
5, 3
3, 7
3, 8
3, 2
11, 3
8, 4
1, 4
1, 2
2, 7
1, 3
3, 2
2, 3
1, 2
4, 5
4, 6
1, 4
1, 4
2, 6
2, 3
1, 5
4, 5
1, 5
1, 2
2, 6
3, 6
1, 3
2, 3
1, 2
3, 2
0, 2
1, 1
1, 1
0, 2
2, 2
6, 2
8, 3
3, 1
1, 1
0, 4
3, 0
0, 4
2, 4
1, 3
1, 0
1, 2
0, 0
2, 2
0, 0
1, 0
1, 2
1, 1
3, 0
2, 1
2, 1
2, 2
1, 0
0, 1
0, 0
0, 2
0, 0
1, 1
2, 0
1, 0
0, 0
0, 2
0, 0
0, 0
2, 1
0, 0
1, 0
0, 0
2, 0
0, 0
0, 0
0, 0
0, 0
0, 0
0, 0
0, 1
1, 0
0, 0
0, 0
1, 0
0, 1
1, 0
0, 0
0, 0
0, 0
0, 1
0, 0
1, 0
0, 0
0, 1
0, 0
0, 0
0, 0
0, 0
0, 0
0, 1
0, 0
0, 0
0, 0
0, 0
1, 0
0, 0
0, 0
0, 0
0, 0
0, 0
0, 0
0, 0
0, 0
0, 1
0, 0
0, 0
0, 0
0, 0
0, 0
0, 0
0, 0
0, 0
0, 0
0, 1
0, 0
0, 0
0, 0
0, 0
0, 0
0, 0
0, 0
0, 0
0, 0
0, 0
0, 0
0, 0
0, 0
0, 0
0, 0
0, 0
0, 0
0, 0
0, 0
0, 0
0, 0
0, 0
0, 0
0, 0
0, 0
0, 0
0, 0
0, 0
0, 0
0, 0
0, 0
0, 0
0, 0
0, 0
0, 0
0, 0
0, 0
0, 0
0, 0
0, 0
0, 0
0, 0
0, 0
0, 0
0, 0
0, 0
0, 0
0, 0
0, 0
0, 0
0, 0
0, 0
0, 0
0, 0
0, 0
0, 0
0, 0
0, 0
0, 0
0, 0
0, 0
0, 0
0, 0
0, 0
0, 0
0, 0
0, 0
0, 0
0, 0
0, 0
0, 0
0, 0
0, 0
0, 0
0, 0
0, 0
0, 0
0, 0
0, 0
0, 0
0, 0
0, 0
0, 0
0, 0
0, 0
0, 0
0, 0
0, 0
0, 0
#ENDOFDATA     end of spectrum data

File: ps__0852shot_2485.msa
#FORMAT      : EMSA/MAS spectral data file
#VERSION     : TC202v2.0 PIXL
#TITLE       : N/A
#DATE        :       Date in the format DD-MMM-YYYY, for example 07-JUL-2010
#TIME        :             The time of day at which the spectrum was recorded, in 24-hour format
#OWNER       : PIXL Flight Model       (PIXL will use this to indicate which instrument took the data.)
#NPOINTS     : 4096     Number of data points in the spectrum (This can be zero for configuration only files)
#NCOLUMNS    : 2     Number of data columns in the spectrum (This can be zero for configuration only files)
#XUNITS      : eV
#YUNITS      : COUNTS
#DATATYPE    : YY
#XPERCHAN    : 7.862, 7.881   eV per channel (separate by commas if more than one detector)
#OFFSET      : 18.5, -22.4         eV of first channel  (separate by commas if more than one detector
#SIGNALTYPE  : XRF
#YP_TEMP     : 2.107
#LIVETIME    : 8.56907, 8.56539   seconds (separate by commas if more than one detector)
#REALTIME    : 10, 10.0   seconds (separate by commas if more than one detector)
#SPECTRUM    : start of spectrum data
0, 0
0, 0
0, 0
0, 0
0, 0
0, 0
0, 0
0, 0
1, 0
0, 1
2, 0
49, 50
53, 55
3, 7
3, 6
89, 88
413, 432
99, 102
3, 4
1, 2
3, 2
4, 8
2, 7
10, 11
49, 57
55, 43
28, 29
9, 14
4, 8
4, 5
5, 4
6, 4
9, 1
32, 24
40, 33
25, 12
94, 3
65, 7
11, 4
5, 2
6, 4
6, 12
10, 21
19, 8
23, 7
18, 7
8, 9
4, 8
5, 16
13, 13
21, 11
9, 6
9, 12
42, 40
50, 55
21, 15
25, 36
449, 540
2258, 2344
1554, 1372
195, 119
16, 10
27, 16
87, 105
325, 372
211, 222
31, 20
4, 7
9, 15
7, 11
4, 1
28, 4
51, 2
21, 9
8, 10
9, 10
6, 5
3, 5
3, 4
4, 3
3, 1
4, 5
8, 6
8, 2
3, 2
3, 2
9, 6
9, 3
5, 3
5, 2
5, 5
5, 3
4, 4
2, 5
2, 0
3, 2
1, 3
3, 7
2, 2
2, 1
3, 3
3, 3
4, 2
1, 1
0, 0
1, 7
1, 1
2, 3
8, 1
1, 3
2, 4
2, 1
1, 2
1, 2
2, 0
2, 4
5, 4
3, 1
2, 2
3, 1
0, 3
2, 2
1, 1
1, 1
0, 1
1, 0
1, 1
1, 2
1, 0
2, 1
2, 4
3, 1
2, 2
1, 0
1, 1
1, 0
1, 0
0, 0
2, 1
0, 1
2, 1
0, 0
1, 1
1, 0
0, 0
0, 1
0, 1
0, 1
0, 1
0, 0
0, 0
1, 1
3, 0
0, 0
0, 0
1, 1
0, 0
1, 0
1, 0
0, 0
1, 1
0, 0
0, 0
0, 0
0, 0
0, 1
1, 1
0, 0
0, 0
0, 1
0, 1
1, 0
0, 0
0, 0
0, 0
1, 0
0, 0
0, 0
0, 0
0, 0
0, 0
0, 0
0, 0
1, 0
0, 0
0, 0
0, 0
0, 0
0, 0
0, 0
1, 0
0, 0
0, 0
0, 1
0, 0
0, 0
0, 0
0, 0
0, 0
0, 0
0, 0
0, 0
0, 0
0, 0
0, 0
0, 0
0, 0
0, 0
0, 0
0, 0
0, 0
0, 0
0, 0
0, 0
0, 0
0, 0
0, 0
0, 0
0, 0
0, 0
0, 0
0, 0
0, 0
0, 0
0, 0
0, 0
0, 0
0, 0
0, 0
0, 0
0, 0
0, 0
0, 0
0, 0
0, 0
0, 0
0, 0
0, 0
0, 0
0, 0
0, 0
0, 0
0, 0
0, 0
0, 0
0, 0
0, 0
0, 0
0, 0
0, 0
0, 0
0, 0
0, 0
0, 0
0, 0
0, 0
0, 0
0, 0
0, 0
0, 0
0, 0
0, 0
0, 0
0, 0
0, 0
0, 0
0, 0
0, 0
0, 0
0, 0
0, 0
0, 0
0, 0
0, 0
0, 0
0, 0
0, 0
0, 0
0, 0
0, 0
0, 0
0, 0
0, 0
0, 0
0, 0
0, 0
0, 0
0, 0
0, 0
0, 0
0, 0
0, 0
0, 0
0, 0
#ENDOFDATA     end of spectrum data

File: ps__0852shot_2486.msa
#FORMAT      : EMSA/MAS spectral data file
#VERSION     : TC202v2.0 PIXL
#TITLE       : N/A
#DATE        :       Date in the format DD-MMM-YYYY, for example 07-JUL-2010
#TIME        :             The time of day at which the spectrum was recorded, in 24-hour format
#OWNER       : PIXL Flight Model       (PIXL will use this to indicate which instrument took the data.)
#NPOINTS     : 4096     Number of data points in the spectrum (This can be zero for configuration only files)
#NCOLUMNS    : 2     Number of data columns in the spectrum (This can be zero for configuration only files)
#XUNITS      : eV
#YUNITS      : COUNTS
#DATATYPE    : YY
#XPERCHAN    : 7.862, 7.881   eV per channel (separate by commas if more than one detector)
#OFFSET      : 18.5, -22.4         eV of first channel  (separate by commas if more than one detector
#SIGNALTYPE  : XRF
#YP_TEMP     : 2.588
#LIVETIME    : 8.55849, 8.56662   seconds (separate by commas if more than one detector)
#REALTIME    : 10, 10.0   seconds (separate by commas if more than one detector)
#SPECTRUM    : start of spectrum data
0, 0
0, 0
0, 0
0, 0
0, 0
0, 0
0, 0
0, 0
1, 2
1, 3
3, 4
43, 20
48, 36
6, 4
6, 3
88, 64
431, 326
88, 81
7, 3
3, 1
9, 4
15, 14
4, 7
22, 11
93, 76
94, 79
36, 29
20, 16
11, 13
9, 3
3, 2
3, 2
7, 3
69, 49
110, 74
26, 13
29, 9
43, 10
13, 7
11, 6
2, 8
13, 11
21, 11
40, 11
97, 7
65, 3
7, 10
8, 11
16, 24
63, 45
51, 32
10, 8
13, 13
53, 34
77, 58
44, 27
29, 36
538, 497
2408, 1989
1699, 1144
198, 107
25, 9
28, 18
108, 98
358, 308
261, 190
33, 20
7, 5
17, 10
12, 8
6, 3
7, 0
12, 5
27, 6
15, 6
7, 3
5, 2
4, 4
4, 3
5, 4
4, 1
5, 2
2, 3
3, 2
3, 1
3, 1
1, 3
6, 1
6, 4
4, 2
6, 4
4, 1
3, 1
2, 5
1, 3
4, 1
3, 2
1, 4
4, 1
3, 4
3, 4
3, 1
0, 2
2, 3
2, 0
1, 1
8, 1
3, 4
3, 1
1, 3
2, 0
3, 1
1, 1
1, 2
3, 3
5, 2
6, 4
6, 0
3, 1
1, 0
2, 1
3, 2
0, 1
0, 3
1, 1
1, 2
1, 1
2, 2
2, 0
1, 2
1, 0
1, 0
2, 1
1, 1
1, 0
1, 1
1, 1
1, 0
2, 0
1, 1
2, 0
0, 0
4, 0
0, 0
0, 0
0, 0
0, 1
0, 0
0, 2
0, 1
0, 0
1, 1
0, 0
0, 0
0, 0
1, 0
0, 0
0, 0
0, 0
0, 0
0, 1
0, 0
0, 0
1, 0
0, 0
0, 0
2, 1
0, 0
0, 0
0, 1
0, 1
0, 0
2, 0
1, 0
0, 0
0, 0
0, 0
0, 0
0, 1
0, 0
0, 0
0, 1
0, 0
1, 0
0, 1
0, 0
0, 0
0, 0
0, 0
1, 0
0, 0
1, 0
0, 0
0, 0
0, 0
0, 0
0, 0
0, 0
0, 0
0, 0
0, 0
0, 1
0, 0
0, 0
0, 0
0, 0
0, 0
0, 0
0, 0
0, 0
0, 0
0, 0
0, 0
0, 0
0, 0
0, 0
0, 0
0, 0
0, 0
0, 0
0, 0
0, 0
0, 0
0, 0
0, 0
0, 0
0, 0
0, 0
0, 0
0, 0
0, 0
0, 0
0, 0
0, 0
0, 0
0, 0
0, 0
0, 0
0, 0
0, 0
0, 0
0, 0
0, 0
0, 0
0, 0
0, 0
0, 0
0, 0
0, 0
0, 0
0, 0
0, 0
0, 0
0, 0
0, 0
0, 0
0, 0
0, 0
0, 0
0, 0
0, 0
0, 0
0, 0
0, 0
0, 0
0, 0
0, 0
0, 0
0, 0
0, 0
0, 0
0, 0
0, 0
0, 0
0, 0
0, 0
0, 0
0, 0
0, 0
0, 0
0, 0
0, 0
0, 0
0, 0
0, 0
0, 0
0, 0
0, 0
0, 0
0, 0
0, 0
0, 0
0, 0
0, 0
#ENDOFDATA     end of spectrum data

File: ps__0852shot_2487.msa
#FORMAT      : EMSA/MAS spectral data file
#VERSION     : TC202v2.0 PIXL
#TITLE       : N/A
#DATE        :       Date in the format DD-MMM-YYYY, for example 07-JUL-2010
#TIME        :             The time of day at which the spectrum was recorded, in 24-hour format
#OWNER       : PIXL Flight Model       (PIXL will use this to indicate which instrument took the data.)
#NPOINTS     : 4096     Number of data points in the spectrum (This can be zero for configuration only files)
#NCOLUMNS    : 2     Number of data columns in the spectrum (This can be zero for configuration only files)
#XUNITS      : eV
#YUNITS      : COUNTS
#DATATYPE    : YY
#XPERCHAN    : 7.862, 7.881   eV per channel (separate by commas if more than one detector)
#OFFSET      : 18.5, -22.4         eV of first channel  (separate by commas if more than one detector
#SIGNALTYPE  : XRF
#YP_TEMP     : 2.46
#LIVETIME    : 8.55563, 8.55236   seconds (separate by commas if more than one detector)
#REALTIME    : 10, 10.0   seconds (separate by commas if more than one detector)
#SPECTRUM    : start of spectrum data
0, 0
0, 0
0, 0
0, 0
0, 0
0, 0
0, 0
0, 0
2, 1
2, 2
2, 2
24, 28
49, 33
5, 4
9, 7
97, 81
436, 384
101, 90
13, 9
3, 4
14, 9
87, 76
39, 47
12, 26
75, 94
64, 64
32, 31
13, 21
8, 6
7, 4
4, 7
5, 6
14, 13
197, 218
336, 381
50, 45
41, 39
57, 42
6, 8
5, 4
12, 0
21, 16
18, 13
46, 13
53, 4
20, 13
8, 8
9, 7
18, 20
68, 64
55, 46
13, 10
18, 9
38, 31
54, 59
32, 23
17, 27
374, 443
1873, 1910
1294, 1133
153, 118
18, 18
24, 18
90, 114
282, 277
220, 158
30, 17
19, 7
14, 19
8, 11
5, 2
3, 3
3, 4
1, 0
3, 7
5, 2
8, 1
9, 5
6, 5
3, 6
5, 3
5, 4
10, 1
19, 2
12, 2
8, 2
3, 1
6, 1
3, 5
3, 2
4, 6
3, 10
6, 8
4, 2
3, 3
0, 4
3, 5
2, 5
3, 6
2, 7
3, 5
4, 2
4, 1
3, 6
2, 2
1, 1
5, 5
4, 2
4, 0
2, 2
4, 4
6, 2
1, 3
2, 4
2, 5
1, 4
1, 3
4, 4
1, 0
1, 0
4, 0
0, 3
3, 3
0, 0
3, 1
0, 0
1, 1
2, 1
0, 0
0, 0
0, 0
1, 1
2, 0
2, 1
0, 1
0, 3
2, 0
1, 1
0, 0
3, 0
3, 0
2, 0
1, 1
0, 1
1, 0
0, 1
1, 2
0, 2
0, 1
2, 0
1, 0
1, 0
0, 1
1, 0
0, 0
1, 1
0, 1
0, 0
0, 0
2, 0
1, 0
0, 0
0, 0
1, 0
0, 1
0, 0
0, 0
0, 0
0, 0
0, 1
1, 0
1, 0
0, 0
0, 0
0, 0
0, 0
0, 1
0, 0
0, 0
0, 0
0, 0
0, 0
0, 0
0, 0
0, 0
0, 0
0, 0
0, 0
0, 0
0, 0
0, 0
0, 0
0, 0
0, 0
0, 1
0, 0
0, 0
1, 0
0, 0
0, 0
0, 0
0, 0
0, 0
0, 0
0, 0
0, 0
0, 0
0, 0
0, 0
0, 0
0, 1
0, 0
0, 0
0, 1
0, 0
0, 0
0, 0
0, 0
0, 0
0, 0
0, 0
0, 0
0, 0
0, 0
0, 0
0, 0
0, 0
1, 0
0, 0
0, 0
0, 0
0, 0
0, 0
0, 0
0, 0
0, 0
0, 0
0, 0
0, 0
0, 0
0, 0
0, 0
0, 0
0, 0
0, 0
0, 0
0, 0
0, 0
0, 0
0, 0
0, 0
0, 0
0, 0
0, 0
0, 0
0, 0
0, 0
0, 0
0, 0
0, 0
0, 0
0, 0
0, 0
0, 0
0, 0
0, 0
0, 0
0, 0
0, 0
0, 0
0, 0
0, 0
0, 0
0, 0
0, 0
0, 0
0, 0
0, 0
0, 0
0, 0
0, 0
0, 0
0, 0
0, 0
0, 0
0, 0
0, 0
0, 0
0, 0
0, 0
0, 0
0, 0
0, 0
0, 0
#ENDOFDATA     end of spectrum data

File: ps__0852shot_2488.msa
#FORMAT      : EMSA/MAS spectral data file
#VERSION     : TC202v2.0 PIXL
#TITLE       : N/A
#DATE        :       Date in the format DD-MMM-YYYY, for example 07-JUL-2010
#TIME        :             The time of day at which the spectrum was recorded, in 24-hour format
#OWNER       : PIXL Flight Model       (PIXL will use this to indicate which instrument took the data.)
#NPOINTS     : 4096     Number of data points in the spectrum (This can be zero for configuration only files)
#NCOLUMNS    : 2     Number of data columns in the spectrum (This can be zero for configuration only files)
#XUNITS      : eV
#YUNITS      : COUNTS
#DATATYPE    : YY
#XPERCHAN    : 7.862, 7.881   eV per channel (separate by commas if more than one detector)
#OFFSET      : 18.5, -22.4         eV of first channel  (separate by commas if more than one detector
#SIGNALTYPE  : XRF
#YP_TEMP     : 2.46
#LIVETIME    : 8.57711, 8.55123   seconds (separate by commas if more than one detector)
#REALTIME    : 10, 10.0   seconds (separate by commas if more than one detector)
#SPECTRUM    : start of spectrum data
0, 0
0, 0
0, 0
0, 0
0, 0
0, 0
0, 0
0, 0
3, 0
3, 3
0, 0
28, 45
42, 42
2, 2
5, 4
64, 98
318, 434
79, 83
6, 15
12, 5
27, 22
121, 118
48, 43
28, 28
129, 81
120, 79
35, 38
20, 14
13, 9
8, 2
2, 4
5, 3
8, 12
99, 148
245, 230
39, 38
26, 35
44, 32
7, 6
8, 2
6, 5
6, 19
14, 21
33, 15
41, 7
11, 7
4, 7
4, 7
6, 11
34, 40
17, 29
7, 10
11, 16
36, 45
68, 61
28, 18
20, 40
378, 593
1689, 2240
1267, 1386
165, 129
18, 12
27, 32
82, 106
278, 382
191, 180
24, 34
9, 10
4, 21
7, 9
7, 5
3, 5
1, 4
5, 4
7, 2
5, 10
4, 10
3, 3
4, 6
0, 9
2, 8
3, 4
3, 6
6, 6
5, 6
1, 6
6, 2
3, 2
1, 3
2, 5
3, 3
13, 2
8, 8
8, 2
4, 4
0, 4
1, 5
2, 3
2, 2
2, 1
3, 4
1, 1
0, 1
3, 2
5, 1
3, 2
4, 4
3, 7
0, 3
4, 1
4, 1
2, 1
4, 2
2, 1
2, 2
3, 2
1, 3
5, 4
2, 1
3, 2
0, 0
2, 2
2, 1
0, 3
0, 2
2, 1
1, 0
0, 1
0, 0
1, 1
2, 0
1, 1
2, 2
0, 1
0, 1
0, 1
0, 1
1, 2
1, 3
0, 0
0, 1
0, 0
0, 2
0, 1
0, 2
2, 1
0, 0
0, 2
0, 0
1, 1
0, 0
0, 0
0, 0
1, 1
0, 2
0, 0
0, 0
0, 0
0, 1
0, 0
0, 0
0, 1
0, 0
0, 0
0, 1
0, 0
0, 0
0, 0
0, 0
1, 1
0, 0
1, 0
0, 0
0, 0
0, 0
1, 1
0, 1
1, 0
0, 0
0, 1
0, 0
0, 0
0, 0
0, 0
0, 0
0, 0
0, 1
0, 0
0, 1
0, 0
0, 0
1, 0
0, 0
0, 0
0, 1
0, 0
0, 0
0, 0
0, 0
0, 0
0, 0
0, 0
0, 0
0, 0
0, 0
0, 0
0, 0
0, 0
0, 0
0, 0
0, 0
0, 0
0, 0
0, 0
0, 0
0, 0
0, 0
0, 0
0, 0
0, 0
0, 0
0, 0
0, 0
0, 0
0, 0
0, 0
0, 0
0, 0
0, 0
0, 0
0, 0
0, 0
0, 0
0, 0
0, 0
0, 0
0, 0
0, 0
0, 0
0, 0
0, 0
0, 0
0, 0
0, 0
0, 0
0, 0
0, 0
0, 0
0, 0
0, 0
0, 0
0, 0
0, 0
0, 0
0, 0
0, 0
0, 0
0, 0
0, 0
0, 0
0, 0
0, 0
0, 0
0, 0
0, 0
0, 0
0, 0
0, 0
0, 0
0, 0
0, 0
0, 0
0, 0
0, 0
0, 0
0, 0
0, 0
0, 0
0, 0
0, 0
0, 0
0, 0
0, 0
0, 0
0, 0
0, 0
0, 0
0, 0
0, 0
0, 0
0, 0
0, 0
0, 0
0, 0
#ENDOFDATA     end of spectrum data

File: ps__0852shot_2489.msa
#FORMAT      : EMSA/MAS spectral data file
#VERSION     : TC202v2.0 PIXL
#TITLE       : N/A
#DATE        :       Date in the format DD-MMM-YYYY, for example 07-JUL-2010
#TIME        :             The time of day at which the spectrum was recorded, in 24-hour format
#OWNER       : PIXL Flight Model       (PIXL will use this to indicate which instrument took the data.)
#NPOINTS     : 4096     Number of data points in the spectrum (This can be zero for configuration only files)
#NCOLUMNS    : 2     Number of data columns in the spectrum (This can be zero for configuration only files)
#XUNITS      : eV
#YUNITS      : COUNTS
#DATATYPE    : YY
#XPERCHAN    : 7.862, 7.881   eV per channel (separate by commas if more than one detector)
#OFFSET      : 18.5, -22.4         eV of first channel  (separate by commas if more than one detector
#SIGNALTYPE  : XRF
#YP_TEMP     : 2.492
#LIVETIME    : 8.55775, 8.55895   seconds (separate by commas if more than one detector)
#REALTIME    : 10, 10.0   seconds (separate by commas if more than one detector)
#SPECTRUM    : start of spectrum data
0, 0
0, 0
0, 0
0, 0
0, 0
0, 0
0, 0
0, 1
0, 2
6, 3
5, 1
43, 47
53, 65
8, 4
3, 6
76, 119
410, 454
89, 100
3, 7
3, 4
1, 11
35, 38
8, 13
11, 6
116, 41
128, 48
54, 20
26, 12
5, 3
3, 2
1, 2
2, 1
2, 2
16, 15
28, 32
5, 5
9, 5
4, 10
5, 1
5, 1
3, 4
7, 5
16, 8
9, 10
3, 6
6, 3
4, 6
5, 5
3, 7
10, 18
12, 12
6, 7
18, 11
41, 44
56, 61
16, 23
34, 40
422, 594
2139, 2447
1493, 1469
184, 143
9, 12
13, 14
101, 139
349, 372
226, 228
25, 27
5, 16
13, 13
4, 6
4, 2
1, 2
4, 1
4, 5
6, 1
6, 5
5, 2
4, 1
5, 7
1, 14
6, 7
2, 4
8, 4
2, 1
4, 4
2, 1
2, 4
3, 3
3, 2
3, 3
11, 2
27, 1
21, 3
1, 0
6, 3
2, 8
1, 3
1, 2
1, 0
0, 1
5, 2
4, 4
1, 4
3, 5
5, 0
8, 4
2, 2
3, 1
1, 0
1, 5
5, 1
1, 1
2, 1
2, 3
1, 1
2, 3
5, 5
1, 2
5, 0
0, 3
1, 2
1, 1
1, 4
0, 0
0, 2
1, 1
1, 2
3, 2
0, 1
0, 0
0, 1
1, 0
0, 0
3, 0
2, 2
0, 1
1, 3
0, 3
0, 0
1, 0
2, 0
0, 0
0, 0
0, 0
0, 0
0, 1
2, 0
1, 1
1, 0
1, 2
0, 0
1, 1
0, 1
0, 1
0, 0
0, 2
0, 0
0, 0
1, 0
0, 0
0, 0
0, 0
0, 0
0, 0
0, 0
0, 0
0, 0
0, 0
0, 0
0, 2
0, 0
1, 1
0, 0
0, 0
0, 0
0, 0
2, 0
0, 0
0, 0
0, 0
0, 0
0, 0
1, 0
2, 0
0, 2
0, 0
0, 1
0, 0
0, 0
0, 0
0, 0
0, 0
1, 0
0, 0
0, 0
0, 0
0, 0
1, 0
0, 0
0, 0
0, 1
1, 1
0, 0
0, 0
0, 0
0, 0
0, 0
0, 0
0, 0
0, 0
0, 0
0, 0
0, 0
0, 0
0, 0
0, 0
0, 0
0, 0
0, 0
0, 0
0, 0
0, 0
0, 0
0, 0
0, 0
0, 0
0, 0
0, 0
0, 0
0, 0
0, 0
0, 0
0, 0
0, 0
0, 0
0, 0
0, 0
0, 0
0, 0
0, 0
0, 0
0, 0
0, 0
0, 0
0, 0
0, 0
0, 0
0, 0
0, 0
0, 0
0, 0
0, 0
0, 0
0, 0
0, 0
0, 0
0, 0
0, 0
0, 0
0, 0
0, 0
0, 0
0, 0
0, 0
0, 0
0, 0
0, 0
0, 0
0, 0
0, 0
0, 0
0, 0
0, 0
0, 0
0, 0
0, 0
0, 0
0, 0
0, 0
0, 0
0, 0
0, 0
0, 0
0, 0
0, 0
0, 0
0, 0
0, 0
0, 0
0, 0
0, 0
0, 0
0, 0
0, 0
#ENDOFDATA     end of spectrum data

File: ps__0852shot_2490.msa
#FORMAT      : EMSA/MAS spectral data file
#VERSION     : TC202v2.0 PIXL
#TITLE       : N/A
#DATE        :       Date in the format DD-MMM-YYYY, for example 07-JUL-2010
#TIME        :             The time of day at which the spectrum was recorded, in 24-hour format
#OWNER       : PIXL Flight Model       (PIXL will use this to indicate which instrument took the data.)
#NPOINTS     : 4096     Number of data points in the spectrum (This can be zero for configuration only files)
#NCOLUMNS    : 2     Number of data columns in the spectrum (This can be zero for configuration only files)
#XUNITS      : eV
#YUNITS      : COUNTS
#DATATYPE    : YY
#XPERCHAN    : 7.862, 7.881   eV per channel (separate by commas if more than one detector)
#OFFSET      : 18.5, -22.4         eV of first channel  (separate by commas if more than one detector
#SIGNALTYPE  : XRF
#YP_TEMP     : 2.203
#LIVETIME    : 8.56169, 8.56442   seconds (separate by commas if more than one detector)
#REALTIME    : 10, 10.0   seconds (separate by commas if more than one detector)
#SPECTRUM    : start of spectrum data
0, 0
0, 0
0, 0
0, 0
0, 0
0, 0
0, 0
0, 0
0, 0
2, 0
5, 4
52, 41
59, 69
5, 3
4, 4
86, 90
439, 408
74, 91
7, 5
2, 3
1, 3
3, 8
8, 3
8, 10
71, 25
96, 33
126, 19
133, 8
16, 8
4, 2
5, 4
2, 5
3, 4
6, 15
16, 16
4, 3
3, 8
4, 3
6, 5
4, 7
8, 5
35, 12
121, 18
58, 10
9, 7
6, 7
3, 5
6, 6
7, 10
10, 13
9, 12
10, 7
31, 10
79, 60
61, 110
23, 96
41, 89
485, 612
2113, 2287
1623, 1405
187, 144
11, 11
19, 27
99, 133
327, 335
236, 180
32, 24
12, 7
14, 13
15, 9
4, 2
3, 1
4, 2
2, 5
4, 9
2, 8
4, 6
5, 4
4, 4
3, 5
5, 3
4, 4
3, 1
11, 3
13, 1
10, 1
6, 4
2, 5
5, 4
2, 3
8, 1
17, 1
13, 2
6, 3
1, 3
3, 8
2, 9
2, 0
3, 2
3, 2
3, 2
4, 2
1, 3
1, 4
3, 2
3, 1
3, 0
1, 2
2, 3
1, 4
0, 3
1, 2
0, 3
1, 2
1, 1
3, 2
2, 2
3, 1
3, 2
0, 2
1, 2
4, 0
8, 1
3, 3
0, 0
6, 0
5, 1
2, 0
2, 1
0, 0
0, 2
1, 2
1, 0
0, 2
1, 0
0, 1
1, 1
0, 1
2, 0
0, 0
0, 0
0, 0
1, 0
1, 0
2, 1
0, 0
2, 0
0, 0
0, 1
0, 0
0, 0
1, 0
2, 0
0, 0
0, 0
0, 0
0, 0
1, 0
1, 2
0, 0
0, 0
0, 0
0, 0
0, 0
0, 0
0, 1
0, 0
0, 0
0, 0
0, 0
0, 1
0, 1
1, 2
0, 0
0, 0
0, 0
0, 0
0, 0
0, 1
0, 0
0, 0
0, 0
1, 0
0, 0
0, 0
0, 0
1, 0
0, 0
0, 0
0, 0
0, 1
0, 0
0, 0
0, 0
0, 0
0, 0
0, 0
0, 0
1, 0
0, 0
0, 0
0, 0
0, 0
0, 0
0, 0
0, 0
0, 0
0, 0
0, 0
0, 0
0, 0
0, 0
0, 0
0, 0
0, 0
0, 0
0, 0
0, 0
0, 0
0, 0
0, 0
0, 0
0, 0
0, 0
0, 0
0, 0
0, 0
0, 0
0, 0
0, 0
0, 0
0, 0
0, 0
0, 0
0, 0
0, 0
0, 0
0, 0
0, 0
0, 0
0, 0
0, 0
0, 0
0, 0
0, 0
0, 0
0, 0
0, 0
0, 0
0, 0
0, 0
0, 0
0, 0
0, 0
0, 0
0, 0
0, 0
0, 0
0, 0
0, 0
0, 0
0, 0
0, 0
0, 0
0, 0
0, 0
0, 0
0, 0
0, 0
0, 0
0, 0
0, 0
0, 0
0, 0
0, 0
0, 0
0, 0
0, 0
0, 0
0, 0
0, 0
0, 0
0, 0
0, 0
0, 0
0, 0
0, 0
0, 0
0, 0
0, 0
0, 0
0, 0
0, 0
0, 0
#ENDOFDATA     end of spectrum data

File: ps__0852shot_2491.msa
#FORMAT      : EMSA/MAS spectral data file
#VERSION     : TC202v2.0 PIXL
#TITLE       : N/A
#DATE        :       Date in the format DD-MMM-YYYY, for example 07-JUL-2010
#TIME        :             The time of day at which the spectrum was recorded, in 24-hour format
#OWNER       : PIXL Flight Model       (PIXL will use this to indicate which instrument took the data.)
#NPOINTS     : 4096     Number of data points in the spectrum (This can be zero for configuration only files)
#NCOLUMNS    : 2     Number of data columns in the spectrum (This can be zero for configuration only files)
#XUNITS      : eV
#YUNITS      : COUNTS
#DATATYPE    : YY
#XPERCHAN    : 7.862, 7.881   eV per channel (separate by commas if more than one detector)
#OFFSET      : 18.5, -22.4         eV of first channel  (separate by commas if more than one detector
#SIGNALTYPE  : XRF
#YP_TEMP     : 2.62
#LIVETIME    : 8.53437, 8.57725   seconds (separate by commas if more than one detector)
#REALTIME    : 10, 10.0   seconds (separate by commas if more than one detector)
#SPECTRUM    : start of spectrum data
0, 0
0, 0
0, 0
0, 0
0, 0
0, 0
0, 0
0, 0
0, 0
1, 2
3, 0
48, 41
61, 57
5, 8
5, 5
98, 110
427, 435
102, 107
6, 5
5, 0
2, 2
8, 5
4, 2
10, 12
28, 25
43, 35
170, 17
203, 17
17, 4
5, 3
2, 2
6, 2
2, 17
6, 28
14, 12
7, 4
3, 4
3, 6
5, 10
2, 14
2, 6
27, 6
98, 14
46, 13
13, 5
9, 14
10, 6
3, 7
8, 9
17, 21
11, 16
7, 9
29, 14
87, 65
107, 117
25, 102
36, 79
483, 608
2170, 2359
1572, 1392
194, 115
22, 19
20, 23
105, 109
337, 351
204, 207
24, 23
10, 11
14, 9
5, 6
0, 2
7, 7
4, 1
4, 5
6, 3
5, 6
6, 3
9, 4
6, 7
6, 2
6, 1
5, 4
2, 2
11, 5
16, 0
16, 3
6, 5
5, 6
1, 6
5, 5
4, 6
1, 2
5, 3
3, 3
7, 4
4, 2
0, 2
1, 2
2, 4
1, 2
1, 3
6, 0
1, 4
0, 2
1, 2
2, 1
3, 1
2, 2
3, 6
2, 7
3, 3
1, 5
3, 1
2, 2
1, 1
2, 2
2, 6
1, 3
4, 2
0, 3
3, 1
0, 1
3, 1
3, 1
1, 0
1, 2
2, 1
0, 0
1, 0
2, 1
2, 0
1, 0
1, 2
0, 1
0, 0
0, 2
3, 1
0, 0
1, 0
1, 0
0, 1
0, 3
1, 0
2, 1
0, 0
0, 1
0, 0
1, 1
0, 0
1, 1
0, 1
1, 1
0, 0
0, 0
0, 0
0, 0
1, 1
0, 1
0, 0
0, 0
1, 0
0, 0
2, 0
0, 0
0, 0
0, 1
1, 0
0, 0
0, 1
0, 0
1, 0
0, 0
2, 0
0, 1
1, 0
0, 0
0, 0
1, 0
0, 0
0, 0
0, 0
0, 0
0, 1
0, 0
0, 0
1, 0
0, 0
1, 0
0, 0
0, 0
0, 1
0, 0
0, 0
0, 0
0, 0
0, 0
0, 0
0, 0
0, 0
0, 0
0, 0
0, 0
0, 0
0, 0
0, 0
0, 0
0, 0
0, 0
0, 0
0, 0
0, 0
0, 0
0, 0
0, 0
0, 0
0, 0
0, 0
0, 0
0, 0
0, 0
0, 0
0, 0
0, 0
0, 1
0, 0
0, 0
0, 0
0, 0
0, 0
0, 0
0, 0
0, 0
0, 0
0, 0
0, 0
0, 0
0, 0
0, 0
0, 0
0, 0
0, 0
0, 0
0, 0
0, 0
0, 0
0, 0
0, 0
0, 0
0, 0
0, 0
0, 0
0, 0
0, 0
0, 0
0, 0
0, 0
0, 0
0, 0
0, 0
0, 0
0, 0
0, 0
0, 0
0, 0
0, 0
0, 0
0, 0
0, 0
0, 0
0, 0
0, 0
0, 0
0, 0
0, 0
0, 0
0, 0
0, 0
0, 0
0, 0
0, 0
0, 0
0, 0
0, 0
0, 0
0, 0
0, 0
0, 0
0, 0
0, 0
0, 0
0, 0
0, 0
0, 0
0, 0
#ENDOFDATA     end of spectrum data