Folder: data-repository/host_upload/11-13-2023/BHVO/ps_0240

Note: host_upload/readME.txt
10-30-2023:
(description: )

11-13-2023:
(description: )

12-01-2023:
(description: )

12-28-2023:
(description: BHVO-2 all sols upload)

File: ps__0240_0688241128_000rfs_shot_1.msa
#FORMAT      : EMSA/MAS spectral data file
#VERSION     : TC202v2.0 PIXL
#TITLE       : N/A
#DATE        :       Date in the format DD-MMM-YYYY, for example 07-JUL-2010
#TIME        :             The time of day at which the spectrum was recorded, in 24-hour format
#OWNER       : PIXL Flight Model       (PIXL will use this to indicate which instrument took the data.)
#NPOINTS     : 4096     Number of data points in the spectrum (This can be zero for configuration only files)
#NCOLUMNS    : 2     Number of data columns in the spectrum (This can be zero for configuration only files)
#XUNITS      : eV
#YUNITS      : COUNTS
#DATATYPE    : YY
#XPERCHAN    : 7.862, 7.881   eV per channel (separate by commas if more than one detector)
#OFFSET      : 18.5, -22.4         eV of first channel  (separate by commas if more than one detector
#SIGNALTYPE  : XRF
#YP_TEMP     : 0.76
#LIVETIME    : 36.6266, 36.605   seconds (separate by commas if more than one detector)
#REALTIME    : 40, 40   seconds (separate by commas if more than one detector)
#SPECTRUM    : start of spectrum data
0, 0
0, 0
0, 0
0, 0
0, 0
0, 0
0, 0
1, 1
3, 1
7, 9
5, 7
55, 57
62, 55
199, 209
362, 396
616, 590
3260, 3301
590, 594
77, 77
35, 26
18, 10
66, 47
27, 28
29, 39
177, 199
290, 304
216, 223
103, 72
45, 48
37, 41
135, 149
84, 56
122, 127
1760, 1970
2528, 2445
268, 219
347, 383
371, 357
49, 45
40, 35
251, 260
880, 821
322, 254
77, 76
83, 103
166, 174
79, 73
65, 45
54, 47
62, 63
42, 49
39, 37
45, 45
98, 104
128, 124
62, 56
94, 114
1180, 1373
4724, 5124
2575, 2171
200, 135
61, 49
63, 64
284, 322
814, 827
372, 318
59, 62
33, 40
34, 33
28, 38
41, 30
28, 37
35, 34
35, 50
37, 31
36, 27
37, 41
22, 25
33, 28
26, 36
23, 21
35, 24
18, 23
28, 29
23, 19
21, 29
31, 24
14, 27
12, 17
20, 18
25, 22
15, 18
27, 26
15, 19
17, 24
14, 17
14, 11
19, 11
13, 24
10, 18
12, 10
11, 17
18, 16
11, 15
8, 13
16, 9
9, 14
13, 14
8, 3
8, 11
15, 11
9, 7
15, 14
7, 7
10, 7
11, 7
9, 8
8, 11
10, 11
10, 5
10, 7
8, 5
9, 5
7, 2
3, 8
5, 5
4, 2
10, 8
4, 7
3, 5
6, 3
4, 9
5, 4
8, 5
3, 1
7, 3
4, 5
2, 8
3, 6
1, 3
4, 1
4, 1
0, 7
6, 2
4, 2
1, 2
3, 0
2, 4
1, 1
4, 2
2, 1
4, 2
2, 4
0, 4
0, 1
2, 1
0, 1
1, 2
4, 2
2, 1
1, 5
3, 1
0, 1
1, 2
1, 2
3, 0
2, 1
1, 0
2, 1
0, 3
0, 1
0, 1
2, 1
0, 3
0, 1
1, 0
1, 1
0, 2
0, 0
1, 0
2, 0
1, 2
0, 0
1, 0
0, 1
1, 0
0, 0
0, 0
0, 0
1, 0
0, 1
0, 0
1, 1
1, 0
0, 0
0, 0
0, 0
0, 0
0, 0
1, 0
1, 0
0, 0
0, 0
1, 0
0, 0
0, 1
0, 0
1, 0
1, 0
1, 0
0, 0
1, 0
0, 0
0, 0
0, 0
0, 0
1, 0
0, 0
0, 0
0, 0
0, 0
0, 0
0, 0
0, 0
0, 0
0, 0
0, 0
0, 0
0, 0
0, 0
0, 0
0, 0
0, 0
0, 0
0, 0
0, 0
0, 0
0, 0
0, 0
0, 0
0, 0
0, 0
0, 0
0, 0
0, 1
0, 0
0, 0
0, 0
0, 0
0, 0
0, 0
0, 0
0, 0
0, 0
0, 0
0, 0
0, 0
0, 0
0, 0
0, 0
0, 0
0, 0
0, 0
0, 0
0, 0
0, 0
0, 0
0, 0
0, 0
0, 0
0, 0
0, 0
0, 0
0, 0
0, 0
0, 0
0, 0
0, 0
0, 0
0, 0
0, 0
0, 0
0, 0
0, 0
0, 0
0, 0
0, 0
0, 0
0, 0
0, 0
0, 0
0, 0
0, 0
0, 0
#ENDOFDATA     end of spectrum data

File: ps__0240_0688241128_000rfs_shot_4.msa
#FORMAT      : EMSA/MAS spectral data file
#VERSION     : TC202v2.0 PIXL
#TITLE       : N/A
#DATE        :       Date in the format DD-MMM-YYYY, for example 07-JUL-2010
#TIME        :             The time of day at which the spectrum was recorded, in 24-hour format
#OWNER       : PIXL Flight Model       (PIXL will use this to indicate which instrument took the data.)
#NPOINTS     : 4096     Number of data points in the spectrum (This can be zero for configuration only files)
#NCOLUMNS    : 2     Number of data columns in the spectrum (This can be zero for configuration only files)
#XUNITS      : eV
#YUNITS      : COUNTS
#DATATYPE    : YY
#XPERCHAN    : 7.862, 7.881   eV per channel (separate by commas if more than one detector)
#OFFSET      : 18.5, -22.4         eV of first channel  (separate by commas if more than one detector
#SIGNALTYPE  : XRF
#YP_TEMP     : 0.536
#LIVETIME    : 36.6341, 36.6276   seconds (separate by commas if more than one detector)
#REALTIME    : 40, 40   seconds (separate by commas if more than one detector)
#SPECTRUM    : start of spectrum data
0, 0
0, 0
0, 0
0, 0
0, 0
0, 0
0, 0
0, 0
1, 3
7, 4
11, 15
47, 45
64, 44
222, 191
371, 367
628, 587
3217, 3277
599, 542
70, 78
27, 37
16, 21
70, 70
26, 32
22, 44
176, 245
294, 280
198, 205
100, 90
33, 34
37, 40
150, 151
61, 59
122, 142
1825, 1907
2566, 2328
253, 191
332, 356
353, 341
49, 55
40, 26
247, 251
799, 872
320, 254
75, 53
105, 81
179, 193
87, 69
38, 41
49, 43
65, 72
54, 44
40, 54
51, 39
98, 114
114, 105
74, 71
78, 113
1091, 1385
5084, 5531
2676, 2340
221, 161
56, 53
73, 85
264, 348
772, 827
406, 346
49, 45
36, 28
37, 41
43, 23
26, 34
36, 33
34, 33
42, 23
25, 28
30, 35
19, 28
27, 32
32, 30
29, 42
17, 31
35, 26
26, 31
31, 30
25, 19
16, 15
26, 29
30, 20
26, 21
24, 13
16, 19
13, 21
22, 23
25, 21
10, 16
19, 12
22, 20
19, 26
14, 22
17, 12
16, 22
16, 8
19, 9
10, 17
7, 13
16, 14
20, 11
14, 14
16, 10
20, 13
8, 11
7, 10
8, 12
9, 8
11, 12
18, 12
8, 11
10, 9
9, 6
7, 6
5, 7
8, 8
11, 4
6, 11
10, 5
6, 5
8, 2
5, 3
4, 4
3, 8
4, 8
2, 2
6, 2
5, 4
3, 4
2, 4
5, 5
6, 4
1, 1
3, 4
3, 3
3, 2
4, 7
3, 7
3, 1
1, 1
1, 4
2, 0
1, 3
2, 1
0, 2
2, 4
2, 3
3, 1
0, 4
0, 4
0, 0
3, 1
0, 0
1, 0
0, 1
2, 2
0, 3
2, 1
1, 1
1, 0
0, 2
1, 1
1, 1
0, 3
1, 1
1, 4
1, 1
0, 0
1, 1
2, 1
0, 0
2, 0
0, 0
0, 1
0, 1
0, 2
1, 0
0, 1
1, 2
0, 0
0, 1
0, 0
0, 0
0, 0
0, 0
0, 2
0, 0
0, 0
1, 0
0, 0
0, 0
0, 0
2, 0
0, 1
0, 1
1, 1
0, 0
0, 0
0, 0
0, 0
0, 0
0, 0
2, 0
0, 0
0, 0
0, 0
0, 0
0, 0
0, 0
0, 0
0, 0
0, 0
0, 0
0, 0
0, 0
0, 0
0, 0
0, 1
0, 0
0, 1
0, 0
0, 0
0, 0
0, 0
0, 0
0, 0
0, 0
0, 0
0, 0
0, 0
0, 0
0, 0
0, 0
0, 0
0, 0
0, 0
0, 0
0, 0
0, 0
0, 0
0, 0
0, 0
0, 0
0, 0
0, 0
0, 0
0, 0
0, 0
0, 0
0, 0
0, 0
0, 0
0, 0
0, 0
0, 0
0, 0
0, 0
0, 0
0, 0
0, 0
0, 0
0, 0
0, 0
0, 0
0, 0
0, 0
0, 0
0, 0
0, 0
0, 0
0, 0
0, 0
0, 0
0, 0
0, 0
0, 0
0, 0
0, 0
0, 0
0, 0
0, 0
0, 0
0, 0
0, 0
0, 0
0, 0
0, 0
0, 0
#ENDOFDATA     end of spectrum data

File: ps__0240_0688241128_000rfs_shot_6.msa
#FORMAT      : EMSA/MAS spectral data file
#VERSION     : TC202v2.0 PIXL
#TITLE       : N/A
#DATE        :       Date in the format DD-MMM-YYYY, for example 07-JUL-2010
#TIME        :             The time of day at which the spectrum was recorded, in 24-hour format
#OWNER       : PIXL Flight Model       (PIXL will use this to indicate which instrument took the data.)
#NPOINTS     : 4096     Number of data points in the spectrum (This can be zero for configuration only files)
#NCOLUMNS    : 2     Number of data columns in the spectrum (This can be zero for configuration only files)
#XUNITS      : eV
#YUNITS      : COUNTS
#DATATYPE    : YY
#XPERCHAN    : 7.862, 7.881   eV per channel (separate by commas if more than one detector)
#OFFSET      : 18.5, -22.4         eV of first channel  (separate by commas if more than one detector
#SIGNALTYPE  : XRF
#YP_TEMP     : 0.728
#LIVETIME    : 36.6253, 36.6152   seconds (separate by commas if more than one detector)
#REALTIME    : 40, 40   seconds (separate by commas if more than one detector)
#SPECTRUM    : start of spectrum data
0, 0
0, 0
0, 0
0, 0
0, 0
0, 0
0, 0
0, 1
2, 3
7, 7
12, 18
59, 62
64, 61
212, 182
348, 370
674, 644
3201, 3438
568, 535
79, 85
34, 30
18, 14
62, 60
33, 27
38, 34
221, 207
284, 282
217, 218
116, 104
46, 36
41, 37
128, 133
88, 54
119, 110
1786, 2074
2458, 2487
295, 238
305, 375
346, 376
68, 53
35, 30
222, 244
846, 806
269, 282
52, 52
89, 125
188, 184
60, 75
38, 38
39, 46
64, 56
58, 51
49, 54
42, 44
99, 114
127, 120
57, 62
89, 98
1228, 1384
4874, 5215
2642, 2133
221, 163
68, 63
84, 76
262, 325
786, 802
415, 318
52, 48
31, 30
32, 39
40, 37
32, 34
35, 36
31, 40
46, 36
37, 36
34, 34
19, 27
26, 35
40, 35
30, 33
24, 34
21, 39
20, 29
32, 18
13, 21
23, 22
24, 20
27, 17
25, 15
20, 15
16, 27
20, 24
28, 21
24, 12
14, 17
20, 19
21, 22
24, 15
17, 17
10, 13
17, 22
19, 27
9, 6
13, 18
9, 19
15, 17
13, 12
12, 14
10, 12
10, 9
9, 10
8, 12
9, 16
10, 7
14, 8
9, 6
14, 8
7, 7
9, 4
11, 8
10, 10
8, 7
5, 10
4, 4
6, 6
6, 6
7, 3
4, 6
8, 10
8, 8
3, 3
8, 8
7, 3
5, 3
1, 3
4, 2
6, 5
3, 5
1, 6
2, 5
5, 2
4, 2
2, 5
3, 5
5, 4
2, 3
2, 4
1, 1
0, 5
0, 1
0, 2
2, 2
1, 2
1, 3
2, 1
2, 1
3, 2
3, 3
0, 6
1, 2
1, 4
1, 1
1, 0
2, 0
1, 1
1, 0
0, 1
1, 2
0, 2
4, 5
4, 4
2, 0
0, 0
1, 0
0, 0
0, 0
0, 1
0, 1
2, 0
0, 1
1, 0
0, 0
1, 0
0, 0
0, 0
0, 1
0, 1
0, 0
0, 1
0, 0
0, 0
0, 1
2, 0
0, 0
0, 0
0, 0
0, 0
0, 0
0, 0
0, 0
1, 0
0, 0
0, 0
0, 0
0, 0
1, 0
0, 0
0, 0
0, 0
0, 0
0, 0
0, 0
0, 0
0, 0
0, 0
0, 0
0, 0
0, 0
0, 0
0, 0
0, 0
0, 0
0, 0
0, 0
0, 0
0, 0
0, 0
0, 0
0, 0
0, 0
0, 0
0, 0
0, 0
0, 0
0, 0
0, 0
0, 0
0, 0
0, 0
0, 0
0, 0
0, 0
0, 0
0, 0
0, 0
0, 0
0, 0
0, 0
0, 0
0, 0
0, 0
0, 0
0, 0
0, 0
0, 0
0, 0
0, 0
0, 0
0, 0
1, 0
0, 0
0, 0
0, 0
0, 0
0, 0
0, 0
0, 0
0, 0
0, 0
0, 0
0, 0
0, 0
0, 0
0, 0
0, 0
0, 0
0, 0
0, 0
0, 0
0, 0
0, 0
0, 0
0, 0
0, 0
0, 0
0, 0
0, 0
0, 0
0, 0
0, 0
0, 0
0, 0
0, 0
0, 0
#ENDOFDATA     end of spectrum data

File: ps__0240_0688241128_000rfs_shot_8.msa
#FORMAT      : EMSA/MAS spectral data file
#VERSION     : TC202v2.0 PIXL
#TITLE       : N/A
#DATE        :       Date in the format DD-MMM-YYYY, for example 07-JUL-2010
#TIME        :             The time of day at which the spectrum was recorded, in 24-hour format
#OWNER       : PIXL Flight Model       (PIXL will use this to indicate which instrument took the data.)
#NPOINTS     : 4096     Number of data points in the spectrum (This can be zero for configuration only files)
#NCOLUMNS    : 2     Number of data columns in the spectrum (This can be zero for configuration only files)
#XUNITS      : eV
#YUNITS      : COUNTS
#DATATYPE    : YY
#XPERCHAN    : 7.862, 7.881   eV per channel (separate by commas if more than one detector)
#OFFSET      : 18.5, -22.4         eV of first channel  (separate by commas if more than one detector
#SIGNALTYPE  : XRF
#YP_TEMP     : 0.953
#LIVETIME    : 36.6142, 36.6188   seconds (separate by commas if more than one detector)
#REALTIME    : 40, 40   seconds (separate by commas if more than one detector)
#SPECTRUM    : start of spectrum data
0, 0
0, 0
0, 0
0, 0
0, 0
0, 0
0, 0
0, 0
6, 4
10, 8
10, 14
42, 52
67, 67
214, 205
348, 373
637, 618
3329, 3436
573, 563
81, 85
33, 27
18, 22
59, 70
30, 30
30, 33
214, 190
308, 277
205, 242
109, 105
52, 38
43, 43
136, 138
56, 49
98, 145
1774, 1947
2591, 2505
270, 228
338, 348
361, 353
52, 63
25, 37
215, 284
803, 868
282, 235
64, 68
94, 98
175, 196
67, 79
41, 54
45, 44
63, 75
64, 62
40, 40
53, 52
101, 88
115, 107
58, 45
95, 106
1110, 1392
4743, 5179
2608, 2283
219, 159
67, 68
66, 71
274, 317
799, 839
403, 315
57, 54
43, 37
37, 33
34, 29
30, 31
34, 28
38, 34
41, 40
35, 34
32, 34
23, 32
29, 24
27, 53
33, 32
19, 30
28, 35
28, 20
27, 18
20, 20
23, 26
22, 31
14, 17
19, 15
29, 16
31, 21
18, 23
18, 19
18, 20
20, 21
12, 15
16, 21
18, 15
15, 13
15, 19
20, 14
17, 21
10, 12
13, 14
9, 10
16, 11
14, 12
19, 7
14, 14
14, 16
10, 10
14, 10
12, 5
6, 11
12, 7
4, 7
11, 3
8, 12
6, 11
16, 6
14, 8
10, 5
11, 9
5, 5
9, 9
10, 15
8, 5
8, 5
11, 7
8, 9
9, 3
10, 8
4, 6
5, 6
8, 4
4, 5
0, 3
6, 6
4, 3
5, 2
3, 3
3, 2
2, 3
2, 4
4, 3
3, 3
2, 4
1, 1
2, 3
1, 5
2, 5
4, 3
2, 1
3, 1
0, 3
0, 3
3, 0
0, 0
1, 1
1, 0
1, 2
2, 1
0, 2
2, 0
1, 1
2, 1
1, 1
1, 1
2, 0
1, 1
3, 1
4, 1
2, 2
2, 1
0, 2
0, 0
0, 0
0, 0
0, 0
0, 0
1, 0
0, 0
1, 0
1, 2
0, 4
0, 0
0, 1
0, 0
1, 1
2, 1
0, 0
2, 2
0, 0
0, 0
1, 0
0, 0
0, 0
0, 1
0, 0
0, 0
1, 0
0, 0
0, 0
1, 0
0, 0
0, 0
0, 1
0, 0
0, 0
0, 0
0, 0
0, 0
0, 0
0, 0
0, 0
0, 1
0, 0
0, 0
0, 0
0, 0
0, 0
0, 0
0, 0
0, 0
0, 0
0, 0
0, 0
0, 0
0, 0
0, 0
0, 0
0, 0
0, 0
0, 0
0, 0
0, 0
0, 0
0, 0
0, 0
0, 0
0, 0
0, 0
0, 0
0, 0
0, 0
0, 0
0, 0
0, 0
0, 0
0, 0
0, 0
0, 0
0, 0
0, 0
0, 0
0, 0
0, 0
0, 0
0, 0
0, 0
0, 0
0, 0
0, 0
0, 0
0, 0
0, 0
0, 0
0, 0
0, 0
0, 0
0, 0
0, 0
0, 0
0, 0
0, 0
0, 0
0, 0
0, 0
0, 0
0, 0
0, 0
0, 0
0, 0
0, 0
0, 0
0, 0
0, 0
0, 0
0, 0
0, 0
0, 0
0, 0
0, 0
0, 0
#ENDOFDATA     end of spectrum data

File: ps__0240_0688241128_000rfs_shot_9.msa
#FORMAT      : EMSA/MAS spectral data file
#VERSION     : TC202v2.0 PIXL
#TITLE       : N/A
#DATE        :       Date in the format DD-MMM-YYYY, for example 07-JUL-2010
#TIME        :             The time of day at which the spectrum was recorded, in 24-hour format
#OWNER       : PIXL Flight Model       (PIXL will use this to indicate which instrument took the data.)
#NPOINTS     : 4096     Number of data points in the spectrum (This can be zero for configuration only files)
#NCOLUMNS    : 2     Number of data columns in the spectrum (This can be zero for configuration only files)
#XUNITS      : eV
#YUNITS      : COUNTS
#DATATYPE    : YY
#XPERCHAN    : 7.862, 7.881   eV per channel (separate by commas if more than one detector)
#OFFSET      : 18.5, -22.4         eV of first channel  (separate by commas if more than one detector
#SIGNALTYPE  : XRF
#YP_TEMP     : 0.632
#LIVETIME    : 36.6247, 36.5986   seconds (separate by commas if more than one detector)
#REALTIME    : 40, 40   seconds (separate by commas if more than one detector)
#SPECTRUM    : start of spectrum data
0, 0
0, 0
0, 0
0, 0
0, 0
0, 0
0, 0
1, 1
4, 5
10, 8
9, 3
48, 52
62, 65
177, 183
413, 383
632, 634
3245, 3225
598, 541
79, 72
20, 31
16, 15
58, 52
28, 32
28, 36
180, 188
292, 330
210, 194
81, 110
41, 36
45, 38
118, 125
75, 60
111, 122
1761, 2004
2538, 2336
268, 220
336, 350
371, 345
54, 53
32, 35
203, 254
803, 806
303, 235
57, 51
107, 99
195, 185
79, 91
48, 51
44, 53
65, 79
59, 54
48, 37
50, 50
95, 98
116, 123
56, 55
77, 100
1157, 1400
4639, 5024
2592, 2263
223, 144
54, 50
57, 70
273, 328
740, 777
391, 314
53, 50
34, 40
29, 37
24, 41
25, 37
38, 31
39, 38
36, 32
32, 28
42, 24
43, 35
29, 27
34, 29
44, 31
36, 22
24, 37
21, 28
33, 24
25, 28
18, 20
22, 23
21, 20
26, 17
18, 20
25, 21
27, 25
24, 19
24, 14
20, 21
13, 20
20, 21
21, 10
16, 9
11, 17
17, 14
12, 18
13, 10
12, 12
8, 15
7, 15
16, 12
11, 7
9, 11
12, 8
11, 13
8, 13
5, 7
9, 13
13, 10
10, 13
8, 13
12, 6
4, 9
4, 4
7, 2
10, 2
7, 6
6, 5
3, 5
9, 11
8, 6
7, 11
4, 4
7, 8
4, 4
5, 5
6, 7
1, 6
5, 4
2, 2
3, 2
5, 4
3, 4
5, 2
2, 2
1, 2
2, 5
1, 3
1, 1
2, 2
2, 2
3, 4
1, 2
4, 3
3, 1
0, 3
6, 0
2, 2
2, 1
0, 1
1, 1
3, 0
4, 0
1, 3
0, 1
3, 5
3, 1
0, 1
1, 1
2, 1
1, 1
1, 1
2, 3
0, 2
0, 0
1, 1
0, 1
2, 0
1, 2
1, 1
2, 1
0, 1
2, 0
0, 0
0, 1
4, 1
1, 0
1, 2
1, 1
1, 0
0, 0
0, 0
0, 0
1, 0
2, 0
1, 1
0, 0
1, 0
0, 0
0, 1
0, 0
0, 0
0, 2
0, 1
0, 0
0, 0
0, 0
0, 0
0, 0
1, 0
0, 0
1, 0
0, 0
0, 0
1, 0
0, 1
0, 0
0, 0
0, 0
0, 0
0, 0
1, 0
0, 0
0, 0
0, 0
0, 0
0, 0
0, 0
0, 0
0, 0
0, 0
0, 0
0, 0
0, 0
0, 0
0, 0
0, 0
0, 0
0, 0
0, 0
0, 0
1, 0
0, 0
0, 0
0, 0
0, 0
0, 0
0, 0
0, 0
0, 0
0, 0
0, 0
0, 0
0, 0
0, 0
0, 0
0, 0
0, 0
0, 0
0, 0
0, 0
0, 0
0, 0
0, 0
0, 0
0, 0
0, 0
0, 0
0, 0
0, 0
0, 0
0, 0
0, 0
0, 0
0, 0
0, 0
0, 0
0, 0
0, 0
0, 0
0, 0
0, 0
0, 0
0, 0
0, 0
0, 0
0, 0
0, 0
0, 0
0, 0
0, 0
0, 0
0, 0
0, 0
0, 0
0, 0
0, 0
0, 0
#ENDOFDATA     end of spectrum data

File: ps__0240_0688241128_000rfs_shot_13.msa
#FORMAT      : EMSA/MAS spectral data file
#VERSION     : TC202v2.0 PIXL
#TITLE       : N/A
#DATE        :       Date in the format DD-MMM-YYYY, for example 07-JUL-2010
#TIME        :             The time of day at which the spectrum was recorded, in 24-hour format
#OWNER       : PIXL Flight Model       (PIXL will use this to indicate which instrument took the data.)
#NPOINTS     : 4096     Number of data points in the spectrum (This can be zero for configuration only files)
#NCOLUMNS    : 2     Number of data columns in the spectrum (This can be zero for configuration only files)
#XUNITS      : eV
#YUNITS      : COUNTS
#DATATYPE    : YY
#XPERCHAN    : 7.862, 7.881   eV per channel (separate by commas if more than one detector)
#OFFSET      : 18.5, -22.4         eV of first channel  (separate by commas if more than one detector
#SIGNALTYPE  : XRF
#YP_TEMP     : 0.888
#LIVETIME    : 36.6168, 36.616   seconds (separate by commas if more than one detector)
#REALTIME    : 40, 40   seconds (separate by commas if more than one detector)
#SPECTRUM    : start of spectrum data
0, 0
0, 0
0, 0
0, 0
0, 0
0, 0
0, 0
0, 1
1, 5
9, 6
8, 11
53, 46
76, 66
184, 169
378, 371
680, 579
3391, 3478
564, 575
74, 67
38, 24
16, 20
65, 66
30, 34
27, 30
172, 172
281, 258
218, 201
98, 85
48, 39
36, 40
147, 147
91, 89
128, 100
1808, 1892
2555, 2463
281, 241
289, 374
365, 334
38, 58
38, 32
217, 251
754, 810
291, 235
45, 46
105, 105
163, 189
86, 66
44, 43
45, 51
49, 66
53, 56
37, 44
40, 52
107, 81
121, 108
68, 72
90, 109
1122, 1375
4769, 5202
2664, 2223
216, 160
58, 53
68, 66
245, 329
799, 826
391, 376
52, 47
40, 37
24, 41
39, 32
30, 27
36, 29
24, 45
38, 35
43, 48
38, 36
35, 27
23, 28
29, 30
35, 31
24, 24
24, 19
24, 22
20, 27
24, 27
23, 23
28, 20
26, 27
25, 18
18, 24
23, 15
21, 15
18, 20
16, 16
15, 19
20, 18
13, 15
25, 16
15, 12
15, 12
18, 16
14, 16
15, 12
12, 13
14, 11
11, 15
7, 10
19, 12
11, 7
16, 8
8, 13
11, 10
9, 7
16, 5
12, 9
10, 14
13, 11
12, 8
6, 6
10, 13
4, 5
4, 6
6, 9
5, 7
5, 11
3, 7
3, 4
3, 4
7, 9
5, 6
6, 2
4, 4
5, 3
12, 1
6, 3
4, 4
1, 3
6, 2
4, 2
4, 3
2, 4
2, 6
1, 2
4, 1
5, 1
6, 2
3, 4
2, 1
1, 2
3, 3
1, 2
1, 2
0, 1
4, 0
2, 3
1, 1
2, 0
1, 1
0, 1
3, 1
2, 4
2, 0
0, 0
1, 3
3, 0
1, 0
1, 2
1, 1
3, 1
2, 2
1, 1
2, 2
0, 2
0, 0
1, 0
2, 1
1, 0
1, 1
0, 2
0, 4
0, 1
0, 1
1, 1
2, 0
0, 0
0, 0
1, 1
1, 0
0, 0
1, 1
0, 1
3, 1
0, 0
1, 0
0, 0
0, 0
0, 0
0, 0
0, 0
0, 1
1, 0
0, 0
0, 0
0, 0
0, 0
0, 0
1, 0
0, 0
0, 0
0, 0
0, 0
0, 1
0, 0
0, 0
0, 0
0, 0
0, 0
0, 0
0, 0
1, 0
0, 0
0, 0
0, 0
0, 0
0, 0
0, 0
0, 0
0, 0
0, 0
0, 0
0, 0
0, 0
0, 0
0, 0
0, 0
0, 0
0, 0
0, 0
0, 0
0, 0
0, 0
0, 0
0, 0
0, 0
0, 0
0, 0
0, 0
0, 0
0, 0
0, 0
0, 0
0, 0
0, 0
0, 0
0, 0
0, 0
0, 0
0, 0
0, 0
0, 0
0, 0
0, 0
0, 0
0, 0
0, 0
0, 0
0, 0
0, 0
0, 0
0, 0
0, 0
0, 0
0, 0
0, 0
0, 0
0, 0
0, 0
0, 0
0, 0
0, 0
0, 0
0, 0
0, 0
0, 0
0, 0
0, 0
0, 0
0, 0
0, 0
0, 0
0, 0
0, 0
0, 0
0, 0
#ENDOFDATA     end of spectrum data

File: ps__0240_0688241128_000rfs_shot_18.msa
#FORMAT      : EMSA/MAS spectral data file
#VERSION     : TC202v2.0 PIXL
#TITLE       : N/A
#DATE        :       Date in the format DD-MMM-YYYY, for example 07-JUL-2010
#TIME        :             The time of day at which the spectrum was recorded, in 24-hour format
#OWNER       : PIXL Flight Model       (PIXL will use this to indicate which instrument took the data.)
#NPOINTS     : 4096     Number of data points in the spectrum (This can be zero for configuration only files)
#NCOLUMNS    : 2     Number of data columns in the spectrum (This can be zero for configuration only files)
#XUNITS      : eV
#YUNITS      : COUNTS
#DATATYPE    : YY
#XPERCHAN    : 7.862, 7.881   eV per channel (separate by commas if more than one detector)
#OFFSET      : 18.5, -22.4         eV of first channel  (separate by commas if more than one detector
#SIGNALTYPE  : XRF
#YP_TEMP     : 1.113
#LIVETIME    : 36.6245, 36.5897   seconds (separate by commas if more than one detector)
#REALTIME    : 40, 40   seconds (separate by commas if more than one detector)
#SPECTRUM    : start of spectrum data
0, 0
0, 0
0, 0
0, 0
0, 0
0, 0
0, 0
1, 0
2, 2
8, 8
9, 12
46, 52
81, 71
184, 197
371, 376
617, 581
3276, 3250
610, 561
81, 79
36, 28
14, 12
58, 76
33, 28
35, 37
179, 198
295, 277
180, 210
106, 115
42, 38
38, 37
131, 139
71, 74
121, 124
1769, 1926
2489, 2445
254, 236
311, 323
339, 375
48, 46
24, 60
232, 256
785, 842
298, 310
61, 57
85, 92
171, 176
80, 79
39, 44
52, 46
63, 72
57, 56
44, 37
51, 40
76, 114
119, 121
72, 73
85, 120
1112, 1380
4831, 5274
2657, 2191
223, 162
54, 45
71, 90
279, 329
773, 807
420, 340
54, 46
41, 36
23, 23
34, 31
26, 26
34, 41
23, 38
45, 33
32, 37
43, 51
29, 23
20, 37
40, 28
25, 30
24, 19
28, 24
36, 28
30, 32
30, 22
26, 22
29, 24
21, 26
24, 22
22, 21
28, 24
26, 34
13, 18
15, 21
15, 22
18, 14
20, 14
19, 11
17, 22
21, 17
12, 19
14, 15
10, 13
12, 11
16, 7
9, 12
14, 9
14, 9
11, 13
11, 11
10, 16
11, 9
8, 13
12, 12
12, 6
9, 1
14, 13
11, 8
10, 1
13, 6
10, 6
10, 8
7, 4
10, 6
9, 6
6, 6
13, 4
8, 9
8, 6
9, 7
3, 8
4, 5
2, 6
3, 6
4, 4
3, 3
5, 2
3, 4
3, 1
6, 8
1, 5
1, 4
4, 3
2, 6
5, 3
4, 1
2, 0
1, 1
2, 0
1, 3
4, 3
4, 4
2, 2
0, 0
2, 1
4, 1
3, 1
2, 0
2, 1
3, 1
1, 2
2, 1
1, 2
5, 2
1, 0
2, 0
3, 3
2, 2
1, 1
0, 0
1, 0
2, 1
2, 0
2, 1
1, 2
1, 2
2, 0
0, 1
1, 1
0, 0
1, 1
0, 2
0, 2
0, 3
2, 2
0, 0
0, 1
0, 1
0, 0
1, 0
1, 0
0, 1
1, 0
0, 1
0, 0
0, 0
0, 1
1, 0
1, 0
0, 1
0, 0
0, 0
0, 0
0, 0
1, 0
0, 1
1, 0
0, 0
0, 1
0, 0
0, 0
0, 0
0, 0
0, 0
0, 0
0, 1
0, 0
0, 0
0, 0
0, 0
0, 0
0, 0
0, 0
0, 0
0, 0
0, 0
0, 0
0, 0
0, 0
0, 0
0, 0
0, 0
0, 0
0, 0
0, 0
0, 0
0, 0
0, 0
0, 0
0, 0
0, 0
0, 0
0, 0
0, 0
0, 0
0, 0
0, 0
0, 0
0, 0
0, 0
0, 0
0, 0
0, 0
0, 0
0, 0
0, 0
0, 0
0, 0
0, 0
0, 0
0, 0
0, 0
0, 0
0, 0
0, 0
0, 0
0, 0
0, 0
0, 0
0, 0
0, 0
0, 0
0, 0
0, 0
0, 0
0, 0
0, 0
0, 0
0, 0
0, 0
0, 0
0, 0
0, 0
0, 0
0, 0
0, 0
0, 0
0, 0
0, 0
0, 0
0, 0
0, 0
0, 0
0, 0
#ENDOFDATA     end of spectrum data

File: ps__0240_0688241128_000rfs_shot_20.msa
#FORMAT      : EMSA/MAS spectral data file
#VERSION     : TC202v2.0 PIXL
#TITLE       : N/A
#DATE        :       Date in the format DD-MMM-YYYY, for example 07-JUL-2010
#TIME        :             The time of day at which the spectrum was recorded, in 24-hour format
#OWNER       : PIXL Flight Model       (PIXL will use this to indicate which instrument took the data.)
#NPOINTS     : 4096     Number of data points in the spectrum (This can be zero for configuration only files)
#NCOLUMNS    : 2     Number of data columns in the spectrum (This can be zero for configuration only files)
#XUNITS      : eV
#YUNITS      : COUNTS
#DATATYPE    : YY
#XPERCHAN    : 7.862, 7.881   eV per channel (separate by commas if more than one detector)
#OFFSET      : 18.5, -22.4         eV of first channel  (separate by commas if more than one detector
#SIGNALTYPE  : XRF
#YP_TEMP     : 0.76
#LIVETIME    : 36.6277, 36.6034   seconds (separate by commas if more than one detector)
#REALTIME    : 40, 40   seconds (separate by commas if more than one detector)
#SPECTRUM    : start of spectrum data
0, 0
0, 0
0, 0
0, 0
0, 0
0, 0
0, 0
2, 0
5, 2
8, 7
11, 13
53, 52
83, 68
228, 180
387, 345
653, 642
3232, 3410
581, 612
77, 68
27, 24
25, 17
62, 57
33, 30
34, 31
183, 202
284, 264
209, 224
114, 101
48, 35
38, 51
134, 129
79, 62
100, 143
1765, 1945
2475, 2428
266, 224
326, 341
377, 357
49, 48
41, 23
200, 228
805, 844
292, 275
50, 52
101, 120
168, 199
73, 76
51, 52
43, 49
63, 66
47, 59
42, 50
48, 56
95, 93
126, 119
61, 53
78, 108
1161, 1328
4835, 5225
2703, 2274
225, 139
59, 59
69, 76
254, 310
775, 778
406, 344
64, 41
36, 20
37, 34
39, 32
39, 36
38, 31
30, 31
31, 48
38, 47
33, 33
36, 34
32, 34
33, 36
27, 36
33, 28
21, 27
30, 21
23, 19
18, 28
29, 31
22, 20
28, 20
22, 19
23, 21
17, 26
23, 19
22, 24
20, 14
13, 24
6, 22
14, 19
15, 13
16, 12
18, 9
18, 10
9, 12
17, 13
13, 19
9, 9
10, 13
12, 12
15, 6
15, 11
5, 14
13, 7
11, 11
5, 17
10, 7
6, 16
10, 13
16, 11
17, 14
7, 8
6, 8
10, 4
5, 5
6, 10
4, 9
8, 5
4, 3
6, 5
8, 3
12, 5
5, 3
4, 6
4, 2
3, 7
5, 4
3, 2
5, 4
3, 1
3, 4
5, 2
2, 3
3, 4
1, 4
4, 1
5, 3
0, 4
3, 3
4, 3
2, 3
2, 2
1, 4
2, 6
1, 3
1, 5
1, 3
4, 2
0, 1
3, 4
3, 3
1, 1
0, 1
2, 1
2, 1
1, 5
1, 2
0, 0
0, 2
2, 0
0, 1
2, 1
0, 4
1, 2
2, 3
0, 0
1, 0
0, 1
1, 0
0, 0
2, 2
1, 1
1, 1
1, 0
0, 1
1, 0
1, 0
0, 0
2, 1
0, 1
0, 0
0, 0
0, 0
0, 0
0, 0
0, 0
0, 1
2, 0
0, 0
1, 0
0, 0
0, 0
1, 0
0, 1
1, 0
0, 0
1, 0
0, 0
0, 1
1, 0
0, 0
0, 0
0, 0
0, 0
0, 0
0, 0
0, 0
0, 0
0, 0
0, 0
0, 0
0, 0
0, 0
1, 0
0, 0
0, 0
0, 0
0, 0
0, 0
0, 0
0, 0
0, 0
0, 0
0, 0
0, 0
1, 0
0, 0
0, 0
0, 0
0, 0
0, 0
0, 0
0, 0
0, 0
0, 0
0, 0
0, 0
0, 0
0, 0
0, 0
0, 0
0, 0
0, 0
0, 0
0, 0
0, 0
0, 0
0, 0
0, 0
0, 0
0, 0
0, 0
0, 0
0, 0
0, 0
0, 0
0, 0
0, 0
0, 0
0, 0
0, 0
0, 0
0, 0
0, 0
0, 0
0, 0
0, 0
0, 0
0, 0
0, 0
0, 0
0, 0
0, 0
0, 0
0, 0
0, 0
0, 0
0, 0
0, 0
0, 0
0, 0
0, 0
0, 0
0, 0
0, 0
0, 0
0, 0
#ENDOFDATA     end of spectrum data