Folder: data-repository/host_upload/11-13-2023/BHVO/ps_0240 (part 2)

File: ps__0240_0688241128_000rfs_shot_21.msa
#FORMAT      : EMSA/MAS spectral data file
#VERSION     : TC202v2.0 PIXL
#TITLE       : N/A
#DATE        :       Date in the format DD-MMM-YYYY, for example 07-JUL-2010
#TIME        :             The time of day at which the spectrum was recorded, in 24-hour format
#OWNER       : PIXL Flight Model       (PIXL will use this to indicate which instrument took the data.)
#NPOINTS     : 4096     Number of data points in the spectrum (This can be zero for configuration only files)
#NCOLUMNS    : 2     Number of data columns in the spectrum (This can be zero for configuration only files)
#XUNITS      : eV
#YUNITS      : COUNTS
#DATATYPE    : YY
#XPERCHAN    : 7.862, 7.881   eV per channel (separate by commas if more than one detector)
#OFFSET      : 18.5, -22.4         eV of first channel  (separate by commas if more than one detector
#SIGNALTYPE  : XRF
#YP_TEMP     : 0.728
#LIVETIME    : 36.5994, 36.5922   seconds (separate by commas if more than one detector)
#REALTIME    : 40, 40   seconds (separate by commas if more than one detector)
#SPECTRUM    : start of spectrum data
0, 0
0, 0
0, 0
0, 0
0, 0
0, 0
0, 0
1, 1
4, 3
8, 6
11, 10
58, 54
58, 54
205, 181
359, 374
620, 569
3314, 3304
598, 509
66, 71
31, 22
18, 16
60, 65
39, 18
31, 37
187, 203
327, 271
208, 219
106, 112
43, 41
43, 40
148, 133
68, 62
116, 130
1745, 1903
2561, 2502
284, 241
319, 362
358, 335
50, 53
47, 40
193, 244
808, 863
284, 273
60, 35
96, 109
168, 181
75, 65
50, 59
47, 36
54, 54
50, 40
45, 34
44, 66
98, 96
137, 119
55, 63
82, 97
1095, 1311
4898, 5318
2654, 2243
251, 160
52, 56
71, 76
294, 305
797, 815
393, 344
64, 55
30, 40
44, 41
21, 32
28, 35
35, 28
34, 44
33, 33
39, 42
31, 27
25, 27
28, 32
26, 24
37, 27
32, 33
19, 24
22, 20
29, 29
24, 30
30, 22
24, 23
19, 20
19, 14
22, 19
16, 29
25, 28
20, 21
22, 20
16, 22
20, 18
18, 15
22, 11
17, 13
18, 10
17, 13
13, 12
18, 21
12, 16
21, 14
14, 6
13, 5
13, 12
10, 13
9, 12
15, 7
9, 10
8, 10
8, 8
11, 7
12, 12
14, 15
5, 16
13, 16
11, 2
8, 8
6, 11
14, 6
4, 3
5, 5
4, 11
4, 4
5, 10
5, 9
7, 8
6, 4
4, 5
1, 3
3, 2
3, 3
3, 3
9, 7
6, 6
4, 2
5, 4
1, 4
3, 3
3, 4
4, 2
0, 5
2, 4
2, 5
1, 2
4, 1
3, 3
3, 1
4, 2
1, 2
1, 2
0, 2
2, 0
1, 2
0, 1
3, 0
1, 4
0, 3
3, 1
1, 0
2, 1
3, 4
3, 1
1, 3
0, 1
1, 0
2, 0
1, 1
1, 2
1, 0
0, 1
1, 0
0, 3
2, 0
1, 0
0, 1
0, 0
0, 0
0, 1
0, 1
0, 0
1, 1
0, 0
1, 0
0, 1
0, 0
0, 1
0, 0
0, 0
0, 0
0, 1
0, 0
0, 0
0, 1
1, 0
0, 0
0, 0
0, 0
0, 0
0, 1
2, 0
0, 0
0, 0
0, 0
1, 0
0, 0
0, 1
0, 0
0, 0
0, 0
0, 0
0, 0
0, 0
0, 0
0, 0
0, 0
0, 0
0, 0
0, 0
0, 0
0, 0
0, 0
0, 0
0, 0
0, 1
0, 0
0, 0
0, 0
0, 0
0, 0
0, 0
0, 0
0, 0
0, 0
0, 0
0, 0
0, 0
0, 0
0, 0
0, 0
0, 0
0, 0
0, 0
0, 0
0, 0
0, 0
0, 0
0, 0
0, 0
0, 0
0, 0
0, 0
0, 0
0, 0
0, 0
0, 0
0, 0
0, 0
0, 0
0, 0
0, 0
0, 0
0, 0
0, 0
0, 0
0, 0
0, 0
0, 0
0, 0
0, 0
0, 0
0, 0
0, 0
0, 0
0, 0
0, 0
0, 0
0, 0
0, 0
0, 0
0, 0
0, 0
0, 0
0, 0
0, 0
0, 0
0, 0
0, 0
0, 0
0, 0
0, 0
#ENDOFDATA     end of spectrum data

File: ps__0240_0688241128_000rfs_shot_23.msa
#FORMAT      : EMSA/MAS spectral data file
#VERSION     : TC202v2.0 PIXL
#TITLE       : N/A
#DATE        :       Date in the format DD-MMM-YYYY, for example 07-JUL-2010
#TIME        :             The time of day at which the spectrum was recorded, in 24-hour format
#OWNER       : PIXL Flight Model       (PIXL will use this to indicate which instrument took the data.)
#NPOINTS     : 4096     Number of data points in the spectrum (This can be zero for configuration only files)
#NCOLUMNS    : 2     Number of data columns in the spectrum (This can be zero for configuration only files)
#XUNITS      : eV
#YUNITS      : COUNTS
#DATATYPE    : YY
#XPERCHAN    : 7.862, 7.881   eV per channel (separate by commas if more than one detector)
#OFFSET      : 18.5, -22.4         eV of first channel  (separate by commas if more than one detector
#SIGNALTYPE  : XRF
#YP_TEMP     : 0.888
#LIVETIME    : 36.6359, 36.612   seconds (separate by commas if more than one detector)
#REALTIME    : 40, 40   seconds (separate by commas if more than one detector)
#SPECTRUM    : start of spectrum data
0, 0
0, 0
0, 0
0, 0
0, 0
0, 0
0, 0
2, 1
5, 2
10, 11
11, 18
47, 48
59, 82
217, 189
384, 386
627, 629
3427, 3391
602, 534
91, 67
27, 38
12, 16
70, 79
31, 28
29, 34
198, 212
305, 289
197, 214
85, 102
38, 56
42, 39
145, 142
62, 59
111, 112
1734, 1987
2571, 2502
281, 236
314, 323
350, 338
57, 57
36, 31
225, 270
778, 813
324, 282
47, 68
84, 97
177, 170
84, 76
38, 38
47, 35
60, 51
52, 57
42, 52
42, 48
96, 90
109, 124
61, 59
103, 98
1041, 1395
4824, 5175
2618, 2218
246, 184
45, 45
73, 78
255, 298
766, 816
432, 319
44, 38
39, 45
36, 34
32, 44
30, 35
32, 24
24, 45
41, 34
37, 39
38, 34
32, 28
29, 29
42, 27
28, 22
29, 26
29, 30
20, 34
20, 29
13, 22
15, 25
20, 24
17, 22
28, 30
18, 14
19, 19
22, 19
33, 30
20, 19
25, 12
20, 18
25, 12
12, 13
12, 15
18, 22
20, 18
15, 19
18, 13
11, 16
21, 19
12, 16
9, 6
18, 11
6, 13
12, 11
12, 10
13, 17
14, 7
7, 8
8, 3
7, 9
8, 13
13, 10
2, 8
3, 7
12, 7
4, 10
10, 8
8, 7
5, 8
5, 8
4, 3
6, 4
3, 8
4, 9
5, 5
2, 2
8, 6
3, 6
4, 4
6, 2
3, 2
2, 3
7, 2
2, 2
4, 5
5, 4
6, 1
0, 1
5, 4
2, 3
2, 0
2, 1
8, 2
2, 1
3, 4
2, 2
1, 2
1, 2
2, 2
1, 0
0, 0
0, 0
1, 0
3, 2
2, 1
1, 4
0, 2
4, 0
4, 4
2, 1
3, 4
2, 0
3, 2
2, 1
4, 5
3, 1
1, 3
2, 2
0, 0
1, 1
1, 0
1, 1
0, 1
1, 0
0, 0
0, 0
2, 0
2, 2
1, 1
1, 0
1, 2
0, 0
1, 1
2, 0
0, 0
1, 1
0, 0
0, 0
0, 0
0, 0
0, 1
0, 0
0, 0
0, 0
0, 0
0, 0
0, 0
0, 0
0, 0
0, 0
0, 0
0, 0
0, 0
0, 0
0, 0
1, 0
0, 0
0, 1
1, 0
0, 0
0, 0
0, 1
0, 0
1, 0
1, 0
0, 0
0, 0
0, 0
0, 0
0, 0
0, 0
0, 0
0, 0
0, 0
0, 0
0, 0
0, 0
0, 0
0, 0
0, 0
0, 0
0, 0
0, 0
0, 0
0, 0
0, 0
0, 1
0, 0
0, 0
0, 0
0, 0
0, 0
0, 0
0, 0
0, 0
0, 0
0, 0
0, 0
0, 0
0, 0
0, 0
0, 0
0, 0
0, 0
0, 0
0, 0
0, 0
0, 0
0, 0
0, 0
0, 0
0, 0
0, 0
0, 0
0, 0
0, 0
0, 0
0, 0
0, 0
0, 0
0, 0
0, 0
0, 0
0, 0
0, 0
0, 0
0, 0
0, 0
0, 0
0, 0
0, 0
0, 0
0, 0
0, 0
0, 0
0, 0
0, 0
0, 0
#ENDOFDATA     end of spectrum data

File: ps__0240_0688241128_000rfs_shot_24.msa
#FORMAT      : EMSA/MAS spectral data file
#VERSION     : TC202v2.0 PIXL
#TITLE       : N/A
#DATE        :       Date in the format DD-MMM-YYYY, for example 07-JUL-2010
#TIME        :             The time of day at which the spectrum was recorded, in 24-hour format
#OWNER       : PIXL Flight Model       (PIXL will use this to indicate which instrument took the data.)
#NPOINTS     : 4096     Number of data points in the spectrum (This can be zero for configuration only files)
#NCOLUMNS    : 2     Number of data columns in the spectrum (This can be zero for configuration only files)
#XUNITS      : eV
#YUNITS      : COUNTS
#DATATYPE    : YY
#XPERCHAN    : 7.862, 7.881   eV per channel (separate by commas if more than one detector)
#OFFSET      : 18.5, -22.4         eV of first channel  (separate by commas if more than one detector
#SIGNALTYPE  : XRF
#YP_TEMP     : 0.792
#LIVETIME    : 36.6122, 36.6123   seconds (separate by commas if more than one detector)
#REALTIME    : 40, 40   seconds (separate by commas if more than one detector)
#SPECTRUM    : start of spectrum data
0, 0
0, 0
0, 0
0, 0
0, 0
0, 0
0, 0
1, 1
1, 4
8, 11
8, 14
51, 51
58, 57
211, 189
392, 382
685, 644
3337, 3315
556, 563
78, 70
39, 27
14, 13
54, 75
30, 28
29, 33
201, 193
275, 276
200, 212
112, 97
42, 36
52, 37
123, 157
73, 67
98, 123
1798, 1997
2526, 2505
281, 211
320, 346
388, 347
47, 56
41, 20
220, 236
838, 828
290, 240
69, 62
96, 110
189, 165
67, 67
43, 45
47, 52
69, 57
57, 63
38, 44
41, 46
86, 91
130, 124
76, 60
80, 88
1074, 1316
4745, 5227
2629, 2251
222, 166
45, 60
63, 80
272, 307
760, 834
393, 353
43, 52
39, 42
42, 46
33, 23
35, 38
36, 27
27, 28
27, 43
43, 36
26, 38
26, 32
35, 39
22, 32
32, 35
30, 24
29, 30
29, 23
22, 31
31, 26
20, 23
21, 24
25, 19
16, 24
28, 11
18, 19
20, 18
23, 22
24, 17
11, 18
15, 20
19, 17
27, 17
12, 11
9, 17
15, 10
16, 11
20, 14
17, 21
16, 11
11, 9
15, 6
15, 12
10, 8
10, 5
17, 14
6, 6
5, 10
10, 6
15, 13
14, 7
8, 5
11, 16
10, 7
5, 6
9, 9
7, 8
9, 13
6, 4
9, 17
4, 2
7, 1
5, 5
7, 11
4, 3
2, 4
5, 6
6, 2
5, 6
3, 4
4, 3
7, 3
1, 6
5, 4
4, 4
1, 2
3, 3
8, 5
5, 2
4, 5
3, 3
3, 2
3, 3
0, 4
2, 1
2, 1
2, 1
4, 1
2, 1
2, 3
2, 0
3, 2
1, 3
1, 1
0, 1
0, 1
2, 3
1, 0
2, 1
2, 2
1, 0
2, 0
1, 2
1, 1
2, 1
2, 1
0, 0
2, 0
1, 1
1, 1
1, 1
1, 0
0, 3
1, 3
0, 0
0, 0
1, 0
2, 1
0, 1
0, 0
0, 0
0, 0
0, 0
0, 0
0, 0
0, 0
1, 0
0, 0
0, 0
0, 0
0, 0
0, 0
0, 0
0, 0
0, 0
0, 0
0, 0
1, 0
0, 0
0, 1
0, 1
0, 0
1, 0
0, 0
0, 0
0, 0
0, 0
0, 0
0, 0
0, 0
1, 1
0, 0
0, 0
0, 0
0, 0
0, 0
0, 0
0, 0
0, 0
0, 0
0, 0
0, 0
0, 0
0, 0
0, 0
0, 0
0, 0
0, 0
0, 0
0, 0
0, 0
0, 0
0, 0
0, 0
0, 0
0, 0
0, 0
0, 0
0, 0
0, 0
0, 0
0, 0
0, 0
0, 0
0, 0
0, 0
0, 0
0, 0
0, 0
0, 0
0, 0
0, 0
0, 0
0, 0
0, 0
0, 0
0, 0
0, 0
0, 0
0, 0
0, 0
0, 0
0, 0
0, 0
0, 0
0, 0
0, 0
0, 0
0, 0
0, 0
0, 0
0, 0
0, 0
0, 0
0, 0
0, 0
0, 0
0, 0
0, 0
0, 0
0, 0
0, 0
0, 0
0, 0
0, 0
0, 0
0, 0
0, 0
0, 0
#ENDOFDATA     end of spectrum data