Folder: data-repository/host_upload/12-01-2023/Dourbes (shot-by-shot)/upload_4 (part 7)

File: ps__0257_0689790785_000rfs_shot_3113.msa
#FORMAT      : EMSA/MAS spectral data file
#VERSION     : TC202v2.0 PIXL
#TITLE       : N/A
#DATE        :       Date in the format DD-MMM-YYYY, for example 07-JUL-2010
#TIME        :             The time of day at which the spectrum was recorded, in 24-hour format
#OWNER       : PIXL Flight Model       (PIXL will use this to indicate which instrument took the data.)
#NPOINTS     : 4096     Number of data points in the spectrum (This can be zero for configuration only files)
#NCOLUMNS    : 2     Number of data columns in the spectrum (This can be zero for configuration only files)
#XUNITS      : eV
#YUNITS      : COUNTS
#DATATYPE    : YY
#XPERCHAN    : 7.862, 7.881   eV per channel (separate by commas if more than one detector)
#OFFSET      : 18.5, -22.4         eV of first channel  (separate by commas if more than one detector
#SIGNALTYPE  : XRF
#YP_TEMP     : 3.005
#LIVETIME    : 9.15059, 9.14773   seconds (separate by commas if more than one detector)
#REALTIME    : 10, 10.0   seconds (separate by commas if more than one detector)
#SPECTRUM    : start of spectrum data
0, 0
0, 0
0, 0
0, 0
0, 0
0, 0
0, 0
1, 0
3, 1
2, 1
2, 0
27, 18
39, 26
5, 2
14, 8
144, 130
956, 901
163, 165
14, 17
1, 1
4, 3
4, 7
2, 4
2, 9
26, 33
21, 26
19, 15
8, 15
8, 1
4, 2
4, 4
2, 1
21, 28
603, 716
1052, 1031
107, 86
102, 101
136, 148
9, 7
4, 1
7, 8
44, 28
13, 10
4, 7
5, 4
9, 5
6, 6
11, 4
10, 9
42, 55
25, 20
6, 8
7, 7
23, 42
59, 48
16, 18
10, 20
214, 252
1075, 1169
749, 599
98, 53
19, 7
9, 12
38, 41
178, 176
97, 100
14, 6
26, 9
26, 6
8, 5
7, 3
1, 7
8, 6
2, 2
4, 5
5, 3
8, 7
6, 13
3, 4
7, 6
6, 3
5, 5
9, 5
6, 5
4, 2
2, 7
7, 8
10, 7
5, 23
5, 24
3, 13
5, 6
6, 6
4, 2
2, 3
3, 2
3, 3
3, 6
7, 3
4, 7
7, 4
2, 2
2, 5
2, 6
1, 7
1, 7
4, 3
2, 1
4, 0
3, 0
8, 1
4, 0
2, 2
1, 1
3, 1
2, 2
5, 4
0, 2
1, 3
0, 1
0, 1
0, 3
1, 3
2, 4
0, 1
1, 2
0, 1
1, 2
0, 2
2, 2
0, 0
2, 0
3, 2
0, 3
1, 1
1, 1
0, 0
2, 0
0, 0
1, 0
1, 0
2, 0
0, 0
0, 1
0, 1
1, 0
4, 3
1, 1
2, 0
0, 0
0, 0
0, 0
0, 0
2, 0
1, 0
2, 0
0, 0
0, 0
0, 0
0, 0
1, 0
0, 0
0, 0
0, 0
0, 0
1, 0
0, 0
0, 0
0, 0
0, 0
0, 0
0, 0
0, 0
0, 1
0, 0
0, 0
0, 0
0, 0
0, 1
1, 1
0, 0
0, 0
0, 0
1, 0
0, 0
0, 0
0, 0
0, 0
0, 0
0, 0
0, 0
0, 0
1, 0
0, 1
0, 0
0, 0
0, 0
0, 0
0, 0
0, 0
1, 0
0, 0
0, 0
0, 0
0, 0
0, 0
0, 0
0, 0
0, 1
0, 1
0, 0
0, 0
0, 0
0, 0
0, 0
0, 0
0, 0
0, 0
0, 0
0, 0
0, 0
0, 0
0, 0
0, 1
0, 0
0, 0
0, 0
0, 0
0, 0
0, 0
0, 0
0, 0
0, 0
0, 0
0, 0
0, 0
0, 0
0, 0
0, 0
0, 0
0, 0
0, 0
0, 0
0, 0
0, 0
0, 0
0, 0
0, 0
0, 0
0, 0
0, 0
0, 0
0, 0
0, 0
0, 0
0, 0
0, 0
0, 0
0, 0
0, 0
0, 0
0, 0
0, 0
0, 0
0, 0
0, 0
0, 0
0, 0
0, 0
0, 0
0, 0
0, 0
0, 0
0, 0
0, 0
0, 0
0, 0
0, 0
0, 0
0, 0
0, 0
0, 0
0, 0
0, 0
0, 0
0, 0
0, 0
0, 0
0, 0
0, 0
0, 0
0, 0
0, 0
0, 0
#ENDOFDATA     end of spectrum data

File: ps__0257_0689790785_000rfs_shot_3115.msa
#FORMAT      : EMSA/MAS spectral data file
#VERSION     : TC202v2.0 PIXL
#TITLE       : N/A
#DATE        :       Date in the format DD-MMM-YYYY, for example 07-JUL-2010
#TIME        :             The time of day at which the spectrum was recorded, in 24-hour format
#OWNER       : PIXL Flight Model       (PIXL will use this to indicate which instrument took the data.)
#NPOINTS     : 4096     Number of data points in the spectrum (This can be zero for configuration only files)
#NCOLUMNS    : 2     Number of data columns in the spectrum (This can be zero for configuration only files)
#XUNITS      : eV
#YUNITS      : COUNTS
#DATATYPE    : YY
#XPERCHAN    : 7.862, 7.881   eV per channel (separate by commas if more than one detector)
#OFFSET      : 18.5, -22.4         eV of first channel  (separate by commas if more than one detector
#SIGNALTYPE  : XRF
#YP_TEMP     : 3.005
#LIVETIME    : 9.1445, 9.14328   seconds (separate by commas if more than one detector)
#REALTIME    : 10, 10.0   seconds (separate by commas if more than one detector)
#SPECTRUM    : start of spectrum data
0, 0
0, 0
0, 0
0, 0
0, 0
0, 0
0, 0
0, 0
0, 0
2, 0
2, 0
24, 24
37, 28
11, 8
9, 11
159, 132
931, 971
138, 145
20, 14
1, 3
2, 3
8, 11
4, 3
13, 6
41, 47
32, 40
16, 19
6, 8
5, 6
3, 1
1, 7
1, 5
23, 30
608, 643
994, 947
112, 80
105, 107
139, 120
15, 13
1, 3
9, 9
31, 29
15, 9
7, 5
0, 3
6, 3
7, 10
5, 4
8, 10
64, 39
32, 26
2, 4
10, 5
16, 31
52, 55
13, 15
12, 19
192, 272
1108, 1193
681, 644
86, 39
16, 11
8, 12
49, 56
182, 206
100, 107
17, 9
29, 9
35, 7
14, 3
13, 7
5, 4
4, 1
8, 5
3, 4
8, 3
4, 6
7, 21
6, 10
5, 4
0, 3
5, 8
4, 4
5, 4
2, 12
11, 8
4, 8
5, 4
5, 17
5, 23
3, 4
10, 1
3, 1
3, 2
1, 2
3, 0
2, 6
4, 3
4, 2
5, 2
2, 1
2, 2
2, 3
2, 3
1, 3
1, 1
2, 3
3, 3
3, 3
3, 4
3, 1
5, 2
3, 2
1, 3
0, 1
3, 6
0, 1
0, 2
0, 3
0, 2
3, 2
4, 2
0, 1
1, 3
3, 2
0, 0
3, 1
1, 0
1, 0
2, 1
2, 2
2, 1
0, 3
0, 0
2, 1
2, 1
2, 1
0, 1
2, 1
1, 1
1, 0
0, 1
1, 1
1, 1
0, 0
0, 0
1, 0
1, 1
0, 0
2, 1
0, 0
0, 0
1, 1
1, 0
0, 1
0, 1
1, 0
1, 0
1, 0
2, 2
1, 0
0, 0
0, 0
0, 0
0, 0
0, 0
0, 0
0, 0
0, 1
1, 0
1, 0
0, 0
0, 0
0, 1
0, 1
0, 1
0, 0
0, 0
0, 0
0, 0
0, 0
0, 0
0, 1
1, 0
0, 1
0, 0
0, 0
1, 0
0, 0
0, 0
0, 0
0, 0
0, 0
0, 0
0, 0
0, 0
0, 0
0, 0
0, 0
0, 0
0, 0
0, 0
0, 0
0, 0
0, 0
0, 0
0, 0
0, 0
0, 0
0, 0
0, 0
0, 0
0, 0
0, 0
0, 0
0, 0
0, 0
0, 0
0, 0
0, 0
0, 0
0, 0
0, 0
0, 0
0, 0
0, 0
0, 0
0, 0
0, 0
0, 0
0, 0
0, 0
0, 0
0, 0
0, 0
0, 0
0, 0
0, 0
0, 0
0, 0
0, 0
0, 0
0, 0
0, 0
0, 0
0, 0
0, 0
0, 0
0, 0
0, 0
0, 0
0, 0
0, 0
0, 0
0, 0
0, 0
0, 0
0, 0
0, 0
0, 0
0, 0
0, 0
0, 0
0, 0
0, 0
0, 0
0, 0
0, 0
0, 0
0, 0
0, 0
0, 0
0, 0
0, 0
0, 0
0, 0
0, 0
0, 0
0, 0
0, 0
0, 0
0, 0
0, 0
0, 0
0, 0
0, 0
0, 0
0, 0
0, 0
0, 0
0, 0
0, 0
0, 0
0, 0
#ENDOFDATA     end of spectrum data

File: ps__0257_0689790785_000rfs_shot_3117.msa
#FORMAT      : EMSA/MAS spectral data file
#VERSION     : TC202v2.0 PIXL
#TITLE       : N/A
#DATE        :       Date in the format DD-MMM-YYYY, for example 07-JUL-2010
#TIME        :             The time of day at which the spectrum was recorded, in 24-hour format
#OWNER       : PIXL Flight Model       (PIXL will use this to indicate which instrument took the data.)
#NPOINTS     : 4096     Number of data points in the spectrum (This can be zero for configuration only files)
#NCOLUMNS    : 2     Number of data columns in the spectrum (This can be zero for configuration only files)
#XUNITS      : eV
#YUNITS      : COUNTS
#DATATYPE    : YY
#XPERCHAN    : 7.862, 7.881   eV per channel (separate by commas if more than one detector)
#OFFSET      : 18.5, -22.4         eV of first channel  (separate by commas if more than one detector
#SIGNALTYPE  : XRF
#YP_TEMP     : 3.198
#LIVETIME    : 9.14918, 9.13318   seconds (separate by commas if more than one detector)
#REALTIME    : 10, 10.0   seconds (separate by commas if more than one detector)
#SPECTRUM    : start of spectrum data
0, 0
0, 0
0, 0
0, 0
0, 0
0, 0
0, 0
0, 1
2, 0
1, 1
2, 2
20, 31
30, 38
3, 8
6, 12
128, 136
867, 895
158, 147
13, 13
5, 2
1, 4
6, 6
3, 0
3, 5
27, 29
23, 33
17, 12
13, 9
5, 3
3, 1
4, 4
8, 2
27, 46
629, 745
1085, 1090
122, 83
97, 103
124, 147
14, 9
1, 1
10, 8
24, 28
11, 11
7, 6
7, 6
10, 6
4, 8
2, 2
7, 14
44, 62
26, 26
4, 7
4, 5
27, 36
48, 41
13, 15
13, 33
208, 302
1056, 1183
632, 578
72, 58
17, 8
9, 13
50, 48
161, 241
90, 134
17, 27
23, 5
59, 4
16, 10
5, 5
5, 4
2, 4
9, 7
6, 6
6, 6
14, 10
10, 11
3, 12
4, 1
7, 6
4, 6
8, 3
4, 7
11, 8
13, 7
11, 3
3, 2
3, 3
3, 3
3, 2
4, 1
6, 0
6, 4
3, 1
2, 4
3, 0
3, 1
5, 2
2, 4
7, 5
6, 3
4, 3
0, 5
3, 3
3, 6
3, 5
1, 2
2, 1
3, 0
0, 2
1, 1
1, 3
2, 4
4, 3
1, 3
1, 2
1, 1
4, 2
1, 2
1, 0
1, 1
2, 1
1, 0
2, 2
1, 2
2, 0
0, 0
1, 0
1, 0
1, 1
1, 2
0, 1
1, 1
0, 3
1, 1
0, 0
2, 2
0, 0
2, 1
0, 1
2, 1
1, 0
1, 0
0, 1
1, 1
0, 0
1, 1
1, 1
0, 1
0, 1
0, 0
0, 0
0, 1
0, 1
0, 0
0, 0
0, 1
0, 1
0, 0
0, 0
2, 0
0, 0
0, 0
0, 0
0, 0
1, 0
0, 0
0, 0
0, 0
1, 0
0, 0
2, 0
0, 0
0, 0
0, 0
0, 0
0, 0
0, 0
0, 0
0, 0
0, 0
0, 0
0, 0
0, 0
0, 0
0, 0
0, 0
0, 0
0, 0
1, 0
0, 0
0, 0
0, 0
0, 0
0, 0
0, 0
0, 0
0, 0
0, 0
0, 0
0, 0
0, 0
0, 0
0, 1
0, 0
0, 0
0, 0
0, 0
0, 0
0, 0
0, 0
0, 0
0, 0
0, 0
0, 0
0, 0
0, 0
0, 0
0, 0
0, 0
0, 0
0, 0
0, 0
0, 0
0, 0
0, 0
0, 0
0, 0
0, 0
0, 0
0, 0
0, 0
0, 0
0, 0
0, 0
0, 0
0, 0
0, 0
0, 0
0, 0
0, 0
0, 0
0, 0
0, 0
0, 0
0, 0
0, 0
0, 0
0, 0
0, 0
0, 0
0, 0
0, 0
0, 0
0, 0
0, 0
0, 0
0, 0
0, 0
0, 0
0, 0
0, 0
0, 0
0, 0
0, 0
0, 0
0, 0
0, 0
0, 0
0, 0
0, 0
0, 0
0, 0
0, 0
0, 0
0, 0
0, 0
0, 0
0, 0
0, 0
0, 0
0, 0
0, 0
0, 0
0, 0
0, 0
0, 0
0, 0
0, 0
0, 0
0, 0
0, 0
0, 0
#ENDOFDATA     end of spectrum data

File: ps__0257_0689790785_000rfs_shot_3120.msa
#FORMAT      : EMSA/MAS spectral data file
#VERSION     : TC202v2.0 PIXL
#TITLE       : N/A
#DATE        :       Date in the format DD-MMM-YYYY, for example 07-JUL-2010
#TIME        :             The time of day at which the spectrum was recorded, in 24-hour format
#OWNER       : PIXL Flight Model       (PIXL will use this to indicate which instrument took the data.)
#NPOINTS     : 4096     Number of data points in the spectrum (This can be zero for configuration only files)
#NCOLUMNS    : 2     Number of data columns in the spectrum (This can be zero for configuration only files)
#XUNITS      : eV
#YUNITS      : COUNTS
#DATATYPE    : YY
#XPERCHAN    : 7.862, 7.881   eV per channel (separate by commas if more than one detector)
#OFFSET      : 18.5, -22.4         eV of first channel  (separate by commas if more than one detector
#SIGNALTYPE  : XRF
#YP_TEMP     : 3.037
#LIVETIME    : 9.14982, 9.14787   seconds (separate by commas if more than one detector)
#REALTIME    : 10, 10.0   seconds (separate by commas if more than one detector)
#SPECTRUM    : start of spectrum data
0, 0
0, 0
0, 0
0, 0
0, 0
0, 0
0, 0
0, 0
0, 1
0, 1
2, 1
26, 15
29, 35
10, 6
9, 10
157, 143
832, 951
155, 145
19, 17
0, 1
3, 5
3, 8
3, 3
2, 3
13, 16
19, 19
16, 17
10, 18
4, 4
9, 3
6, 8
2, 3
31, 28
612, 720
1055, 1117
89, 90
106, 134
161, 125
13, 11
2, 2
6, 7
25, 24
9, 12
4, 8
2, 3
5, 13
7, 3
3, 4
7, 10
42, 50
30, 22
3, 8
4, 8
33, 37
41, 58
9, 20
9, 27
163, 232
1049, 1142
660, 636
63, 42
8, 12
8, 10
34, 63
153, 208
92, 118
15, 18
21, 10
42, 8
24, 7
5, 5
5, 5
2, 5
4, 2
6, 6
7, 6
16, 13
15, 9
3, 5
1, 5
3, 3
6, 5
3, 7
7, 13
10, 8
9, 8
9, 4
9, 6
4, 9
4, 6
5, 4
4, 5
10, 3
5, 2
4, 4
4, 5
3, 2
1, 3
5, 3
4, 4
3, 2
2, 5
6, 2
4, 3
3, 1
0, 6
2, 10
5, 0
1, 2
0, 2
3, 1
1, 2
3, 1
2, 1
4, 1
2, 0
0, 3
1, 1
0, 0
0, 3
0, 2
1, 0
0, 2
2, 2
2, 1
0, 0
4, 1
1, 0
1, 2
3, 1
4, 0
3, 0
0, 1
0, 1
1, 0
0, 2
0, 0
0, 1
2, 1
0, 1
0, 0
0, 0
0, 0
2, 0
1, 2
0, 0
0, 0
1, 0
1, 1
0, 0
0, 0
1, 1
1, 1
0, 0
0, 1
0, 1
0, 0
0, 0
0, 0
0, 0
0, 1
0, 1
0, 0
0, 0
0, 0
0, 0
0, 0
0, 0
1, 0
0, 0
0, 0
0, 0
0, 1
0, 0
0, 0
0, 0
0, 0
0, 0
0, 0
0, 0
0, 0
0, 0
0, 0
0, 0
0, 0
0, 0
0, 0
0, 0
0, 0
0, 0
0, 0
0, 0
0, 0
0, 0
0, 0
1, 0
0, 0
0, 0
0, 0
0, 0
0, 0
0, 0
0, 0
0, 0
0, 0
0, 0
1, 0
0, 0
0, 0
0, 0
0, 0
0, 0
1, 0
0, 0
0, 0
0, 0
0, 0
0, 0
0, 0
0, 0
0, 0
0, 0
0, 0
0, 0
0, 0
0, 0
0, 0
0, 0
0, 0
0, 0
0, 0
0, 0
0, 0
0, 0
0, 0
0, 0
0, 0
0, 0
0, 0
0, 0
0, 0
0, 0
0, 0
0, 0
0, 0
0, 0
0, 0
0, 0
0, 0
0, 0
0, 0
0, 0
0, 0
0, 0
0, 0
0, 0
0, 0
0, 0
0, 0
0, 0
0, 0
0, 0
0, 0
0, 0
0, 0
0, 0
0, 0
0, 0
0, 0
0, 0
0, 0
0, 0
0, 0
0, 0
0, 0
0, 0
0, 0
0, 0
0, 0
0, 0
0, 0
0, 0
0, 0
0, 0
0, 0
0, 0
0, 0
0, 0
0, 0
0, 0
0, 0
0, 0
0, 0
0, 0
#ENDOFDATA     end of spectrum data

File: ps__0257_0689790785_000rfs_shot_3121.msa
#FORMAT      : EMSA/MAS spectral data file
#VERSION     : TC202v2.0 PIXL
#TITLE       : N/A
#DATE        :       Date in the format DD-MMM-YYYY, for example 07-JUL-2010
#TIME        :             The time of day at which the spectrum was recorded, in 24-hour format
#OWNER       : PIXL Flight Model       (PIXL will use this to indicate which instrument took the data.)
#NPOINTS     : 4096     Number of data points in the spectrum (This can be zero for configuration only files)
#NCOLUMNS    : 2     Number of data columns in the spectrum (This can be zero for configuration only files)
#XUNITS      : eV
#YUNITS      : COUNTS
#DATATYPE    : YY
#XPERCHAN    : 7.862, 7.881   eV per channel (separate by commas if more than one detector)
#OFFSET      : 18.5, -22.4         eV of first channel  (separate by commas if more than one detector
#SIGNALTYPE  : XRF
#YP_TEMP     : 3.326
#LIVETIME    : 9.15126, 9.12509   seconds (separate by commas if more than one detector)
#REALTIME    : 10, 10.0   seconds (separate by commas if more than one detector)
#SPECTRUM    : start of spectrum data
0, 0
0, 0
0, 0
0, 0
0, 0
0, 0
0, 0
0, 0
1, 1
1, 1
1, 2
22, 22
29, 29
3, 2
9, 12
107, 140
734, 878
136, 132
13, 20
6, 4
3, 0
6, 10
8, 4
4, 3
24, 27
33, 37
30, 24
18, 20
8, 6
3, 7
3, 4
4, 5
26, 31
523, 653
880, 1000
102, 79
119, 110
141, 125
12, 18
4, 5
12, 9
31, 28
12, 19
4, 12
4, 9
10, 9
7, 8
10, 6
9, 17
32, 53
32, 24
3, 6
9, 9
36, 63
56, 61
15, 17
19, 26
190, 303
1039, 1342
681, 640
64, 50
7, 11
14, 13
38, 73
177, 229
92, 144
24, 15
15, 3
30, 8
20, 6
4, 5
6, 5
6, 7
7, 1
9, 7
8, 6
3, 5
6, 7
11, 5
4, 7
3, 5
8, 3
4, 4
2, 6
7, 7
8, 2
11, 4
4, 3
7, 3
1, 4
0, 3
5, 6
4, 3
8, 5
2, 6
4, 5
2, 0
4, 2
1, 1
4, 4
4, 2
1, 5
3, 2
2, 0
1, 4
1, 3
1, 12
2, 4
4, 7
2, 2
3, 4
2, 2
2, 3
2, 4
1, 2
1, 0
3, 3
0, 4
2, 0
0, 0
3, 2
1, 1
0, 4
4, 0
0, 0
2, 1
1, 0
1, 1
2, 3
0, 2
2, 1
0, 1
2, 0
1, 0
0, 3
1, 0
0, 2
2, 2
1, 1
0, 1
1, 2
2, 0
1, 0
1, 0
0, 1
1, 0
0, 2
2, 1
0, 0
0, 0
1, 0
0, 0
0, 2
1, 0
0, 0
0, 0
1, 1
1, 0
0, 0
0, 0
0, 0
0, 0
1, 1
0, 0
3, 0
0, 0
1, 0
0, 0
0, 0
0, 0
1, 0
0, 0
1, 0
0, 1
0, 0
0, 0
0, 2
0, 0
0, 0
0, 0
0, 0
0, 0
0, 1
0, 0
0, 1
0, 0
1, 0
0, 0
0, 0
0, 0
0, 0
0, 0
0, 0
0, 0
1, 0
0, 0
0, 0
0, 0
0, 0
0, 0
0, 0
0, 0
0, 0
0, 0
0, 0
0, 0
0, 0
0, 0
0, 0
0, 0
0, 0
0, 0
0, 0
0, 0
0, 0
0, 0
0, 0
0, 0
0, 0
0, 0
0, 0
0, 0
0, 0
0, 0
0, 0
0, 0
0, 0
0, 0
0, 0
0, 0
0, 0
0, 0
0, 0
0, 0
0, 0
0, 0
0, 0
0, 0
0, 0
0, 0
0, 0
0, 0
0, 0
0, 0
0, 0
0, 0
0, 0
0, 0
0, 0
0, 0
0, 0
0, 0
0, 0
0, 0
0, 0
0, 0
0, 0
0, 0
0, 0
0, 0
0, 0
0, 0
0, 0
0, 0
0, 0
0, 0
0, 0
0, 0
0, 0
0, 0
0, 0
0, 0
0, 0
0, 0
0, 0
0, 0
0, 0
0, 0
0, 0
0, 0
0, 0
0, 0
0, 0
0, 0
0, 0
0, 0
0, 0
0, 0
0, 0
0, 0
0, 0
0, 0
0, 0
0, 0
#ENDOFDATA     end of spectrum data

File: ps__0257_0689790785_000rfs_shot_3125.msa
#FORMAT      : EMSA/MAS spectral data file
#VERSION     : TC202v2.0 PIXL
#TITLE       : N/A
#DATE        :       Date in the format DD-MMM-YYYY, for example 07-JUL-2010
#TIME        :             The time of day at which the spectrum was recorded, in 24-hour format
#OWNER       : PIXL Flight Model       (PIXL will use this to indicate which instrument took the data.)
#NPOINTS     : 4096     Number of data points in the spectrum (This can be zero for configuration only files)
#NCOLUMNS    : 2     Number of data columns in the spectrum (This can be zero for configuration only files)
#XUNITS      : eV
#YUNITS      : COUNTS
#DATATYPE    : YY
#XPERCHAN    : 7.862, 7.881   eV per channel (separate by commas if more than one detector)
#OFFSET      : 18.5, -22.4         eV of first channel  (separate by commas if more than one detector
#SIGNALTYPE  : XRF
#YP_TEMP     : 3.069
#LIVETIME    : 9.04995, 9.1197   seconds (separate by commas if more than one detector)
#REALTIME    : 10, 10.0   seconds (separate by commas if more than one detector)
#SPECTRUM    : start of spectrum data
0, 0
0, 0
0, 0
0, 0
0, 0
0, 0
0, 0
0, 0
0, 0
1, 3
0, 1
29, 14
27, 33
11, 3
5, 9
145, 94
811, 569
130, 104
11, 5
4, 3
2, 2
5, 8
3, 2
8, 6
40, 29
30, 18
15, 15
19, 10
1, 4
5, 5
2, 3
3, 3
21, 12
394, 378
693, 553
59, 46
77, 69
91, 79
50, 6
12, 1
8, 9
21, 20
14, 11
14, 4
5, 4
8, 5
7, 9
7, 3
8, 6
31, 31
22, 14
9, 5
9, 13
58, 79
73, 153
23, 58
30, 64
438, 375
2665, 1762
1707, 927
132, 54
19, 16
21, 32
109, 83
373, 259
222, 145
15, 9
9, 1
18, 6
7, 4
2, 17
2, 26
6, 11
11, 11
14, 8
10, 2
8, 3
5, 1
7, 2
3, 1
1, 4
5, 0
6, 5
6, 6
4, 5
4, 5
4, 3
7, 3
8, 1
2, 6
6, 4
6, 2
5, 2
2, 1
0, 3
1, 1
2, 0
2, 6
2, 3
3, 7
5, 2
2, 1
2, 0
2, 2
2, 3
2, 2
1, 3
2, 3
1, 2
3, 3
1, 3
3, 4
2, 1
1, 1
7, 1
2, 0
4, 3
4, 1
1, 1
2, 0
1, 0
3, 2
3, 4
4, 1
4, 2
0, 0
0, 1
2, 1
0, 1
1, 0
1, 0
2, 1
0, 1
0, 1
0, 0
0, 0
2, 1
0, 2
1, 1
0, 0
0, 2
0, 1
0, 1
0, 1
1, 0
1, 1
0, 1
0, 0
1, 0
0, 0
2, 0
0, 1
0, 0
1, 0
0, 1
1, 0
0, 0
1, 0
1, 1
0, 1
1, 0
0, 0
0, 0
0, 0
1, 0
0, 0
0, 0
1, 1
0, 0
0, 0
0, 0
0, 0
0, 1
0, 0
0, 0
0, 0
0, 1
0, 0
0, 0
0, 0
0, 0
0, 0
0, 0
0, 0
0, 0
0, 0
0, 0
0, 0
0, 0
0, 0
0, 0
0, 0
0, 0
0, 0
0, 0
0, 0
0, 0
0, 0
0, 0
0, 0
0, 0
0, 0
0, 0
0, 0
0, 0
0, 0
0, 0
0, 0
0, 0
0, 0
0, 0
0, 0
0, 0
0, 0
0, 0
0, 0
0, 0
0, 0
0, 0
0, 0
0, 0
0, 0
0, 0
0, 0
0, 0
0, 0
0, 0
0, 0
0, 0
0, 0
0, 0
0, 0
0, 0
0, 0
0, 0
0, 0
0, 0
0, 0
0, 0
0, 0
0, 0
0, 0
0, 0
0, 0
0, 0
0, 0
0, 0
0, 0
0, 0
0, 0
0, 0
0, 0
0, 0
0, 0
0, 0
0, 0
0, 0
0, 0
0, 0
0, 0
0, 0
0, 0
0, 0
0, 0
0, 0
0, 0
0, 0
0, 0
0, 0
0, 0
0, 0
0, 0
0, 0
0, 0
0, 0
0, 0
0, 0
0, 0
0, 0
0, 0
0, 0
0, 0
0, 0
0, 0
0, 0
0, 0
0, 0
0, 0
0, 0
0, 0
0, 0
0, 0
0, 0
0, 0
#ENDOFDATA     end of spectrum data

File: ps__0257_0689790785_000rfs_shot_3127.msa
#FORMAT      : EMSA/MAS spectral data file
#VERSION     : TC202v2.0 PIXL
#TITLE       : N/A
#DATE        :       Date in the format DD-MMM-YYYY, for example 07-JUL-2010
#TIME        :             The time of day at which the spectrum was recorded, in 24-hour format
#OWNER       : PIXL Flight Model       (PIXL will use this to indicate which instrument took the data.)
#NPOINTS     : 4096     Number of data points in the spectrum (This can be zero for configuration only files)
#NCOLUMNS    : 2     Number of data columns in the spectrum (This can be zero for configuration only files)
#XUNITS      : eV
#YUNITS      : COUNTS
#DATATYPE    : YY
#XPERCHAN    : 7.862, 7.881   eV per channel (separate by commas if more than one detector)
#OFFSET      : 18.5, -22.4         eV of first channel  (separate by commas if more than one detector
#SIGNALTYPE  : XRF
#YP_TEMP     : 3.198
#LIVETIME    : 9.0113, 8.99614   seconds (separate by commas if more than one detector)
#REALTIME    : 10, 10.0   seconds (separate by commas if more than one detector)
#SPECTRUM    : start of spectrum data
0, 0
0, 0
0, 0
0, 0
0, 0
0, 0
0, 0
0, 0
0, 0
2, 2
3, 3
28, 35
50, 24
5, 1
7, 4
87, 58
473, 519
82, 81
5, 3
2, 2
2, 4
4, 2
5, 4
9, 11
59, 57
40, 41
18, 22
11, 13
5, 2
5, 3
2, 6
1, 0
2, 5
13, 23
23, 29
3, 5
6, 4
3, 4
13, 1
13, 8
7, 5
15, 10
18, 15
11, 4
8, 6
4, 4
6, 6
3, 3
7, 9
9, 14
7, 7
6, 9
13, 12
46, 49
70, 80
22, 80
32, 113
635, 783
3467, 3777
2223, 1989
184, 129
13, 16
29, 22
126, 159
533, 561
290, 252
28, 18
5, 3
3, 8
7, 5
7, 4
3, 3
6, 1
16, 6
10, 7
3, 4
3, 4
2, 5
0, 3
2, 5
2, 2
1, 2
4, 1
2, 2
0, 2
2, 2
6, 3
10, 0
4, 3
2, 3
2, 1
1, 1
5, 0
3, 2
1, 5
2, 3
3, 3
3, 4
1, 2
2, 1
2, 4
4, 1
3, 2
2, 1
5, 1
3, 2
1, 0
2, 3
0, 1
1, 1
3, 3
0, 0
1, 4
1, 5
4, 2
4, 3
5, 6
3, 4
3, 1
2, 0
2, 1
2, 1
2, 1
1, 2
2, 0
2, 1
0, 0
0, 1
1, 0
5, 0
0, 2
1, 1
1, 1
1, 0
0, 0
0, 0
3, 3
0, 0
0, 0
0, 0
0, 0
0, 0
0, 0
1, 0
0, 0
1, 1
1, 0
0, 1
0, 1
2, 0
0, 0
0, 0
0, 0
2, 0
0, 0
0, 0
0, 0
0, 1
0, 0
0, 0
0, 1
0, 0
0, 0
0, 0
0, 1
0, 0
0, 0
0, 0
1, 0
0, 0
0, 0
1, 0
0, 0
0, 0
0, 0
0, 1
0, 0
0, 0
0, 0
0, 0
0, 0
0, 0
0, 0
0, 0
0, 0
1, 0
0, 0
0, 0
0, 0
0, 0
0, 0
0, 0
0, 0
0, 0
0, 0
0, 0
0, 0
1, 0
0, 0
0, 0
0, 0
0, 0
0, 0
0, 0
0, 0
0, 0
0, 0
0, 0
0, 0
0, 0
0, 0
0, 0
0, 0
0, 0
0, 0
0, 0
0, 0
0, 0
0, 0
0, 0
0, 0
0, 0
0, 0
0, 0
0, 0
0, 0
0, 0
0, 0
0, 0
0, 0
0, 0
0, 0
0, 0
0, 0
0, 0
0, 0
0, 0
0, 0
0, 0
0, 0
0, 0
0, 0
0, 0
0, 0
0, 0
0, 0
0, 0
0, 0
0, 0
0, 0
0, 0
0, 0
0, 0
0, 0
0, 0
0, 0
0, 0
0, 0
0, 0
0, 0
0, 0
0, 0
0, 0
0, 0
0, 0
0, 0
0, 0
0, 0
0, 0
0, 0
0, 0
0, 0
0, 0
0, 0
0, 0
0, 0
0, 0
0, 0
0, 0
0, 0
0, 0
0, 0
0, 0
0, 0
0, 0
0, 0
0, 0
0, 0
0, 0
0, 0
0, 0
0, 0
0, 0
0, 0
#ENDOFDATA     end of spectrum data

File: ps__0257_0689790785_000rfs_shot_3138.msa
#FORMAT      : EMSA/MAS spectral data file
#VERSION     : TC202v2.0 PIXL
#TITLE       : N/A
#DATE        :       Date in the format DD-MMM-YYYY, for example 07-JUL-2010
#TIME        :             The time of day at which the spectrum was recorded, in 24-hour format
#OWNER       : PIXL Flight Model       (PIXL will use this to indicate which instrument took the data.)
#NPOINTS     : 4096     Number of data points in the spectrum (This can be zero for configuration only files)
#NCOLUMNS    : 2     Number of data columns in the spectrum (This can be zero for configuration only files)
#XUNITS      : eV
#YUNITS      : COUNTS
#DATATYPE    : YY
#XPERCHAN    : 7.862, 7.881   eV per channel (separate by commas if more than one detector)
#OFFSET      : 18.5, -22.4         eV of first channel  (separate by commas if more than one detector
#SIGNALTYPE  : XRF
#YP_TEMP     : 2.813
#LIVETIME    : 9.13958, 9.14265   seconds (separate by commas if more than one detector)
#REALTIME    : 10, 10.0   seconds (separate by commas if more than one detector)
#SPECTRUM    : start of spectrum data
0, 0
0, 0
0, 0
0, 0
0, 0
0, 0
0, 0
1, 0
1, 0
3, 3
1, 1
30, 16
34, 38
8, 6
14, 12
141, 112
842, 758
173, 134
15, 11
5, 4
3, 1
7, 9
1, 3
23, 14
65, 57
55, 38
40, 34
27, 19
8, 8
4, 2
4, 8
6, 4
37, 23
550, 592
936, 813
102, 70
90, 94
126, 109
11, 8
5, 5
13, 12
30, 30
20, 11
7, 9
6, 2
14, 12
7, 8
3, 6
9, 13
53, 51
25, 30
5, 6
7, 6
27, 39
55, 72
12, 21
14, 19
223, 265
1261, 1233
858, 640
57, 38
8, 7
10, 14
52, 57
182, 207
115, 102
15, 16
35, 8
31, 6
9, 3
2, 3
8, 7
7, 4
1, 1
9, 6
9, 4
16, 10
8, 7
11, 6
2, 2
8, 4
7, 5
4, 7
4, 9
3, 9
7, 7
7, 5
7, 5
4, 0
5, 7
5, 4
3, 4
5, 3
4, 4
3, 1
3, 2
6, 1
5, 1
2, 6
2, 5
3, 3
0, 3
6, 3
2, 4
5, 1
4, 3
0, 5
3, 1
2, 4
1, 3
2, 4
1, 0
1, 2
2, 2
2, 2
2, 2
3, 1
2, 3
2, 2
1, 1
1, 0
1, 1
0, 0
2, 1
1, 1
5, 3
1, 0
1, 3
3, 3
0, 1
1, 2
2, 1
1, 0
1, 1
2, 2
1, 1
1, 2
0, 1
0, 1
0, 0
0, 0
1, 1
0, 0
1, 1
1, 2
1, 0
1, 1
3, 0
0, 0
0, 0
0, 0
0, 1
0, 1
0, 0
0, 0
0, 0
0, 0
1, 0
0, 0
0, 0
0, 0
1, 0
0, 0
1, 0
2, 0
0, 1
0, 1
0, 2
0, 2
0, 0
1, 0
1, 0
1, 0
0, 0
0, 0
0, 0
1, 0
0, 0
0, 0
0, 0
0, 0
0, 0
0, 0
0, 0
0, 0
0, 0
0, 0
1, 0
0, 0
0, 0
0, 0
0, 0
0, 0
0, 0
0, 0
0, 0
0, 0
0, 0
0, 0
0, 0
0, 0
0, 0
0, 0
0, 0
0, 0
0, 0
0, 0
0, 0
0, 0
0, 0
0, 0
0, 0
0, 0
0, 0
0, 0
0, 0
0, 0
0, 0
0, 0
0, 0
0, 0
0, 0
0, 0
0, 0
0, 0
0, 0
0, 0
0, 0
0, 0
0, 0
0, 0
0, 0
0, 0
0, 0
0, 0
0, 0
0, 0
0, 0
0, 0
0, 0
0, 0
0, 0
0, 0
0, 0
0, 0
0, 0
0, 0
0, 0
0, 0
0, 0
0, 0
0, 0
0, 0
0, 0
0, 0
0, 0
0, 0
0, 0
0, 0
0, 0
0, 0
0, 0
0, 0
0, 0
0, 0
0, 0
0, 0
0, 0
0, 0
0, 0
0, 0
0, 0
0, 0
0, 0
0, 0
0, 0
0, 0
0, 0
0, 0
0, 0
0, 0
0, 0
0, 0
0, 0
0, 0
0, 0
0, 0
0, 0
0, 0
0, 0
0, 0
0, 0
0, 0
0, 0
#ENDOFDATA     end of spectrum data

File: ps__0257_0689790785_000rfs_shot_3139.msa
#FORMAT      : EMSA/MAS spectral data file
#VERSION     : TC202v2.0 PIXL
#TITLE       : N/A
#DATE        :       Date in the format DD-MMM-YYYY, for example 07-JUL-2010
#TIME        :             The time of day at which the spectrum was recorded, in 24-hour format
#OWNER       : PIXL Flight Model       (PIXL will use this to indicate which instrument took the data.)
#NPOINTS     : 4096     Number of data points in the spectrum (This can be zero for configuration only files)
#NCOLUMNS    : 2     Number of data columns in the spectrum (This can be zero for configuration only files)
#XUNITS      : eV
#YUNITS      : COUNTS
#DATATYPE    : YY
#XPERCHAN    : 7.862, 7.881   eV per channel (separate by commas if more than one detector)
#OFFSET      : 18.5, -22.4         eV of first channel  (separate by commas if more than one detector
#SIGNALTYPE  : XRF
#YP_TEMP     : 2.813
#LIVETIME    : 9.12106, 9.12646   seconds (separate by commas if more than one detector)
#REALTIME    : 10, 10.0   seconds (separate by commas if more than one detector)
#SPECTRUM    : start of spectrum data
0, 0
0, 0
0, 0
0, 0
0, 0
0, 0
0, 0
0, 0
1, 1
4, 1
6, 3
33, 27
31, 25
9, 3
20, 6
118, 100
742, 671
128, 101
14, 17
6, 6
6, 3
19, 26
11, 8
19, 11
50, 48
52, 58
39, 25
22, 29
9, 10
1, 8
9, 6
8, 2
20, 20
480, 492
791, 709
79, 71
97, 85
145, 107
20, 9
9, 7
15, 12
27, 34
22, 20
10, 11
7, 4
14, 15
9, 13
8, 5
12, 19
52, 35
30, 26
8, 5
7, 10
51, 50
54, 75
26, 20
21, 25
303, 334
1539, 1508
954, 786
74, 59
12, 12
14, 12
70, 64
242, 253
132, 115
24, 19
18, 3
15, 11
12, 8
3, 9
6, 10
7, 2
7, 7
11, 3
10, 4
8, 7
4, 4
2, 7
6, 6
4, 9
6, 6
7, 8
2, 6
7, 1
10, 6
12, 6
5, 8
3, 4
8, 3
1, 2
2, 8
4, 3
5, 2
3, 6
6, 4
4, 3
6, 2
2, 2
3, 4
2, 1
5, 3
2, 2
7, 2
3, 3
2, 2
1, 5
0, 8
1, 1
3, 3
0, 1
1, 4
2, 1
3, 1
3, 4
3, 1
2, 10
1, 1
3, 1
2, 5
3, 1
0, 1
1, 6
3, 2
2, 0
2, 1
2, 0
3, 0
1, 2
0, 0
3, 1
1, 0
1, 2
1, 3
0, 1
0, 1
2, 2
1, 0
1, 0
1, 2
0, 0
1, 0
0, 0
1, 1
1, 0
1, 0
0, 1
1, 0
0, 0
0, 0
0, 0
1, 0
0, 0
2, 0
0, 1
1, 1
0, 0
1, 0
1, 0
0, 0
0, 0
0, 1
1, 0
0, 0
0, 0
1, 0
0, 0
0, 0
0, 1
0, 0
1, 0
0, 2
0, 1
2, 0
2, 0
0, 0
0, 0
0, 0
0, 0
0, 0
1, 0
0, 0
0, 1
0, 0
0, 0
0, 0
0, 0
0, 0
0, 0
0, 0
0, 0
0, 0
0, 0
0, 0
0, 0
0, 0
0, 0
0, 0
0, 0
0, 0
0, 0
0, 0
0, 0
0, 0
0, 0
0, 0
0, 0
0, 0
2, 0
0, 0
0, 0
0, 0
0, 0
0, 0
0, 0
0, 0
0, 0
0, 0
0, 0
0, 0
0, 0
0, 0
0, 0
0, 0
0, 0
0, 0
0, 0
0, 0
0, 0
0, 0
0, 0
0, 0
0, 0
0, 0
0, 0
0, 0
0, 0
0, 0
0, 0
0, 0
0, 0
0, 0
0, 0
0, 0
0, 0
0, 0
0, 0
0, 0
0, 0
0, 0
0, 0
0, 0
0, 0
0, 0
0, 0
0, 0
0, 0
0, 0
0, 0
0, 0
0, 0
0, 0
0, 0
0, 0
0, 0
0, 0
0, 0
0, 0
0, 0
0, 0
0, 0
0, 0
0, 0
0, 0
0, 0
0, 0
0, 0
0, 0
0, 0
0, 0
0, 0
0, 0
0, 0
0, 0
0, 0
0, 0
0, 0
0, 0
0, 0
0, 0
0, 0
0, 0
0, 0
0, 0
#ENDOFDATA     end of spectrum data