Folder: data-repository/host_upload/12-01-2023/Dourbes (shot-by-shot)/upload_4 (part 4)

File: ps__0257_0689790785_000rfs_shot_3048.msa
#FORMAT      : EMSA/MAS spectral data file
#VERSION     : TC202v2.0 PIXL
#TITLE       : N/A
#DATE        :       Date in the format DD-MMM-YYYY, for example 07-JUL-2010
#TIME        :             The time of day at which the spectrum was recorded, in 24-hour format
#OWNER       : PIXL Flight Model       (PIXL will use this to indicate which instrument took the data.)
#NPOINTS     : 4096     Number of data points in the spectrum (This can be zero for configuration only files)
#NCOLUMNS    : 2     Number of data columns in the spectrum (This can be zero for configuration only files)
#XUNITS      : eV
#YUNITS      : COUNTS
#DATATYPE    : YY
#XPERCHAN    : 7.862, 7.881   eV per channel (separate by commas if more than one detector)
#OFFSET      : 18.5, -22.4         eV of first channel  (separate by commas if more than one detector
#SIGNALTYPE  : XRF
#YP_TEMP     : 2.909
#LIVETIME    : 9.10234, 9.07203   seconds (separate by commas if more than one detector)
#REALTIME    : 10, 10.0   seconds (separate by commas if more than one detector)
#SPECTRUM    : start of spectrum data
0, 0
0, 0
0, 0
0, 0
0, 0
0, 0
0, 0
1, 0
1, 4
2, 4
2, 2
31, 14
30, 29
4, 1
2, 11
90, 90
572, 575
92, 104
7, 4
3, 0
17, 16
82, 105
25, 24
41, 20
154, 153
155, 139
44, 57
27, 36
9, 14
3, 3
3, 10
3, 7
4, 8
69, 88
89, 119
18, 20
16, 12
15, 21
5, 13
11, 6
14, 12
13, 24
23, 25
15, 26
9, 12
16, 17
14, 15
11, 14
9, 9
11, 16
7, 8
15, 12
12, 15
52, 67
91, 98
23, 28
25, 32
363, 535
2033, 2670
1311, 1423
109, 96
20, 16
26, 36
92, 115
307, 351
173, 186
11, 22
2, 12
9, 5
6, 7
10, 4
3, 3
7, 2
6, 7
10, 5
6, 3
6, 7
12, 4
7, 6
13, 5
2, 7
2, 6
5, 7
3, 4
7, 0
4, 4
6, 4
9, 4
4, 6
4, 7
2, 5
2, 4
5, 4
9, 9
5, 6
4, 4
4, 5
3, 7
4, 5
3, 4
7, 2
4, 4
3, 3
0, 3
4, 4
2, 3
2, 2
3, 1
4, 3
2, 2
1, 4
4, 1
5, 2
3, 5
2, 3
1, 1
4, 7
1, 2
3, 1
0, 4
4, 2
6, 2
1, 2
1, 2
0, 2
2, 4
0, 2
0, 2
1, 0
1, 0
0, 1
3, 1
1, 1
4, 0
0, 2
0, 0
2, 2
1, 1
1, 0
0, 1
1, 1
0, 0
1, 1
0, 2
0, 3
1, 1
1, 0
1, 0
0, 1
0, 0
0, 0
1, 0
1, 0
0, 0
0, 0
0, 0
0, 0
0, 0
0, 0
0, 0
0, 0
0, 0
0, 1
1, 0
0, 1
0, 1
0, 0
0, 1
0, 0
1, 0
0, 1
0, 0
0, 1
0, 0
0, 0
0, 0
0, 0
0, 0
0, 0
0, 0
1, 0
0, 0
0, 2
0, 0
0, 1
0, 0
0, 0
0, 0
0, 0
1, 1
0, 0
0, 0
0, 0
0, 0
0, 0
0, 0
0, 0
0, 0
0, 0
0, 1
0, 0
0, 0
0, 0
0, 0
0, 0
0, 0
0, 0
0, 0
0, 0
0, 0
0, 0
0, 0
0, 0
0, 0
0, 0
0, 0
0, 0
0, 0
0, 0
0, 0
0, 0
0, 0
0, 0
0, 0
0, 0
0, 0
0, 0
0, 0
0, 0
0, 0
0, 0
0, 0
0, 0
0, 0
0, 0
0, 0
0, 0
0, 0
0, 0
0, 0
0, 0
0, 0
0, 0
0, 0
0, 0
0, 0
0, 0
0, 0
0, 0
0, 0
0, 0
0, 0
0, 0
0, 0
0, 0
0, 0
0, 0
0, 0
0, 0
0, 0
0, 0
0, 0
0, 0
0, 0
0, 0
0, 0
0, 0
0, 0
0, 0
0, 0
0, 0
0, 0
0, 0
0, 0
0, 0
0, 0
0, 0
0, 0
0, 0
0, 0
0, 0
0, 0
0, 0
0, 0
0, 0
0, 0
0, 0
0, 0
0, 0
0, 0
0, 0
0, 0
0, 0
0, 0
#ENDOFDATA     end of spectrum data

File: ps__0257_0689790785_000rfs_shot_3050.msa
#FORMAT      : EMSA/MAS spectral data file
#VERSION     : TC202v2.0 PIXL
#TITLE       : N/A
#DATE        :       Date in the format DD-MMM-YYYY, for example 07-JUL-2010
#TIME        :             The time of day at which the spectrum was recorded, in 24-hour format
#OWNER       : PIXL Flight Model       (PIXL will use this to indicate which instrument took the data.)
#NPOINTS     : 4096     Number of data points in the spectrum (This can be zero for configuration only files)
#NCOLUMNS    : 2     Number of data columns in the spectrum (This can be zero for configuration only files)
#XUNITS      : eV
#YUNITS      : COUNTS
#DATATYPE    : YY
#XPERCHAN    : 7.862, 7.881   eV per channel (separate by commas if more than one detector)
#OFFSET      : 18.5, -22.4         eV of first channel  (separate by commas if more than one detector
#SIGNALTYPE  : XRF
#YP_TEMP     : 2.877
#LIVETIME    : 8.9301, 8.98782   seconds (separate by commas if more than one detector)
#REALTIME    : 10, 10.0   seconds (separate by commas if more than one detector)
#SPECTRUM    : start of spectrum data
0, 0
0, 0
0, 0
0, 0
0, 0
0, 0
0, 0
0, 1
6, 2
28, 4
6, 1
35, 25
40, 29
4, 3
9, 2
87, 77
534, 504
101, 92
6, 3
3, 3
14, 17
72, 75
29, 29
48, 22
1177, 125
1802, 129
152, 33
22, 15
8, 10
5, 4
4, 11
6, 2
7, 7
55, 41
76, 83
7, 8
7, 12
11, 12
11, 11
4, 4
8, 10
20, 22
22, 71
16, 48
12, 10
5, 12
10, 10
11, 9
16, 17
10, 9
16, 9
12, 8
16, 17
71, 66
102, 101
21, 32
32, 35
578, 726
3230, 3567
2195, 1860
180, 122
43, 26
69, 34
150, 163
471, 519
287, 245
29, 16
8, 6
9, 3
2, 5
3, 7
2, 10
3, 7
6, 5
4, 3
4, 6
6, 0
5, 2
4, 4
6, 5
6, 2
5, 4
9, 3
9, 6
6, 4
6, 6
4, 6
1, 3
2, 9
2, 4
3, 2
1, 0
3, 7
3, 3
3, 4
1, 1
0, 3
6, 0
13, 2
6, 1
1, 3
3, 2
1, 1
3, 3
0, 3
4, 5
0, 0
5, 1
1, 1
3, 2
2, 0
3, 0
1, 0
0, 0
1, 2
5, 6
7, 5
2, 4
3, 0
2, 1
1, 0
1, 5
1, 2
2, 4
0, 2
1, 2
0, 1
0, 1
0, 0
1, 2
0, 0
0, 2
2, 2
1, 1
0, 0
0, 0
1, 0
1, 0
0, 0
1, 1
0, 1
0, 0
1, 1
1, 0
0, 1
0, 0
2, 0
0, 1
0, 1
0, 0
2, 0
1, 0
0, 0
0, 0
0, 1
0, 0
0, 0
1, 1
1, 0
0, 0
0, 0
0, 1
3, 0
0, 0
0, 0
0, 0
0, 1
0, 0
0, 0
0, 1
0, 0
0, 1
0, 0
0, 0
1, 1
0, 0
0, 0
0, 0
0, 0
0, 0
0, 0
0, 0
0, 0
0, 0
0, 0
1, 0
0, 0
0, 0
0, 0
0, 0
0, 0
0, 0
0, 0
0, 0
0, 0
0, 0
0, 0
0, 0
0, 0
0, 0
0, 0
0, 0
0, 0
0, 0
0, 0
0, 0
0, 0
0, 0
0, 0
0, 0
0, 0
0, 0
0, 0
0, 0
0, 0
0, 0
0, 0
0, 0
0, 0
0, 0
0, 0
0, 0
0, 0
0, 0
0, 0
0, 0
0, 0
0, 0
0, 0
0, 0
0, 0
0, 0
0, 0
0, 0
0, 0
0, 0
0, 0
0, 0
0, 0
0, 0
0, 0
0, 0
0, 0
0, 0
0, 0
0, 0
0, 0
0, 0
0, 0
0, 0
0, 0
0, 0
1, 0
0, 0
0, 0
0, 0
0, 0
0, 0
0, 0
0, 0
0, 0
0, 0
0, 0
0, 0
0, 0
0, 0
0, 0
0, 0
0, 0
0, 0
0, 0
0, 0
0, 0
0, 0
0, 0
0, 0
0, 0
0, 0
0, 0
0, 0
0, 0
0, 0
0, 0
0, 0
0, 0
0, 0
0, 0
0, 0
0, 0
0, 0
0, 0
0, 0
0, 0
0, 0
#ENDOFDATA     end of spectrum data

File: ps__0257_0689790785_000rfs_shot_3051.msa
#FORMAT      : EMSA/MAS spectral data file
#VERSION     : TC202v2.0 PIXL
#TITLE       : N/A
#DATE        :       Date in the format DD-MMM-YYYY, for example 07-JUL-2010
#TIME        :             The time of day at which the spectrum was recorded, in 24-hour format
#OWNER       : PIXL Flight Model       (PIXL will use this to indicate which instrument took the data.)
#NPOINTS     : 4096     Number of data points in the spectrum (This can be zero for configuration only files)
#NCOLUMNS    : 2     Number of data columns in the spectrum (This can be zero for configuration only files)
#XUNITS      : eV
#YUNITS      : COUNTS
#DATATYPE    : YY
#XPERCHAN    : 7.862, 7.881   eV per channel (separate by commas if more than one detector)
#OFFSET      : 18.5, -22.4         eV of first channel  (separate by commas if more than one detector
#SIGNALTYPE  : XRF
#YP_TEMP     : 3.069
#LIVETIME    : 8.97167, 9.00476   seconds (separate by commas if more than one detector)
#REALTIME    : 10, 10.0   seconds (separate by commas if more than one detector)
#SPECTRUM    : start of spectrum data
0, 0
0, 0
0, 0
0, 0
0, 0
0, 0
0, 0
0, 0
9, 1
14, 5
6, 4
36, 22
30, 26
5, 2
7, 3
79, 71
449, 487
94, 74
5, 8
5, 1
20, 15
93, 126
27, 39
32, 22
762, 149
1163, 141
120, 56
19, 16
6, 3
4, 7
3, 3
2, 0
5, 7
67, 73
100, 114
14, 11
29, 12
17, 17
8, 4
7, 8
9, 12
16, 24
26, 82
20, 47
10, 10
8, 9
11, 10
6, 12
10, 9
17, 11
10, 10
10, 14
17, 11
60, 55
90, 82
29, 38
24, 39
555, 732
3175, 3494
2026, 1769
174, 115
43, 22
60, 33
127, 154
467, 526
306, 250
25, 27
9, 4
11, 7
5, 7
3, 2
6, 12
3, 7
3, 6
3, 6
6, 4
5, 6
3, 6
2, 7
8, 4
3, 11
5, 4
8, 6
9, 9
5, 14
7, 13
5, 6
3, 2
8, 6
2, 2
3, 0
1, 5
3, 0
4, 2
2, 0
4, 0
1, 5
4, 2
4, 2
10, 3
7, 2
1, 6
3, 3
2, 0
4, 3
1, 0
3, 1
1, 0
3, 1
1, 3
2, 2
2, 1
0, 4
1, 3
2, 2
4, 5
2, 1
4, 3
1, 0
1, 0
0, 1
3, 3
4, 2
0, 1
3, 3
0, 0
0, 0
1, 1
1, 1
0, 0
0, 1
0, 0
1, 0
0, 0
0, 0
3, 0
2, 0
0, 0
0, 2
1, 0
0, 0
0, 1
1, 0
0, 0
0, 1
0, 0
0, 0
2, 1
0, 1
1, 1
0, 0
0, 1
0, 1
0, 0
0, 0
0, 0
0, 0
0, 0
1, 0
0, 0
1, 0
0, 0
1, 1
0, 2
0, 1
0, 0
0, 0
0, 0
0, 0
0, 0
0, 0
0, 0
0, 0
0, 0
0, 0
0, 0
0, 1
0, 0
0, 0
0, 0
0, 0
0, 0
0, 1
1, 0
1, 0
0, 0
0, 0
0, 0
0, 0
0, 0
0, 0
1, 0
0, 0
0, 0
0, 0
0, 0
0, 0
0, 0
0, 0
0, 0
0, 0
0, 0
0, 0
0, 0
0, 1
0, 0
0, 0
0, 0
0, 0
0, 0
0, 0
0, 0
0, 0
0, 0
0, 0
0, 0
0, 0
0, 0
0, 0
0, 0
0, 0
0, 0
0, 0
0, 0
0, 0
0, 0
0, 0
0, 0
0, 0
0, 0
0, 0
0, 0
0, 0
0, 0
0, 0
0, 0
0, 0
0, 0
0, 0
0, 0
0, 0
0, 0
0, 0
0, 0
0, 0
0, 0
0, 0
0, 0
0, 0
0, 0
0, 0
0, 0
0, 0
0, 0
0, 0
0, 0
0, 0
0, 0
0, 0
0, 0
0, 0
0, 0
0, 0
0, 0
0, 0
0, 0
0, 0
0, 0
0, 0
0, 0
0, 0
0, 0
0, 0
0, 0
0, 0
0, 0
0, 0
0, 0
0, 0
0, 0
0, 0
0, 0
0, 0
0, 0
0, 0
0, 0
0, 0
0, 0
0, 0
0, 0
0, 0
0, 0
0, 0
0, 0
#ENDOFDATA     end of spectrum data

File: ps__0257_0689790785_000rfs_shot_3053.msa
#FORMAT      : EMSA/MAS spectral data file
#VERSION     : TC202v2.0 PIXL
#TITLE       : N/A
#DATE        :       Date in the format DD-MMM-YYYY, for example 07-JUL-2010
#TIME        :             The time of day at which the spectrum was recorded, in 24-hour format
#OWNER       : PIXL Flight Model       (PIXL will use this to indicate which instrument took the data.)
#NPOINTS     : 4096     Number of data points in the spectrum (This can be zero for configuration only files)
#NCOLUMNS    : 2     Number of data columns in the spectrum (This can be zero for configuration only files)
#XUNITS      : eV
#YUNITS      : COUNTS
#DATATYPE    : YY
#XPERCHAN    : 7.862, 7.881   eV per channel (separate by commas if more than one detector)
#OFFSET      : 18.5, -22.4         eV of first channel  (separate by commas if more than one detector
#SIGNALTYPE  : XRF
#YP_TEMP     : 2.973
#LIVETIME    : 8.89554, 8.9707   seconds (separate by commas if more than one detector)
#REALTIME    : 10, 10.0   seconds (separate by commas if more than one detector)
#SPECTRUM    : start of spectrum data
0, 0
0, 0
0, 0
0, 0
0, 0
0, 0
0, 0
1, 0
9, 0
35, 2
10, 2
24, 25
32, 32
5, 2
9, 9
88, 89
566, 569
86, 96
6, 9
2, 0
14, 15
98, 105
46, 29
65, 37
1677, 131
2664, 89
207, 36
14, 20
6, 4
1, 11
5, 4
6, 5
3, 2
37, 35
49, 57
5, 9
8, 7
9, 12
7, 9
4, 9
10, 5
11, 31
12, 83
16, 53
5, 7
4, 10
11, 9
10, 12
10, 19
17, 16
16, 7
12, 16
13, 8
53, 69
95, 102
32, 36
28, 45
582, 787
3312, 3756
2075, 1888
208, 126
60, 18
76, 24
150, 160
483, 534
317, 243
27, 27
6, 2
7, 5
6, 4
3, 6
1, 7
2, 10
3, 2
6, 3
4, 7
4, 6
5, 1
5, 5
5, 5
5, 6
2, 2
8, 3
18, 3
3, 11
5, 6
7, 5
5, 7
5, 4
4, 2
1, 1
2, 4
3, 4
1, 3
2, 2
0, 1
1, 3
5, 1
7, 1
5, 1
5, 3
1, 1
3, 2
4, 1
1, 4
0, 2
0, 3
3, 2
1, 2
2, 1
4, 4
2, 2
2, 3
2, 1
0, 4
1, 3
4, 8
5, 3
2, 0
2, 1
0, 0
1, 2
4, 6
1, 1
0, 2
0, 1
0, 0
2, 1
0, 1
1, 4
0, 0
0, 2
0, 1
1, 1
1, 0
1, 0
0, 1
0, 0
1, 1
1, 0
1, 0
0, 0
0, 1
0, 1
0, 0
0, 1
1, 0
0, 0
0, 0
0, 0
0, 0
0, 1
0, 0
0, 0
2, 0
0, 0
0, 0
0, 0
0, 1
0, 0
0, 0
0, 1
0, 0
0, 0
0, 0
1, 0
0, 0
0, 0
0, 0
0, 0
0, 0
0, 0
0, 0
0, 0
0, 0
0, 0
1, 0
0, 0
0, 0
0, 0
0, 0
0, 0
0, 1
0, 0
1, 1
2, 0
0, 0
0, 0
0, 0
0, 0
0, 0
0, 0
0, 0
0, 0
0, 0
0, 0
0, 0
0, 0
0, 0
0, 0
0, 0
0, 0
0, 0
0, 0
0, 0
0, 0
0, 0
0, 0
0, 0
0, 0
0, 0
0, 0
0, 0
0, 0
0, 0
0, 0
0, 0
0, 0
0, 0
0, 0
0, 0
0, 0
0, 0
0, 0
0, 0
0, 0
0, 0
0, 0
0, 0
0, 0
0, 0
0, 0
0, 0
0, 0
0, 0
0, 0
0, 0
0, 0
0, 0
0, 0
0, 0
0, 0
0, 0
0, 0
0, 0
0, 0
0, 0
0, 0
0, 0
0, 0
0, 0
0, 0
0, 0
0, 0
0, 0
0, 0
0, 0
0, 0
0, 0
0, 0
0, 0
0, 0
0, 0
0, 0
0, 0
0, 0
0, 0
0, 0
0, 0
0, 0
0, 0
0, 0
0, 0
0, 0
0, 0
0, 0
0, 0
0, 0
0, 0
0, 0
0, 0
0, 0
0, 0
0, 0
0, 0
0, 0
0, 0
0, 0
0, 0
0, 0
0, 0
0, 0
0, 0
0, 0
#ENDOFDATA     end of spectrum data

File: ps__0257_0689790785_000rfs_shot_3054.msa
#FORMAT      : EMSA/MAS spectral data file
#VERSION     : TC202v2.0 PIXL
#TITLE       : N/A
#DATE        :       Date in the format DD-MMM-YYYY, for example 07-JUL-2010
#TIME        :             The time of day at which the spectrum was recorded, in 24-hour format
#OWNER       : PIXL Flight Model       (PIXL will use this to indicate which instrument took the data.)
#NPOINTS     : 4096     Number of data points in the spectrum (This can be zero for configuration only files)
#NCOLUMNS    : 2     Number of data columns in the spectrum (This can be zero for configuration only files)
#XUNITS      : eV
#YUNITS      : COUNTS
#DATATYPE    : YY
#XPERCHAN    : 7.862, 7.881   eV per channel (separate by commas if more than one detector)
#OFFSET      : 18.5, -22.4         eV of first channel  (separate by commas if more than one detector
#SIGNALTYPE  : XRF
#YP_TEMP     : 3.165
#LIVETIME    : 8.78471, 8.94541   seconds (separate by commas if more than one detector)
#REALTIME    : 10, 10.0   seconds (separate by commas if more than one detector)
#SPECTRUM    : start of spectrum data
0, 0
0, 0
0, 0
0, 0
0, 0
0, 0
0, 0
0, 0
19, 3
89, 3
14, 1
33, 27
42, 36
9, 1
9, 3
66, 78
399, 420
82, 66
8, 6
5, 3
24, 22
164, 172
58, 37
126, 20
2984, 130
5321, 121
373, 36
16, 22
7, 6
3, 3
5, 3
4, 4
4, 6
28, 29
42, 40
5, 2
8, 4
7, 6
6, 6
5, 6
11, 8
11, 36
30, 103
11, 52
9, 5
5, 8
5, 6
11, 4
6, 8
34, 9
12, 10
14, 14
8, 13
45, 72
82, 94
30, 30
37, 37
600, 768
3421, 3711
2241, 1891
198, 126
47, 18
87, 30
132, 156
517, 546
287, 255
28, 15
7, 2
6, 6
3, 5
1, 6
5, 16
1, 8
6, 6
5, 2
2, 3
3, 0
3, 2
3, 1
3, 3
5, 6
2, 5
17, 2
20, 3
3, 12
4, 8
5, 8
4, 3
3, 4
3, 2
3, 2
0, 2
0, 2
0, 2
2, 1
3, 1
1, 0
6, 0
7, 0
17, 2
4, 2
1, 2
2, 2
2, 0
3, 1
2, 0
3, 0
0, 1
5, 0
2, 2
4, 0
4, 1
2, 1
1, 2
2, 1
5, 7
7, 7
5, 3
2, 2
4, 0
1, 1
3, 2
4, 5
2, 0
1, 0
1, 2
1, 0
0, 0
2, 1
2, 0
0, 1
0, 0
1, 1
1, 0
0, 2
2, 1
0, 0
0, 0
0, 0
0, 1
0, 1
0, 0
0, 1
1, 0
0, 2
1, 0
0, 0
0, 0
0, 0
0, 0
0, 0
0, 1
2, 0
0, 0
0, 1
0, 0
0, 1
0, 0
0, 0
1, 0
0, 0
0, 0
0, 1
0, 0
0, 0
0, 1
0, 1
1, 1
0, 0
1, 1
2, 0
0, 1
0, 0
0, 0
0, 1
0, 0
0, 0
0, 0
0, 0
1, 0
0, 0
0, 0
0, 0
0, 0
1, 0
1, 0
0, 0
0, 0
1, 0
0, 0
0, 0
0, 0
0, 0
0, 0
0, 0
0, 0
0, 0
0, 0
0, 0
0, 0
0, 0
0, 1
0, 0
0, 0
0, 0
0, 0
0, 0
0, 0
0, 0
0, 0
0, 0
0, 0
0, 0
0, 0
0, 0
0, 0
0, 0
0, 0
0, 0
0, 0
0, 0
0, 0
0, 0
0, 0
0, 0
0, 0
0, 0
0, 0
0, 0
0, 0
0, 0
0, 0
0, 0
0, 0
0, 0
0, 0
0, 0
0, 0
0, 0
0, 0
0, 0
0, 0
0, 0
0, 0
0, 0
0, 0
0, 0
0, 0
0, 0
0, 0
0, 0
0, 0
0, 0
0, 0
0, 0
0, 0
0, 0
0, 0
0, 0
0, 0
0, 0
0, 0
0, 0
0, 0
0, 0
0, 0
0, 0
0, 0
0, 0
0, 0
0, 0
0, 0
0, 0
0, 0
0, 0
0, 0
0, 0
0, 0
0, 0
0, 0
0, 0
0, 0
0, 0
0, 0
0, 0
0, 0
0, 0
0, 0
0, 0
0, 0
0, 0
0, 0
0, 0
0, 0
#ENDOFDATA     end of spectrum data

File: ps__0257_0689790785_000rfs_shot_3056.msa
#FORMAT      : EMSA/MAS spectral data file
#VERSION     : TC202v2.0 PIXL
#TITLE       : N/A
#DATE        :       Date in the format DD-MMM-YYYY, for example 07-JUL-2010
#TIME        :             The time of day at which the spectrum was recorded, in 24-hour format
#OWNER       : PIXL Flight Model       (PIXL will use this to indicate which instrument took the data.)
#NPOINTS     : 4096     Number of data points in the spectrum (This can be zero for configuration only files)
#NCOLUMNS    : 2     Number of data columns in the spectrum (This can be zero for configuration only files)
#XUNITS      : eV
#YUNITS      : COUNTS
#DATATYPE    : YY
#XPERCHAN    : 7.862, 7.881   eV per channel (separate by commas if more than one detector)
#OFFSET      : 18.5, -22.4         eV of first channel  (separate by commas if more than one detector
#SIGNALTYPE  : XRF
#YP_TEMP     : 2.877
#LIVETIME    : 8.98617, 9.02293   seconds (separate by commas if more than one detector)
#REALTIME    : 10, 10.0   seconds (separate by commas if more than one detector)
#SPECTRUM    : start of spectrum data
0, 0
0, 0
0, 0
0, 0
0, 0
0, 0
0, 0
1, 0
8, 7
15, 4
5, 3
22, 24
24, 23
20, 7
24, 25
104, 116
613, 662
127, 106
6, 7
9, 3
10, 11
84, 94
27, 20
53, 30
764, 177
1249, 97
119, 55
16, 24
5, 8
5, 11
11, 24
17, 9
5, 4
45, 58
37, 61
10, 13
13, 9
20, 13
5, 4
7, 9
9, 10
26, 37
25, 56
21, 32
10, 20
15, 9
16, 4
11, 8
11, 11
20, 13
12, 12
8, 9
9, 13
50, 52
71, 67
16, 31
26, 37
530, 654
2967, 3193
1956, 1548
160, 109
58, 14
83, 27
146, 131
441, 467
233, 233
27, 19
10, 7
7, 10
10, 8
4, 7
4, 12
4, 9
4, 5
7, 4
2, 6
6, 4
6, 1
3, 2
2, 9
4, 8
2, 2
5, 7
7, 6
6, 8
5, 7
5, 7
0, 5
5, 3
3, 3
1, 2
0, 1
2, 3
3, 1
5, 0
2, 3
1, 5
9, 2
7, 5
4, 2
6, 6
2, 1
1, 3
3, 2
3, 1
0, 2
4, 2
2, 2
1, 4
1, 1
4, 0
1, 2
3, 3
0, 2
2, 4
2, 3
6, 8
2, 6
1, 4
1, 1
0, 0
1, 1
2, 4
1, 1
0, 0
0, 0
1, 2
0, 1
1, 0
0, 0
2, 0
0, 0
0, 0
1, 1
0, 0
1, 0
1, 0
0, 1
1, 2
0, 0
2, 0
2, 1
0, 0
0, 0
0, 0
1, 1
0, 1
0, 0
0, 0
3, 0
0, 0
0, 0
1, 0
0, 1
0, 0
0, 0
0, 0
0, 0
0, 0
1, 0
0, 0
0, 0
1, 1
0, 0
0, 0
0, 0
0, 0
0, 0
0, 0
1, 0
0, 0
0, 0
0, 0
0, 0
0, 0
0, 0
1, 0
0, 0
0, 0
0, 0
1, 0
0, 0
0, 1
0, 0
0, 0
0, 0
0, 0
0, 0
0, 0
0, 0
0, 0
0, 0
0, 0
0, 0
1, 0
0, 0
0, 0
1, 0
0, 0
0, 0
0, 0
0, 0
0, 0
0, 0
0, 0
0, 0
0, 0
0, 0
0, 0
0, 0
0, 0
0, 0
0, 0
0, 0
1, 0
0, 0
0, 0
0, 0
0, 0
0, 0
0, 0
0, 0
0, 0
0, 0
0, 0
0, 0
0, 0
0, 0
0, 0
0, 0
0, 0
0, 0
0, 0
0, 0
0, 0
0, 0
0, 0
0, 0
0, 0
0, 0
0, 0
0, 0
0, 0
0, 0
0, 0
0, 0
0, 0
0, 0
0, 0
0, 0
0, 0
0, 0
0, 0
0, 0
0, 0
0, 0
0, 0
0, 0
0, 0
0, 0
0, 0
0, 0
0, 0
0, 0
0, 0
0, 0
0, 0
0, 0
0, 0
0, 0
0, 0
0, 0
0, 0
0, 0
0, 0
0, 0
0, 0
0, 0
0, 0
0, 0
0, 0
0, 0
0, 0
0, 0
0, 0
0, 0
0, 0
0, 0
0, 0
0, 0
0, 0
0, 0
0, 0
0, 0
#ENDOFDATA     end of spectrum data

File: ps__0257_0689790785_000rfs_shot_3058.msa
#FORMAT      : EMSA/MAS spectral data file
#VERSION     : TC202v2.0 PIXL
#TITLE       : N/A
#DATE        :       Date in the format DD-MMM-YYYY, for example 07-JUL-2010
#TIME        :             The time of day at which the spectrum was recorded, in 24-hour format
#OWNER       : PIXL Flight Model       (PIXL will use this to indicate which instrument took the data.)
#NPOINTS     : 4096     Number of data points in the spectrum (This can be zero for configuration only files)
#NCOLUMNS    : 2     Number of data columns in the spectrum (This can be zero for configuration only files)
#XUNITS      : eV
#YUNITS      : COUNTS
#DATATYPE    : YY
#XPERCHAN    : 7.862, 7.881   eV per channel (separate by commas if more than one detector)
#OFFSET      : 18.5, -22.4         eV of first channel  (separate by commas if more than one detector
#SIGNALTYPE  : XRF
#YP_TEMP     : 2.909
#LIVETIME    : 9.12887, 9.12029   seconds (separate by commas if more than one detector)
#REALTIME    : 10, 10.0   seconds (separate by commas if more than one detector)
#SPECTRUM    : start of spectrum data
0, 0
0, 0
0, 0
0, 0
0, 0
0, 0
0, 0
1, 0
1, 2
1, 0
2, 4
17, 21
24, 36
16, 13
31, 36
101, 120
668, 726
111, 129
34, 49
29, 28
16, 16
80, 78
27, 20
27, 38
158, 125
106, 83
40, 40
18, 18
13, 8
8, 12
41, 63
34, 30
14, 9
115, 135
165, 167
28, 34
17, 27
15, 20
14, 4
9, 13
6, 13
17, 17
11, 25
7, 18
4, 26
7, 32
6, 18
16, 15
15, 11
18, 13
11, 3
9, 9
10, 21
27, 46
47, 49
17, 20
29, 19
306, 449
1685, 2075
1015, 1100
90, 85
20, 18
18, 19
82, 94
296, 319
147, 154
14, 20
5, 9
12, 10
4, 5
3, 9
8, 7
6, 4
7, 5
5, 5
4, 6
11, 9
6, 8
11, 9
6, 4
6, 14
7, 6
6, 7
5, 6
6, 1
7, 4
5, 4
8, 7
0, 5
7, 6
4, 5
5, 13
3, 8
2, 5
3, 3
2, 4
3, 3
3, 4
1, 4
5, 3
3, 5
0, 1
1, 4
1, 1
2, 1
2, 2
3, 5
3, 2
1, 5
2, 2
3, 1
0, 0
2, 3
3, 0
1, 3
3, 8
3, 1
4, 4
2, 4
1, 4
1, 2
1, 2
1, 2
4, 1
0, 1
3, 0
0, 1
1, 0
3, 1
0, 3
0, 1
0, 1
1, 4
0, 0
1, 1
1, 0
0, 0
0, 0
0, 1
0, 0
0, 2
0, 2
1, 1
0, 0
0, 0
1, 0
0, 0
1, 4
0, 0
0, 0
0, 1
1, 0
0, 0
0, 1
0, 0
0, 0
0, 1
0, 0
1, 1
0, 0
0, 0
0, 0
0, 0
0, 1
0, 0
0, 0
0, 0
1, 0
1, 0
0, 1
0, 0
0, 1
0, 0
0, 0
0, 0
0, 0
0, 1
0, 0
0, 0
0, 0
0, 0
0, 0
0, 0
0, 0
0, 0
0, 0
0, 0
0, 0
0, 0
0, 0
0, 0
0, 0
0, 0
0, 0
0, 0
0, 0
0, 0
0, 0
0, 0
0, 0
0, 0
0, 0
0, 0
0, 0
0, 0
0, 0
0, 0
0, 0
0, 0
0, 0
0, 0
0, 0
0, 0
0, 0
0, 0
0, 0
1, 0
0, 0
0, 0
0, 0
0, 0
0, 0
0, 0
0, 0
0, 0
0, 0
0, 0
0, 0
0, 0
0, 0
0, 0
0, 0
0, 0
0, 0
0, 0
0, 0
0, 0
0, 0
0, 0
0, 0
0, 0
0, 0
0, 0
0, 0
0, 0
0, 0
0, 0
0, 0
0, 0
0, 0
0, 0
0, 0
0, 0
0, 0
0, 0
0, 0
0, 0
0, 0
0, 0
0, 0
0, 0
0, 0
0, 0
0, 0
0, 0
0, 0
0, 0
0, 0
0, 0
0, 0
0, 0
0, 0
0, 0
0, 0
0, 0
0, 0
0, 0
0, 0
0, 0
0, 0
0, 0
0, 0
0, 0
0, 0
0, 0
0, 0
0, 0
0, 0
0, 0
0, 0
0, 0
0, 0
0, 0
0, 0
#ENDOFDATA     end of spectrum data

File: ps__0257_0689790785_000rfs_shot_3059.msa
#FORMAT      : EMSA/MAS spectral data file
#VERSION     : TC202v2.0 PIXL
#TITLE       : N/A
#DATE        :       Date in the format DD-MMM-YYYY, for example 07-JUL-2010
#TIME        :             The time of day at which the spectrum was recorded, in 24-hour format
#OWNER       : PIXL Flight Model       (PIXL will use this to indicate which instrument took the data.)
#NPOINTS     : 4096     Number of data points in the spectrum (This can be zero for configuration only files)
#NCOLUMNS    : 2     Number of data columns in the spectrum (This can be zero for configuration only files)
#XUNITS      : eV
#YUNITS      : COUNTS
#DATATYPE    : YY
#XPERCHAN    : 7.862, 7.881   eV per channel (separate by commas if more than one detector)
#OFFSET      : 18.5, -22.4         eV of first channel  (separate by commas if more than one detector
#SIGNALTYPE  : XRF
#YP_TEMP     : 3.55
#LIVETIME    : 9.01151, 8.98213   seconds (separate by commas if more than one detector)
#REALTIME    : 10, 10.0   seconds (separate by commas if more than one detector)
#SPECTRUM    : start of spectrum data
0, 0
0, 0
0, 0
0, 0
0, 0
0, 0
0, 0
0, 0
2, 1
1, 1
4, 1
24, 31
32, 35
1, 6
5, 9
87, 85
501, 613
89, 103
15, 4
12, 12
8, 12
108, 76
29, 24
10, 18
94, 84
86, 66
15, 34
16, 19
7, 10
1, 4
7, 12
6, 1
3, 5
23, 31
52, 49
13, 11
6, 7
8, 8
6, 4
2, 16
4, 23
19, 21
15, 19
11, 16
8, 8
3, 6
6, 13
11, 5
36, 11
86, 11
43, 13
8, 12
7, 21
39, 104
89, 105
24, 28
22, 52
569, 863
3198, 3848
2094, 2070
181, 132
45, 19
35, 27
116, 158
474, 565
296, 274
24, 25
6, 11
5, 8
9, 5
4, 7
4, 3
4, 2
2, 2
2, 6
7, 2
7, 4
3, 5
5, 4
10, 6
11, 4
5, 2
1, 5
7, 1
2, 2
0, 1
3, 2
5, 4
3, 5
1, 2
2, 2
1, 3
2, 5
1, 7
1, 2
2, 3
2, 5
3, 1
3, 2
1, 1
3, 1
0, 5
0, 2
0, 1
1, 3
4, 2
1, 4
1, 1
2, 2
0, 0
2, 1
3, 5
4, 1
1, 1
0, 2
6, 7
4, 8
5, 3
1, 2
1, 1
2, 3
1, 3
4, 1
1, 2
2, 0
1, 1
1, 1
2, 1
2, 0
2, 1
2, 5
0, 0
0, 1
0, 1
0, 3
0, 2
2, 0
0, 0
0, 0
0, 1
0, 1
0, 0
1, 0
1, 0
0, 1
0, 1
0, 0
0, 0
1, 1
0, 2
0, 1
1, 0
2, 0
0, 0
0, 0
0, 0
0, 1
0, 1
0, 0
0, 0
0, 0
0, 1
1, 0
0, 0
0, 0
1, 0
0, 0
0, 0
0, 0
0, 0
0, 0
0, 0
0, 0
0, 0
0, 0
0, 0
0, 0
0, 0
0, 0
0, 1
0, 0
0, 1
0, 1
0, 0
0, 1
0, 0
0, 0
0, 0
0, 1
0, 0
0, 0
0, 0
0, 0
0, 0
0, 0
0, 0
0, 1
0, 0
0, 0
0, 0
1, 0
0, 0
0, 0
0, 0
0, 0
0, 0
0, 0
0, 0
0, 0
0, 0
0, 0
0, 0
0, 0
0, 0
0, 0
0, 0
0, 0
0, 0
0, 0
0, 0
0, 0
0, 0
0, 0
0, 0
0, 0
0, 0
0, 0
0, 0
0, 0
0, 0
0, 0
0, 0
0, 0
0, 0
0, 0
0, 0
0, 0
0, 0
0, 0
0, 0
0, 0
0, 0
0, 0
0, 0
0, 0
0, 0
0, 0
0, 0
0, 0
0, 0
0, 0
0, 0
0, 0
0, 0
0, 0
0, 0
0, 0
0, 0
0, 0
0, 0
0, 0
0, 0
0, 0
0, 0
0, 0
0, 0
0, 0
0, 0
0, 0
0, 0
0, 0
0, 0
0, 0
0, 0
0, 0
0, 0
0, 0
0, 0
0, 0
0, 0
0, 0
0, 0
0, 0
0, 0
0, 0
0, 0
0, 0
0, 0
0, 0
0, 0
0, 0
0, 0
0, 0
0, 0
#ENDOFDATA     end of spectrum data

File: ps__0257_0689790785_000rfs_shot_3063.msa
#FORMAT      : EMSA/MAS spectral data file
#VERSION     : TC202v2.0 PIXL
#TITLE       : N/A
#DATE        :       Date in the format DD-MMM-YYYY, for example 07-JUL-2010
#TIME        :             The time of day at which the spectrum was recorded, in 24-hour format
#OWNER       : PIXL Flight Model       (PIXL will use this to indicate which instrument took the data.)
#NPOINTS     : 4096     Number of data points in the spectrum (This can be zero for configuration only files)
#NCOLUMNS    : 2     Number of data columns in the spectrum (This can be zero for configuration only files)
#XUNITS      : eV
#YUNITS      : COUNTS
#DATATYPE    : YY
#XPERCHAN    : 7.862, 7.881   eV per channel (separate by commas if more than one detector)
#OFFSET      : 18.5, -22.4         eV of first channel  (separate by commas if more than one detector
#SIGNALTYPE  : XRF
#YP_TEMP     : 3.133
#LIVETIME    : 9.00516, 9.00745   seconds (separate by commas if more than one detector)
#REALTIME    : 10, 10.0   seconds (separate by commas if more than one detector)
#SPECTRUM    : start of spectrum data
0, 0
0, 0
0, 0
0, 0
0, 0
0, 0
0, 0
0, 0
1, 0
0, 2
2, 2
15, 23
37, 27
9, 5
15, 10
123, 76
504, 575
88, 106
3, 6
1, 1
2, 1
15, 6
2, 2
10, 9
28, 65
53, 68
25, 25
15, 18
6, 1
9, 6
23, 18
6, 9
4, 2
24, 32
27, 36
4, 6
4, 10
2, 11
5, 7
3, 8
15, 20
44, 50
31, 35
20, 16
11, 15
14, 14
10, 8
7, 11
14, 30
44, 42
30, 35
12, 20
11, 17
50, 77
78, 76
24, 34
34, 21
578, 718
3251, 3684
2110, 1900
193, 119
148, 19
120, 29
158, 170
478, 586
278, 251
27, 18
7, 5
4, 7
6, 8
3, 5
3, 5
2, 2
1, 7
5, 7
4, 9
5, 10
12, 11
1, 9
7, 10
5, 2
3, 4
3, 2
4, 7
5, 4
1, 3
3, 1
7, 3
2, 6
6, 0
5, 2
4, 2
2, 3
3, 0
0, 1
3, 2
1, 1
3, 2
4, 4
1, 3
1, 3
1, 2
3, 4
4, 4
1, 2
1, 5
5, 3
2, 4
2, 3
2, 2
3, 1
2, 1
2, 1
0, 4
2, 1
2, 5
6, 9
5, 3
1, 3
0, 1
3, 2
2, 1
3, 3
1, 1
0, 0
1, 2
1, 1
3, 1
0, 1
2, 1
0, 1
0, 1
0, 2
0, 0
0, 1
0, 1
1, 0
1, 0
3, 0
0, 0
0, 0
2, 0
0, 1
2, 1
0, 0
0, 0
0, 1
0, 0
0, 0
0, 0
1, 0
0, 0
1, 1
0, 0
1, 1
0, 0
0, 0
0, 1
0, 1
0, 0
0, 0
0, 0
1, 1
0, 0
0, 0
1, 0
0, 0
1, 0
0, 0
0, 0
0, 0
1, 2
0, 0
0, 0
0, 0
1, 0
0, 0
1, 0
0, 0
0, 0
0, 0
0, 0
0, 0
0, 1
0, 0
0, 0
0, 0
0, 0
0, 0
0, 0
0, 0
0, 0
1, 0
0, 0
0, 0
0, 0
0, 0
0, 0
0, 1
0, 0
0, 0
0, 0
0, 0
0, 0
0, 0
0, 0
0, 0
0, 0
0, 0
0, 0
0, 0
0, 0
0, 0
0, 0
0, 0
0, 0
0, 0
0, 0
0, 0
0, 0
0, 0
0, 0
0, 0
0, 0
0, 0
0, 0
0, 0
0, 0
0, 0
0, 0
0, 0
0, 0
0, 0
0, 0
0, 0
0, 0
0, 0
0, 0
0, 0
0, 0
0, 0
0, 0
0, 0
0, 0
0, 0
0, 0
0, 0
0, 0
0, 0
0, 0
0, 0
0, 0
0, 0
0, 0
0, 0
0, 0
0, 0
0, 0
0, 0
0, 0
0, 0
0, 0
0, 0
0, 0
0, 0
0, 0
0, 0
0, 0
0, 0
0, 0
0, 0
0, 0
0, 0
0, 0
0, 0
0, 0
0, 0
0, 0
0, 0
0, 0
0, 0
0, 0
0, 0
0, 0
0, 0
0, 0
0, 0
0, 0
0, 0
0, 0
0, 0
0, 0
0, 0
0, 0
#ENDOFDATA     end of spectrum data