Folder: data-repository/host_upload/12-01-2023/Dourbes (shot-by-shot)/upload_4 (part 5)

File: ps__0257_0689790785_000rfs_shot_3064.msa
#FORMAT      : EMSA/MAS spectral data file
#VERSION     : TC202v2.0 PIXL
#TITLE       : N/A
#DATE        :       Date in the format DD-MMM-YYYY, for example 07-JUL-2010
#TIME        :             The time of day at which the spectrum was recorded, in 24-hour format
#OWNER       : PIXL Flight Model       (PIXL will use this to indicate which instrument took the data.)
#NPOINTS     : 4096     Number of data points in the spectrum (This can be zero for configuration only files)
#NCOLUMNS    : 2     Number of data columns in the spectrum (This can be zero for configuration only files)
#XUNITS      : eV
#YUNITS      : COUNTS
#DATATYPE    : YY
#XPERCHAN    : 7.862, 7.881   eV per channel (separate by commas if more than one detector)
#OFFSET      : 18.5, -22.4         eV of first channel  (separate by commas if more than one detector
#SIGNALTYPE  : XRF
#YP_TEMP     : 3.262
#LIVETIME    : 8.98566, 8.97648   seconds (separate by commas if more than one detector)
#REALTIME    : 10, 10.0   seconds (separate by commas if more than one detector)
#SPECTRUM    : start of spectrum data
0, 0
0, 0
0, 0
0, 0
0, 0
0, 0
0, 0
0, 0
1, 1
0, 3
1, 1
34, 24
36, 24
5, 4
10, 13
72, 60
440, 474
81, 73
3, 8
7, 5
7, 3
17, 23
4, 3
17, 14
51, 90
62, 111
37, 29
19, 13
10, 5
5, 1
10, 9
4, 6
4, 7
48, 48
64, 60
11, 49
9, 30
11, 12
9, 5
3, 11
46, 68
258, 243
107, 88
29, 19
14, 17
46, 42
22, 21
6, 61
40, 65
251, 240
171, 153
13, 20
13, 25
78, 90
118, 118
31, 33
27, 42
556, 747
3114, 3508
2127, 1837
154, 151
56, 23
61, 24
136, 160
500, 557
292, 246
27, 20
5, 7
4, 11
6, 2
0, 5
3, 5
7, 10
10, 3
9, 7
10, 5
10, 6
4, 5
3, 8
5, 12
9, 5
4, 2
3, 4
5, 3
5, 3
3, 4
3, 8
5, 2
4, 1
0, 6
4, 3
3, 4
5, 4
9, 2
2, 7
3, 3
2, 3
0, 1
2, 3
2, 0
6, 4
3, 1
1, 2
4, 6
1, 2
1, 2
1, 6
1, 1
0, 1
1, 3
2, 4
2, 2
1, 6
1, 1
2, 2
2, 9
6, 10
4, 7
1, 1
2, 3
0, 0
1, 1
4, 2
2, 1
2, 2
1, 0
1, 0
0, 2
1, 1
1, 1
1, 0
0, 2
0, 1
2, 1
2, 0
0, 1
1, 0
0, 0
1, 3
0, 0
1, 1
2, 0
1, 0
0, 0
0, 1
0, 0
2, 1
0, 0
1, 0
2, 0
1, 1
0, 1
0, 3
0, 0
0, 0
0, 0
1, 2
0, 0
1, 0
1, 0
0, 0
0, 1
0, 1
0, 0
0, 0
0, 0
0, 0
0, 0
0, 0
0, 0
0, 0
0, 0
0, 0
0, 1
0, 0
0, 0
0, 0
1, 2
0, 0
0, 0
0, 0
0, 0
0, 0
0, 0
0, 1
0, 0
0, 0
0, 0
0, 0
0, 0
0, 0
0, 0
0, 0
0, 0
0, 0
0, 0
0, 1
0, 0
0, 0
0, 0
0, 0
0, 0
0, 0
0, 0
0, 0
0, 0
0, 0
0, 1
0, 0
0, 0
0, 0
0, 0
0, 0
0, 0
0, 0
0, 0
0, 0
0, 0
0, 0
0, 0
0, 0
0, 0
0, 0
0, 0
0, 0
0, 0
0, 0
0, 0
0, 0
0, 0
0, 0
0, 0
0, 0
0, 0
0, 0
0, 0
0, 0
0, 0
0, 0
0, 0
0, 0
0, 0
0, 0
0, 0
0, 0
0, 0
0, 0
0, 0
0, 0
0, 0
0, 0
0, 0
0, 0
0, 0
0, 0
0, 0
0, 0
0, 0
0, 0
0, 0
0, 0
0, 0
0, 0
0, 0
0, 0
0, 0
0, 0
0, 0
0, 0
0, 0
0, 0
0, 0
0, 0
0, 0
0, 0
0, 0
0, 0
0, 0
0, 0
0, 0
0, 0
0, 0
0, 0
0, 0
0, 0
0, 0
0, 0
0, 0
0, 0
0, 0
0, 0
0, 0
0, 0
0, 0
#ENDOFDATA     end of spectrum data

File: ps__0257_0689790785_000rfs_shot_3066.msa
#FORMAT      : EMSA/MAS spectral data file
#VERSION     : TC202v2.0 PIXL
#TITLE       : N/A
#DATE        :       Date in the format DD-MMM-YYYY, for example 07-JUL-2010
#TIME        :             The time of day at which the spectrum was recorded, in 24-hour format
#OWNER       : PIXL Flight Model       (PIXL will use this to indicate which instrument took the data.)
#NPOINTS     : 4096     Number of data points in the spectrum (This can be zero for configuration only files)
#NCOLUMNS    : 2     Number of data columns in the spectrum (This can be zero for configuration only files)
#XUNITS      : eV
#YUNITS      : COUNTS
#DATATYPE    : YY
#XPERCHAN    : 7.862, 7.881   eV per channel (separate by commas if more than one detector)
#OFFSET      : 18.5, -22.4         eV of first channel  (separate by commas if more than one detector
#SIGNALTYPE  : XRF
#YP_TEMP     : 3.101
#LIVETIME    : 9.24764, 9.25125   seconds (separate by commas if more than one detector)
#REALTIME    : 10, 10.0   seconds (separate by commas if more than one detector)
#SPECTRUM    : start of spectrum data
0, 0
0, 0
0, 0
0, 0
0, 0
0, 0
0, 0
0, 0
1, 0
4, 4
9, 2
7, 5
10, 8
64, 54
132, 125
179, 127
1022, 969
162, 185
6, 16
4, 4
1, 1
6, 6
4, 4
14, 14
50, 58
41, 41
31, 19
12, 13
2, 4
20, 18
146, 166
65, 71
14, 18
38, 53
39, 37
5, 10
7, 10
9, 10
4, 0
2, 3
16, 4
31, 35
7, 7
4, 6
5, 11
8, 20
5, 21
6, 18
8, 10
13, 19
21, 14
33, 11
15, 7
9, 14
25, 13
28, 10
25, 11
80, 84
362, 389
216, 198
29, 17
18, 16
17, 15
25, 38
72, 93
39, 65
15, 16
10, 10
12, 9
10, 12
8, 5
8, 5
7, 9
11, 9
8, 14
6, 12
4, 6
6, 11
5, 3
6, 5
10, 7
8, 8
8, 7
13, 8
7, 8
10, 6
9, 4
8, 8
4, 6
11, 5
7, 4
6, 19
7, 9
13, 8
9, 8
6, 4
0, 4
6, 2
7, 5
3, 6
5, 9
5, 2
3, 6
6, 6
2, 3
3, 3
3, 5
3, 4
5, 4
6, 3
2, 4
2, 7
2, 8
1, 1
1, 0
2, 1
4, 2
1, 3
3, 3
1, 2
1, 2
4, 1
0, 1
2, 1
2, 2
1, 1
0, 1
1, 2
2, 1
1, 1
3, 0
3, 0
0, 1
4, 0
2, 1
1, 0
2, 0
1, 1
0, 1
0, 1
1, 2
1, 1
1, 0
0, 0
0, 0
1, 0
0, 0
0, 0
1, 0
1, 0
0, 0
0, 0
0, 1
1, 0
1, 0
2, 0
0, 1
0, 0
0, 1
0, 1
0, 1
1, 2
0, 0
0, 0
0, 0
1, 0
1, 0
0, 0
1, 0
0, 0
0, 0
0, 1
0, 0
0, 1
0, 0
0, 1
0, 1
0, 0
0, 0
0, 0
1, 0
0, 0
0, 0
1, 0
0, 0
0, 0
0, 0
2, 0
0, 0
0, 0
0, 1
0, 0
0, 0
0, 0
0, 0
0, 0
0, 0
0, 0
0, 0
0, 0
0, 0
0, 1
0, 0
0, 0
0, 1
0, 0
0, 0
0, 0
1, 0
0, 0
0, 0
0, 0
0, 0
0, 0
0, 0
0, 0
0, 0
0, 0
0, 1
0, 0
0, 0
0, 0
0, 0
0, 0
0, 0
0, 0
0, 0
0, 0
0, 0
0, 0
0, 0
0, 0
0, 0
0, 0
0, 0
0, 0
0, 0
0, 0
0, 0
0, 0
0, 0
0, 0
0, 0
0, 0
0, 0
0, 0
0, 0
0, 0
0, 0
0, 0
0, 0
0, 0
0, 0
0, 0
0, 0
0, 0
0, 0
0, 0
0, 0
0, 0
0, 0
0, 0
0, 0
0, 0
0, 0
0, 0
0, 0
0, 0
0, 0
0, 0
0, 0
0, 0
0, 0
0, 0
0, 0
0, 0
0, 0
0, 0
0, 0
0, 0
0, 0
0, 0
0, 0
0, 0
0, 0
0, 0
0, 0
0, 0
0, 0
0, 0
0, 0
0, 0
0, 0
0, 0
#ENDOFDATA     end of spectrum data

File: ps__0257_0689790785_000rfs_shot_3074.msa
#FORMAT      : EMSA/MAS spectral data file
#VERSION     : TC202v2.0 PIXL
#TITLE       : N/A
#DATE        :       Date in the format DD-MMM-YYYY, for example 07-JUL-2010
#TIME        :             The time of day at which the spectrum was recorded, in 24-hour format
#OWNER       : PIXL Flight Model       (PIXL will use this to indicate which instrument took the data.)
#NPOINTS     : 4096     Number of data points in the spectrum (This can be zero for configuration only files)
#NCOLUMNS    : 2     Number of data columns in the spectrum (This can be zero for configuration only files)
#XUNITS      : eV
#YUNITS      : COUNTS
#DATATYPE    : YY
#XPERCHAN    : 7.862, 7.881   eV per channel (separate by commas if more than one detector)
#OFFSET      : 18.5, -22.4         eV of first channel  (separate by commas if more than one detector
#SIGNALTYPE  : XRF
#YP_TEMP     : 3.23
#LIVETIME    : 9.05261, 9.05645   seconds (separate by commas if more than one detector)
#REALTIME    : 10, 10.0   seconds (separate by commas if more than one detector)
#SPECTRUM    : start of spectrum data
0, 0
0, 0
0, 0
0, 0
0, 0
0, 0
0, 0
0, 0
0, 1
3, 2
2, 4
25, 28
27, 31
5, 6
6, 9
103, 102
659, 697
125, 113
10, 6
1, 5
4, 4
9, 7
7, 3
6, 5
34, 33
34, 153
16, 93
8, 17
5, 9
5, 6
6, 19
8, 10
16, 19
319, 323
470, 480
49, 47
69, 61
75, 80
11, 7
4, 3
12, 11
30, 26
19, 21
6, 9
9, 7
15, 8
9, 12
12, 8
7, 14
25, 59
32, 97
8, 75
10, 21
35, 48
78, 64
62, 29
105, 30
543, 523
2417, 2466
1578, 1254
133, 136
10, 50
22, 21
96, 110
361, 380
219, 156
25, 16
4, 3
8, 7
10, 8
6, 12
6, 4
6, 0
4, 2
7, 6
11, 7
8, 6
3, 2
5, 5
4, 3
4, 5
1, 3
6, 4
5, 1
5, 2
2, 10
5, 15
2, 6
3, 3
2, 4
7, 5
6, 3
7, 5
2, 6
5, 7
6, 2
6, 2
0, 1
1, 1
2, 1
7, 5
1, 2
6, 1
3, 1
3, 3
5, 2
5, 1
3, 2
3, 2
1, 1
0, 9
0, 2
2, 5
1, 1
2, 1
2, 2
1, 3
2, 4
3, 1
3, 1
1, 1
2, 1
2, 2
0, 4
1, 2
2, 1
1, 0
2, 1
4, 3
0, 1
2, 1
0, 1
2, 2
1, 0
1, 0
1, 0
0, 0
1, 2
0, 1
1, 1
0, 0
0, 0
3, 1
0, 0
0, 0
1, 0
0, 0
0, 0
0, 1
0, 1
1, 0
0, 1
0, 1
0, 3
0, 0
2, 0
1, 0
0, 0
0, 0
0, 0
0, 1
1, 1
0, 0
1, 0
0, 0
0, 0
1, 0
0, 0
0, 0
0, 0
0, 0
1, 0
0, 0
0, 0
0, 0
0, 0
0, 0
0, 0
0, 0
0, 0
0, 0
1, 0
0, 0
0, 0
0, 0
0, 0
0, 0
1, 0
0, 0
0, 0
0, 0
0, 0
1, 0
0, 0
0, 0
0, 0
1, 0
0, 1
0, 0
0, 0
0, 0
0, 0
0, 0
0, 0
0, 0
0, 0
0, 0
0, 0
0, 0
0, 0
0, 0
0, 0
0, 0
0, 0
0, 0
0, 0
0, 0
0, 0
0, 0
0, 0
0, 0
0, 0
0, 0
0, 0
0, 0
0, 0
0, 0
0, 0
0, 0
0, 0
0, 0
0, 0
0, 0
0, 0
0, 0
0, 0
0, 0
0, 0
0, 0
0, 0
0, 0
0, 0
0, 0
0, 0
0, 0
0, 0
0, 0
0, 0
0, 0
0, 0
0, 0
0, 0
0, 0
0, 0
0, 0
0, 0
0, 0
0, 0
0, 0
0, 0
0, 0
0, 0
0, 0
0, 0
0, 0
0, 0
0, 0
0, 0
0, 0
0, 0
0, 0
0, 0
0, 0
0, 0
0, 0
0, 0
0, 0
0, 0
0, 0
0, 0
0, 0
0, 0
0, 0
0, 0
0, 0
0, 0
0, 0
0, 0
0, 0
0, 0
0, 0
0, 0
0, 0
0, 0
#ENDOFDATA     end of spectrum data

File: ps__0257_0689790785_000rfs_shot_3078.msa
#FORMAT      : EMSA/MAS spectral data file
#VERSION     : TC202v2.0 PIXL
#TITLE       : N/A
#DATE        :       Date in the format DD-MMM-YYYY, for example 07-JUL-2010
#TIME        :             The time of day at which the spectrum was recorded, in 24-hour format
#OWNER       : PIXL Flight Model       (PIXL will use this to indicate which instrument took the data.)
#NPOINTS     : 4096     Number of data points in the spectrum (This can be zero for configuration only files)
#NCOLUMNS    : 2     Number of data columns in the spectrum (This can be zero for configuration only files)
#XUNITS      : eV
#YUNITS      : COUNTS
#DATATYPE    : YY
#XPERCHAN    : 7.862, 7.881   eV per channel (separate by commas if more than one detector)
#OFFSET      : 18.5, -22.4         eV of first channel  (separate by commas if more than one detector
#SIGNALTYPE  : XRF
#YP_TEMP     : 2.973
#LIVETIME    : 9.15615, 9.12748   seconds (separate by commas if more than one detector)
#REALTIME    : 10, 10.0   seconds (separate by commas if more than one detector)
#SPECTRUM    : start of spectrum data
0, 0
0, 0
0, 0
0, 0
0, 0
0, 0
0, 0
0, 0
0, 0
2, 1
1, 2
25, 21
28, 22
4, 6
18, 18
111, 166
768, 991
107, 132
22, 21
5, 2
2, 3
3, 10
4, 6
3, 5
27, 14
30, 24
14, 25
10, 29
1, 20
4, 2
5, 3
3, 4
36, 33
598, 716
927, 1156
91, 98
105, 150
125, 156
15, 18
1, 3
8, 6
32, 45
15, 22
2, 7
1, 9
14, 13
6, 21
3, 20
13, 21
41, 54
31, 30
2, 5
4, 6
26, 36
52, 58
28, 12
175, 21
415, 275
1021, 1205
619, 645
45, 50
6, 7
9, 16
49, 53
157, 181
106, 85
15, 21
5, 11
8, 5
3, 4
1, 3
6, 2
3, 5
5, 7
8, 3
12, 6
16, 6
9, 3
3, 9
6, 7
3, 3
3, 2
3, 3
1, 4
3, 6
2, 26
4, 41
6, 22
2, 4
0, 2
4, 1
7, 12
3, 14
6, 17
6, 8
2, 0
1, 0
4, 3
3, 2
0, 1
1, 3
3, 5
4, 4
2, 3
3, 3
7, 3
7, 4
5, 3
1, 3
1, 1
4, 4
1, 8
1, 5
0, 2
2, 0
3, 1
4, 4
1, 1
3, 3
3, 1
3, 1
2, 3
2, 3
1, 6
0, 0
2, 1
0, 0
1, 1
1, 4
0, 1
1, 2
1, 1
0, 3
2, 1
1, 2
0, 3
0, 1
1, 2
1, 2
0, 1
2, 0
2, 1
1, 0
0, 0
0, 1
0, 1
1, 0
2, 1
1, 0
0, 2
0, 0
0, 0
0, 1
0, 0
1, 0
0, 1
0, 2
0, 1
0, 1
2, 0
0, 1
0, 0
1, 0
1, 1
0, 1
0, 1
0, 0
0, 0
0, 1
1, 0
1, 0
1, 0
0, 0
1, 1
1, 1
0, 0
0, 0
0, 0
0, 1
0, 0
0, 0
0, 0
0, 0
0, 1
0, 0
0, 0
0, 0
0, 0
0, 1
1, 0
0, 0
0, 0
0, 0
0, 0
0, 0
0, 0
0, 0
0, 0
0, 0
0, 0
0, 0
0, 0
0, 0
0, 0
0, 0
1, 0
0, 0
0, 0
0, 0
0, 0
0, 0
0, 0
0, 0
0, 0
0, 0
0, 0
0, 0
0, 0
0, 0
0, 0
0, 0
0, 0
0, 0
0, 0
0, 0
0, 0
0, 0
0, 0
0, 0
0, 0
0, 0
0, 0
0, 0
0, 0
0, 0
0, 0
0, 0
0, 0
0, 0
0, 0
0, 0
0, 0
0, 0
0, 0
0, 0
0, 0
0, 0
0, 0
0, 0
0, 0
0, 0
0, 0
0, 0
0, 0
0, 0
0, 0
0, 0
0, 0
0, 0
0, 0
0, 0
0, 0
0, 0
0, 0
0, 0
0, 0
0, 0
0, 0
0, 0
0, 0
0, 0
0, 0
0, 0
0, 0
0, 0
0, 0
0, 0
0, 0
0, 0
0, 0
0, 0
0, 0
0, 0
0, 0
0, 0
0, 0
0, 0
0, 0
0, 0
0, 0
0, 0
0, 0
0, 0
0, 0
#ENDOFDATA     end of spectrum data

File: ps__0257_0689790785_000rfs_shot_3080.msa
#FORMAT      : EMSA/MAS spectral data file
#VERSION     : TC202v2.0 PIXL
#TITLE       : N/A
#DATE        :       Date in the format DD-MMM-YYYY, for example 07-JUL-2010
#TIME        :             The time of day at which the spectrum was recorded, in 24-hour format
#OWNER       : PIXL Flight Model       (PIXL will use this to indicate which instrument took the data.)
#NPOINTS     : 4096     Number of data points in the spectrum (This can be zero for configuration only files)
#NCOLUMNS    : 2     Number of data columns in the spectrum (This can be zero for configuration only files)
#XUNITS      : eV
#YUNITS      : COUNTS
#DATATYPE    : YY
#XPERCHAN    : 7.862, 7.881   eV per channel (separate by commas if more than one detector)
#OFFSET      : 18.5, -22.4         eV of first channel  (separate by commas if more than one detector
#SIGNALTYPE  : XRF
#YP_TEMP     : 3.133
#LIVETIME    : 9.00183, 8.99878   seconds (separate by commas if more than one detector)
#REALTIME    : 10, 10.0   seconds (separate by commas if more than one detector)
#SPECTRUM    : start of spectrum data
0, 0
0, 0
0, 0
0, 0
0, 0
0, 0
0, 0
0, 0
1, 1
1, 0
1, 2
31, 35
42, 41
2, 3
5, 0
76, 62
537, 489
92, 65
2, 11
1, 3
1, 1
4, 7
3, 1
6, 3
39, 38
27, 26
13, 16
10, 18
4, 3
2, 2
3, 1
1, 1
3, 4
29, 34
50, 62
5, 6
11, 10
12, 12
4, 4
2, 5
4, 7
10, 14
18, 18
15, 10
2, 6
6, 10
7, 6
6, 3
6, 5
13, 11
10, 13
7, 10
14, 6
56, 81
87, 72
25, 21
42, 44
675, 769
3577, 3808
2293, 2010
180, 134
17, 66
23, 69
142, 168
516, 557
318, 275
32, 33
9, 14
6, 2
9, 2
4, 9
1, 12
6, 6
4, 2
4, 4
2, 2
0, 1
6, 1
4, 3
6, 2
3, 2
2, 3
3, 2
3, 1
2, 4
1, 1
1, 1
1, 4
0, 2
6, 0
1, 4
1, 4
1, 7
5, 1
2, 3
4, 1
2, 5
1, 0
2, 2
2, 4
4, 2
3, 2
3, 3
1, 4
0, 4
1, 1
2, 3
6, 3
2, 1
0, 1
2, 1
4, 3
2, 1
1, 3
3, 2
1, 6
2, 8
5, 5
2, 1
1, 0
0, 5
3, 2
7, 5
4, 1
2, 2
1, 0
2, 2
1, 2
1, 0
0, 1
1, 1
0, 0
0, 0
1, 0
0, 1
1, 2
2, 0
1, 0
0, 0
2, 0
2, 1
2, 1
0, 0
1, 1
0, 0
1, 1
1, 0
1, 0
0, 0
0, 0
0, 0
1, 1
0, 0
0, 0
0, 0
0, 0
0, 0
1, 2
0, 2
1, 0
1, 0
0, 1
0, 0
1, 0
0, 0
0, 0
0, 0
0, 0
0, 1
1, 2
0, 0
0, 0
0, 0
1, 1
0, 0
0, 0
0, 0
0, 0
0, 0
0, 0
0, 0
0, 0
1, 0
0, 0
1, 0
0, 0
0, 0
0, 0
0, 0
0, 1
0, 0
0, 0
0, 0
0, 0
0, 0
0, 0
0, 0
0, 0
0, 0
0, 0
0, 0
0, 0
0, 0
0, 0
0, 0
0, 0
0, 0
0, 0
0, 0
0, 1
0, 0
0, 0
0, 0
0, 0
0, 0
0, 0
0, 0
0, 0
0, 0
0, 0
0, 0
0, 0
0, 0
0, 0
0, 0
0, 0
0, 0
0, 0
0, 0
0, 0
0, 0
0, 0
0, 0
0, 0
0, 0
0, 0
0, 0
0, 0
0, 0
0, 0
0, 0
0, 0
0, 0
0, 0
0, 0
0, 0
0, 0
0, 0
0, 0
0, 0
0, 0
0, 0
0, 0
0, 0
0, 0
0, 0
0, 0
0, 0
0, 0
0, 0
0, 0
0, 0
0, 0
0, 0
0, 0
0, 0
0, 0
0, 0
0, 0
0, 0
0, 0
0, 0
0, 0
0, 0
0, 0
0, 0
0, 0
0, 0
0, 0
0, 0
0, 0
0, 0
0, 0
0, 0
0, 0
0, 0
0, 0
0, 0
0, 0
0, 0
0, 0
0, 0
0, 0
0, 0
#ENDOFDATA     end of spectrum data

File: ps__0257_0689790785_000rfs_shot_3082.msa
#FORMAT      : EMSA/MAS spectral data file
#VERSION     : TC202v2.0 PIXL
#TITLE       : N/A
#DATE        :       Date in the format DD-MMM-YYYY, for example 07-JUL-2010
#TIME        :             The time of day at which the spectrum was recorded, in 24-hour format
#OWNER       : PIXL Flight Model       (PIXL will use this to indicate which instrument took the data.)
#NPOINTS     : 4096     Number of data points in the spectrum (This can be zero for configuration only files)
#NCOLUMNS    : 2     Number of data columns in the spectrum (This can be zero for configuration only files)
#XUNITS      : eV
#YUNITS      : COUNTS
#DATATYPE    : YY
#XPERCHAN    : 7.862, 7.881   eV per channel (separate by commas if more than one detector)
#OFFSET      : 18.5, -22.4         eV of first channel  (separate by commas if more than one detector
#SIGNALTYPE  : XRF
#YP_TEMP     : 2.973
#LIVETIME    : 9.00292, 9.00179   seconds (separate by commas if more than one detector)
#REALTIME    : 10, 10.0   seconds (separate by commas if more than one detector)
#SPECTRUM    : start of spectrum data
0, 0
0, 0
0, 0
0, 0
0, 0
0, 0
0, 0
1, 0
0, 0
1, 1
1, 0
41, 27
41, 31
3, 2
4, 4
65, 68
485, 481
76, 75
0, 8
2, 1
1, 1
6, 3
2, 3
7, 6
26, 22
22, 29
12, 10
14, 10
2, 3
3, 2
1, 1
2, 2
3, 1
10, 12
22, 21
4, 2
6, 2
3, 7
5, 4
2, 7
2, 0
7, 7
25, 12
6, 13
5, 5
4, 5
2, 3
5, 4
4, 8
6, 12
12, 11
6, 6
9, 10
55, 61
87, 95
30, 26
40, 55
708, 813
3669, 3810
2274, 1825
193, 139
10, 77
31, 80
149, 154
555, 545
300, 253
34, 26
15, 14
17, 6
5, 6
1, 7
1, 14
5, 8
3, 0
4, 4
4, 3
3, 2
3, 1
6, 2
4, 3
2, 3
1, 4
1, 1
1, 3
3, 1
2, 2
3, 5
3, 4
4, 5
4, 1
3, 2
3, 4
4, 1
1, 1
2, 3
4, 1
1, 3
2, 1
2, 5
2, 3
4, 2
5, 1
3, 3
1, 2
4, 1
1, 2
2, 1
3, 5
0, 1
0, 2
0, 1
1, 3
2, 2
0, 2
1, 1
5, 3
3, 9
3, 6
1, 1
1, 0
1, 3
1, 2
3, 5
2, 2
3, 1
1, 1
2, 1
1, 0
0, 1
0, 1
1, 1
1, 0
0, 0
1, 1
1, 1
1, 0
1, 1
1, 2
0, 0
1, 0
0, 0
0, 0
0, 0
1, 0
0, 0
3, 2
1, 0
1, 0
0, 0
1, 0
1, 0
0, 2
0, 0
0, 0
1, 0
0, 0
1, 0
0, 2
0, 0
0, 0
1, 0
1, 0
0, 1
0, 1
0, 0
0, 0
0, 0
0, 0
0, 0
1, 0
0, 1
0, 0
1, 1
0, 2
0, 0
0, 0
0, 0
0, 0
0, 0
1, 0
1, 0
0, 2
0, 0
0, 0
0, 0
0, 0
0, 0
0, 0
0, 0
0, 0
0, 0
0, 0
0, 0
0, 1
0, 0
1, 0
0, 0
0, 0
0, 0
0, 0
0, 0
0, 0
0, 0
0, 0
0, 0
0, 0
0, 0
0, 0
0, 0
0, 0
0, 0
0, 1
0, 0
1, 0
0, 0
0, 0
0, 0
0, 0
0, 0
0, 0
0, 0
0, 0
0, 0
0, 0
0, 0
0, 0
0, 0
0, 0
0, 0
0, 0
0, 0
0, 0
0, 0
0, 0
0, 0
0, 0
0, 0
0, 0
0, 0
0, 0
0, 0
0, 0
0, 0
0, 0
0, 0
0, 0
0, 0
0, 0
0, 0
0, 0
0, 0
0, 0
0, 0
0, 0
0, 0
0, 0
0, 0
0, 0
0, 0
0, 0
0, 0
0, 0
0, 0
0, 0
0, 0
0, 0
0, 0
0, 0
0, 0
0, 0
0, 0
0, 0
0, 0
0, 0
0, 0
0, 0
0, 0
0, 0
0, 0
0, 0
0, 0
0, 0
0, 0
0, 0
0, 0
0, 0
0, 0
0, 0
0, 0
0, 0
0, 0
0, 0
0, 0
0, 0
#ENDOFDATA     end of spectrum data

File: ps__0257_0689790785_000rfs_shot_3083.msa
#FORMAT      : EMSA/MAS spectral data file
#VERSION     : TC202v2.0 PIXL
#TITLE       : N/A
#DATE        :       Date in the format DD-MMM-YYYY, for example 07-JUL-2010
#TIME        :             The time of day at which the spectrum was recorded, in 24-hour format
#OWNER       : PIXL Flight Model       (PIXL will use this to indicate which instrument took the data.)
#NPOINTS     : 4096     Number of data points in the spectrum (This can be zero for configuration only files)
#NCOLUMNS    : 2     Number of data columns in the spectrum (This can be zero for configuration only files)
#XUNITS      : eV
#YUNITS      : COUNTS
#DATATYPE    : YY
#XPERCHAN    : 7.862, 7.881   eV per channel (separate by commas if more than one detector)
#OFFSET      : 18.5, -22.4         eV of first channel  (separate by commas if more than one detector
#SIGNALTYPE  : XRF
#YP_TEMP     : 3.198
#LIVETIME    : 9.09161, 9.09082   seconds (separate by commas if more than one detector)
#REALTIME    : 10, 10.0   seconds (separate by commas if more than one detector)
#SPECTRUM    : start of spectrum data
0, 0
0, 0
0, 0
0, 0
0, 0
0, 0
0, 0
0, 0
1, 1
0, 1
1, 3
26, 26
28, 27
32, 18
42, 54
119, 113
625, 640
128, 100
4, 5
2, 1
1, 2
3, 4
3, 0
6, 3
29, 26
33, 19
16, 16
12, 20
2, 11
6, 14
24, 32
26, 19
9, 6
38, 41
46, 35
8, 4
13, 7
18, 9
3, 2
4, 0
7, 6
19, 10
11, 15
9, 11
8, 4
1, 7
5, 9
8, 5
8, 8
10, 12
10, 7
6, 6
11, 14
48, 59
61, 58
36, 16
25, 26
458, 488
2601, 2558
1648, 1303
130, 71
13, 51
13, 50
109, 114
387, 387
224, 173
27, 30
20, 14
16, 6
12, 4
4, 9
3, 9
3, 6
6, 3
5, 7
9, 7
7, 4
10, 4
7, 5
8, 6
6, 3
6, 1
5, 3
7, 4
8, 2
8, 6
1, 5
7, 1
3, 3
3, 2
0, 2
3, 4
3, 2
6, 6
2, 3
3, 0
8, 3
3, 4
6, 6
5, 1
4, 5
3, 3
3, 1
4, 4
3, 3
3, 3
1, 4
2, 4
6, 4
2, 0
5, 2
4, 1
2, 2
2, 2
6, 1
3, 1
5, 1
4, 7
1, 1
5, 1
2, 0
1, 4
1, 2
2, 6
2, 0
2, 3
4, 1
4, 0
2, 3
3, 2
4, 0
1, 0
0, 0
1, 1
0, 0
3, 0
1, 0
1, 0
1, 0
1, 1
1, 1
1, 0
0, 2
1, 0
1, 0
1, 0
0, 0
1, 0
0, 0
0, 0
0, 0
0, 1
1, 0
0, 1
1, 0
0, 0
0, 1
0, 0
0, 0
1, 0
0, 1
0, 0
1, 0
1, 0
0, 0
0, 0
1, 0
0, 0
0, 0
0, 0
0, 0
1, 0
1, 0
1, 0
0, 0
0, 1
0, 0
1, 0
1, 0
1, 0
0, 1
0, 0
0, 0
0, 0
0, 0
0, 1
0, 0
0, 0
0, 1
0, 0
0, 0
0, 1
1, 0
0, 1
0, 0
0, 0
0, 0
0, 0
0, 0
0, 0
0, 0
0, 0
0, 0
0, 0
1, 0
0, 0
0, 0
1, 0
0, 1
0, 0
0, 0
0, 0
0, 0
0, 0
0, 0
0, 0
0, 0
0, 0
0, 0
0, 0
0, 0
0, 0
0, 0
0, 0
0, 0
0, 0
0, 0
0, 0
0, 0
0, 0
0, 0
0, 0
0, 0
0, 0
0, 0
0, 0
0, 0
0, 0
0, 0
0, 0
0, 0
0, 0
0, 0
0, 0
0, 0
0, 0
0, 0
0, 0
0, 0
0, 0
0, 0
0, 0
0, 0
0, 0
0, 0
0, 0
0, 0
0, 0
0, 0
0, 0
0, 0
0, 0
0, 0
0, 0
0, 0
0, 0
0, 0
0, 0
0, 0
0, 0
0, 0
0, 0
0, 0
0, 0
0, 0
0, 0
0, 0
0, 0
0, 0
0, 0
0, 0
0, 0
0, 0
0, 0
0, 0
0, 0
0, 0
0, 0
0, 0
0, 0
0, 0
0, 0
0, 0
0, 0
#ENDOFDATA     end of spectrum data

File: ps__0257_0689790785_000rfs_shot_3084.msa
#FORMAT      : EMSA/MAS spectral data file
#VERSION     : TC202v2.0 PIXL
#TITLE       : N/A
#DATE        :       Date in the format DD-MMM-YYYY, for example 07-JUL-2010
#TIME        :             The time of day at which the spectrum was recorded, in 24-hour format
#OWNER       : PIXL Flight Model       (PIXL will use this to indicate which instrument took the data.)
#NPOINTS     : 4096     Number of data points in the spectrum (This can be zero for configuration only files)
#NCOLUMNS    : 2     Number of data columns in the spectrum (This can be zero for configuration only files)
#XUNITS      : eV
#YUNITS      : COUNTS
#DATATYPE    : YY
#XPERCHAN    : 7.862, 7.881   eV per channel (separate by commas if more than one detector)
#OFFSET      : 18.5, -22.4         eV of first channel  (separate by commas if more than one detector
#SIGNALTYPE  : XRF
#YP_TEMP     : 3.198
#LIVETIME    : 9.09482, 9.0701   seconds (separate by commas if more than one detector)
#REALTIME    : 10, 10.0   seconds (separate by commas if more than one detector)
#SPECTRUM    : start of spectrum data
0, 0
0, 0
0, 0
0, 0
0, 0
0, 0
0, 0
0, 0
0, 2
1, 3
1, 3
20, 14
26, 31
32, 20
59, 63
104, 111
703, 673
110, 117
6, 4
1, 2
2, 0
3, 5
1, 1
9, 9
36, 53
32, 30
25, 13
11, 13
3, 13
5, 12
37, 35
18, 15
4, 7
35, 38
52, 48
14, 11
24, 16
16, 9
2, 1
2, 2
9, 6
9, 15
13, 16
12, 12
6, 8
9, 19
5, 11
4, 4
13, 12
13, 16
8, 16
14, 4
9, 7
39, 42
57, 66
18, 17
15, 40
414, 567
2317, 2827
1418, 1471
127, 88
11, 14
20, 36
114, 132
346, 440
194, 226
17, 19
4, 8
10, 12
8, 3
4, 8
7, 3
6, 6
6, 5
5, 2
9, 6
6, 6
9, 6
2, 7
4, 2
4, 5
4, 11
3, 4
1, 2
2, 4
5, 4
4, 5
11, 4
5, 3
5, 6
7, 8
4, 2
6, 2
4, 4
8, 1
2, 4
2, 1
2, 3
1, 3
3, 3
1, 2
5, 5
4, 3
2, 2
1, 1
2, 5
4, 3
4, 1
3, 3
2, 2
2, 2
0, 3
0, 0
1, 2
2, 2
4, 2
3, 5
2, 5
0, 10
0, 4
2, 2
0, 1
1, 1
0, 2
0, 1
0, 1
2, 0
1, 1
0, 2
2, 2
1, 1
5, 0
0, 1
0, 0
0, 1
1, 1
0, 0
1, 0
1, 2
1, 0
1, 1
0, 0
0, 1
0, 0
0, 1
0, 0
0, 0
0, 1
0, 1
0, 0
0, 0
0, 0
0, 2
0, 0
2, 1
0, 0
0, 0
0, 0
1, 0
0, 0
0, 0
0, 0
0, 0
0, 0
0, 0
1, 0
2, 1
0, 0
1, 0
1, 0
0, 0
0, 1
1, 1
0, 0
0, 0
0, 0
0, 0
1, 1
0, 0
1, 0
1, 0
0, 0
0, 0
0, 1
0, 0
0, 0
0, 0
0, 0
0, 0
0, 0
0, 0
0, 0
0, 0
0, 0
0, 0
0, 0
0, 0
0, 0
0, 0
0, 0
0, 0
0, 0
0, 0
0, 0
0, 0
0, 0
0, 0
0, 0
1, 0
0, 0
0, 0
0, 0
0, 0
0, 0
0, 0
0, 0
0, 0
0, 0
0, 0
0, 0
0, 0
0, 0
0, 0
0, 0
0, 0
0, 0
0, 0
0, 0
0, 0
0, 0
0, 0
0, 0
0, 0
0, 0
0, 0
0, 0
0, 0
0, 0
0, 0
0, 0
0, 0
0, 0
0, 0
0, 0
0, 0
0, 0
0, 0
0, 0
0, 0
0, 0
0, 0
0, 0
0, 0
0, 0
0, 0
0, 0
0, 0
0, 0
0, 0
0, 0
0, 0
0, 0
0, 0
0, 0
0, 0
0, 0
0, 0
0, 0
0, 0
0, 0
0, 0
0, 0
0, 0
0, 0
0, 0
0, 0
0, 0
0, 0
0, 0
0, 0
0, 0
0, 0
0, 0
0, 0
0, 0
0, 0
0, 0
0, 0
0, 0
0, 0
0, 0
0, 0
0, 0
0, 0
#ENDOFDATA     end of spectrum data

File: ps__0257_0689790785_000rfs_shot_3086.msa
#FORMAT      : EMSA/MAS spectral data file
#VERSION     : TC202v2.0 PIXL
#TITLE       : N/A
#DATE        :       Date in the format DD-MMM-YYYY, for example 07-JUL-2010
#TIME        :             The time of day at which the spectrum was recorded, in 24-hour format
#OWNER       : PIXL Flight Model       (PIXL will use this to indicate which instrument took the data.)
#NPOINTS     : 4096     Number of data points in the spectrum (This can be zero for configuration only files)
#NCOLUMNS    : 2     Number of data columns in the spectrum (This can be zero for configuration only files)
#XUNITS      : eV
#YUNITS      : COUNTS
#DATATYPE    : YY
#XPERCHAN    : 7.862, 7.881   eV per channel (separate by commas if more than one detector)
#OFFSET      : 18.5, -22.4         eV of first channel  (separate by commas if more than one detector
#SIGNALTYPE  : XRF
#YP_TEMP     : 3.133
#LIVETIME    : 9.03474, 9.02022   seconds (separate by commas if more than one detector)
#REALTIME    : 10, 10.0   seconds (separate by commas if more than one detector)
#SPECTRUM    : start of spectrum data
0, 0
0, 0
0, 0
0, 0
0, 0
0, 0
0, 0
0, 0
0, 0
3, 1
2, 2
27, 22
32, 29
13, 6
13, 9
81, 80
574, 576
83, 97
6, 5
4, 3
2, 4
7, 7
1, 0
5, 8
43, 49
45, 35
23, 21
15, 11
5, 9
3, 3
5, 2
6, 4
13, 16
109, 122
175, 185
17, 19
20, 41
32, 31
8, 11
8, 4
13, 7
22, 17
18, 15
21, 15
25, 4
8, 22
14, 11
14, 6
6, 14
18, 26
18, 23
11, 9
12, 15
54, 54
96, 91
30, 22
34, 39
556, 708
3075, 3512
1875, 1817
164, 120
16, 23
22, 34
130, 161
462, 517
260, 253
32, 19
1, 9
7, 4
4, 3
3, 8
3, 13
8, 7
12, 7
5, 2
5, 3
6, 3
12, 3
5, 3
1, 2
6, 4
4, 3
3, 3
3, 6
1, 10
5, 6
1, 2
6, 1
3, 5
2, 5
5, 5
1, 6
3, 4
6, 5
20, 5
1, 3
3, 3
2, 3
7, 2
3, 3
0, 2
1, 2
3, 1
1, 5
2, 1
1, 1
1, 2
3, 1
5, 0
1, 2
2, 1
1, 0
2, 0
1, 3
1, 3
3, 1
5, 5
3, 2
2, 3
1, 1
0, 2
3, 2
0, 2
2, 1
0, 2
4, 1
1, 4
0, 3
3, 3
0, 4
6, 1
0, 1
2, 3
1, 1
1, 2
0, 0
1, 2
0, 2
0, 1
0, 1
0, 0
0, 0
0, 0
0, 0
2, 1
0, 1
1, 0
2, 1
1, 0
0, 0
0, 0
0, 0
0, 0
2, 0
0, 0
0, 0
0, 1
0, 1
0, 0
1, 0
0, 1
0, 0
0, 0
0, 0
0, 1
0, 0
0, 0
0, 0
0, 0
0, 0
1, 0
0, 1
0, 0
0, 0
0, 0
0, 0
0, 0
0, 0
0, 0
0, 0
0, 1
0, 0
0, 0
0, 1
1, 0
1, 0
0, 0
0, 0
0, 0
0, 0
0, 1
0, 0
0, 0
0, 1
0, 0
0, 0
0, 0
0, 1
0, 0
0, 0
0, 0
0, 0
0, 0
0, 0
0, 0
0, 0
0, 0
0, 0
0, 0
0, 0
0, 0
0, 0
0, 0
0, 0
0, 0
0, 0
0, 0
0, 0
0, 0
0, 0
0, 0
0, 0
0, 0
0, 0
0, 0
0, 0
0, 0
0, 0
0, 0
0, 0
0, 0
0, 0
0, 0
0, 0
0, 0
0, 0
0, 0
0, 0
0, 0
0, 0
0, 0
0, 0
0, 0
0, 0
0, 0
0, 0
0, 0
0, 0
0, 0
0, 0
0, 0
0, 0
0, 0
0, 0
0, 0
0, 0
0, 0
0, 0
0, 0
0, 0
0, 0
0, 0
0, 0
0, 0
0, 0
0, 0
0, 0
0, 0
0, 0
0, 0
0, 0
0, 0
0, 0
0, 0
0, 0
0, 0
0, 0
0, 0
0, 0
0, 0
0, 0
0, 0
0, 0
0, 0
0, 0
0, 0
0, 0
0, 0
0, 0
0, 0
0, 0
0, 0
0, 0
0, 0
#ENDOFDATA     end of spectrum data