Folder: data-repository/host_upload/12-01-2023/Dourbes (shot-by-shot)/upload_4 (part 9)

File: ps__0257_0689790785_000rfs_shot_3157.msa
#FORMAT      : EMSA/MAS spectral data file
#VERSION     : TC202v2.0 PIXL
#TITLE       : N/A
#DATE        :       Date in the format DD-MMM-YYYY, for example 07-JUL-2010
#TIME        :             The time of day at which the spectrum was recorded, in 24-hour format
#OWNER       : PIXL Flight Model       (PIXL will use this to indicate which instrument took the data.)
#NPOINTS     : 4096     Number of data points in the spectrum (This can be zero for configuration only files)
#NCOLUMNS    : 2     Number of data columns in the spectrum (This can be zero for configuration only files)
#XUNITS      : eV
#YUNITS      : COUNTS
#DATATYPE    : YY
#XPERCHAN    : 7.862, 7.881   eV per channel (separate by commas if more than one detector)
#OFFSET      : 18.5, -22.4         eV of first channel  (separate by commas if more than one detector
#SIGNALTYPE  : XRF
#YP_TEMP     : 3.037
#LIVETIME    : 9.01653, 8.98945   seconds (separate by commas if more than one detector)
#REALTIME    : 10, 10.0   seconds (separate by commas if more than one detector)
#SPECTRUM    : start of spectrum data
0, 0
0, 0
0, 0
0, 0
0, 0
0, 0
0, 0
0, 0
1, 1
0, 0
0, 0
33, 25
41, 36
3, 2
3, 2
94, 84
492, 530
85, 74
1, 5
3, 2
2, 2
3, 4
1, 1
5, 7
40, 41
45, 32
25, 19
8, 23
1, 8
2, 1
2, 4
1, 2
1, 3
37, 44
57, 56
8, 8
7, 6
7, 15
4, 8
5, 5
10, 31
17, 87
32, 48
17, 15
13, 15
7, 12
4, 9
10, 8
12, 9
14, 9
10, 5
6, 23
15, 23
64, 63
90, 91
31, 30
31, 55
625, 815
3325, 3805
2164, 1826
152, 109
17, 20
23, 24
167, 167
542, 507
327, 255
28, 20
14, 7
8, 5
12, 4
1, 3
4, 14
5, 6
4, 3
7, 9
9, 13
5, 3
4, 6
1, 3
2, 2
4, 2
2, 3
3, 6
2, 2
1, 5
2, 3
1, 7
4, 5
4, 9
1, 2
2, 1
2, 2
1, 9
0, 2
1, 1
1, 0
3, 3
2, 4
3, 8
5, 1
5, 1
1, 4
2, 1
5, 2
0, 0
6, 0
4, 2
1, 1
4, 4
0, 1
2, 0
2, 2
2, 5
3, 4
1, 1
1, 5
5, 6
6, 6
1, 2
1, 2
1, 1
3, 1
3, 3
2, 2
0, 2
1, 1
0, 1
1, 1
0, 1
1, 0
1, 0
0, 0
0, 0
1, 0
1, 0
1, 0
0, 0
1, 0
0, 0
1, 0
3, 0
0, 0
3, 1
0, 0
1, 0
1, 2
0, 0
0, 0
0, 0
0, 0
1, 0
0, 0
0, 1
1, 1
0, 1
0, 0
0, 0
0, 1
1, 0
0, 0
0, 1
0, 0
0, 1
0, 0
0, 0
0, 0
0, 0
0, 0
2, 0
0, 0
0, 1
0, 0
0, 0
0, 0
0, 0
0, 0
1, 0
1, 0
0, 0
0, 0
0, 0
0, 0
0, 0
0, 0
1, 1
0, 0
1, 0
0, 0
0, 0
0, 0
0, 0
0, 0
0, 0
0, 0
0, 0
0, 0
0, 0
0, 0
0, 0
0, 0
0, 0
0, 0
0, 0
0, 0
0, 0
0, 0
0, 0
0, 0
0, 0
0, 0
0, 0
0, 0
0, 0
0, 0
0, 0
0, 0
0, 0
0, 0
0, 0
0, 0
0, 0
0, 0
0, 0
0, 0
0, 0
0, 0
0, 0
0, 0
0, 0
0, 0
0, 0
0, 0
0, 0
0, 0
0, 0
0, 0
0, 0
0, 0
0, 0
0, 0
0, 0
0, 0
0, 0
0, 0
0, 0
0, 0
0, 0
0, 0
0, 0
0, 0
0, 0
0, 0
0, 0
0, 0
0, 0
0, 0
0, 0
0, 0
0, 0
0, 0
0, 0
0, 0
0, 0
0, 0
0, 0
0, 0
0, 0
0, 0
0, 0
0, 0
0, 0
0, 0
0, 0
0, 0
0, 0
0, 0
0, 0
0, 0
0, 0
0, 0
0, 0
0, 0
0, 0
0, 0
0, 0
0, 0
0, 0
0, 0
0, 0
0, 0
0, 0
0, 0
0, 0
0, 0
#ENDOFDATA     end of spectrum data

File: ps__0257_0689790785_000rfs_shot_3158.msa
#FORMAT      : EMSA/MAS spectral data file
#VERSION     : TC202v2.0 PIXL
#TITLE       : N/A
#DATE        :       Date in the format DD-MMM-YYYY, for example 07-JUL-2010
#TIME        :             The time of day at which the spectrum was recorded, in 24-hour format
#OWNER       : PIXL Flight Model       (PIXL will use this to indicate which instrument took the data.)
#NPOINTS     : 4096     Number of data points in the spectrum (This can be zero for configuration only files)
#NCOLUMNS    : 2     Number of data columns in the spectrum (This can be zero for configuration only files)
#XUNITS      : eV
#YUNITS      : COUNTS
#DATATYPE    : YY
#XPERCHAN    : 7.862, 7.881   eV per channel (separate by commas if more than one detector)
#OFFSET      : 18.5, -22.4         eV of first channel  (separate by commas if more than one detector
#SIGNALTYPE  : XRF
#YP_TEMP     : 3.133
#LIVETIME    : 9.00849, 8.98747   seconds (separate by commas if more than one detector)
#REALTIME    : 10, 10.0   seconds (separate by commas if more than one detector)
#SPECTRUM    : start of spectrum data
0, 0
0, 0
0, 0
0, 0
0, 0
0, 0
0, 0
0, 0
0, 1
0, 0
1, 1
21, 39
36, 30
2, 4
4, 6
62, 77
516, 524
93, 87
6, 5
2, 1
2, 0
2, 2
3, 1
7, 8
27, 22
29, 26
18, 21
10, 11
12, 8
2, 1
1, 1
0, 2
2, 3
9, 15
18, 18
3, 5
4, 2
7, 8
1, 9
0, 2
10, 66
13, 173
16, 69
14, 7
6, 7
6, 9
4, 8
8, 6
8, 8
11, 15
8, 7
10, 3
9, 24
56, 75
97, 105
27, 37
45, 70
636, 863
3621, 3882
2230, 1988
225, 119
28, 12
27, 14
150, 167
536, 573
271, 228
23, 19
6, 5
9, 7
7, 4
1, 4
3, 16
2, 16
0, 2
3, 7
6, 7
2, 3
1, 2
0, 2
1, 3
1, 2
0, 3
3, 2
2, 4
5, 1
1, 7
4, 5
1, 11
0, 9
4, 1
2, 1
1, 4
1, 1
2, 4
1, 0
0, 0
3, 2
4, 3
3, 6
6, 0
4, 4
1, 0
4, 3
3, 3
3, 3
1, 2
0, 0
2, 4
3, 0
2, 1
4, 3
3, 2
1, 7
0, 3
1, 4
1, 5
6, 6
7, 5
2, 0
1, 0
1, 3
3, 0
3, 4
3, 0
0, 0
1, 0
2, 1
1, 1
2, 2
1, 0
1, 0
0, 1
2, 0
0, 1
0, 2
0, 0
0, 0
1, 1
0, 1
1, 0
0, 0
0, 0
0, 1
0, 1
1, 1
2, 0
0, 0
0, 0
0, 0
1, 0
0, 0
0, 0
0, 0
1, 0
1, 0
2, 0
0, 0
0, 0
0, 1
0, 0
0, 0
0, 0
0, 1
0, 0
0, 0
0, 0
0, 0
0, 0
0, 1
1, 1
0, 0
0, 1
0, 1
1, 0
0, 0
1, 0
0, 2
0, 1
0, 0
0, 1
0, 0
1, 0
0, 1
0, 0
0, 0
0, 0
0, 0
0, 0
0, 0
0, 0
0, 0
1, 1
0, 0
0, 0
2, 0
0, 0
0, 0
0, 1
0, 0
0, 0
0, 0
0, 0
0, 0
0, 0
0, 0
0, 0
0, 0
0, 0
0, 0
0, 0
0, 0
0, 0
0, 0
0, 0
0, 0
0, 0
0, 0
0, 0
0, 0
0, 0
0, 0
0, 0
0, 0
0, 0
0, 0
0, 0
0, 1
0, 0
0, 0
0, 0
0, 0
0, 0
0, 0
0, 0
0, 0
0, 0
0, 0
0, 0
0, 0
0, 0
0, 0
0, 0
0, 0
0, 0
0, 0
0, 0
0, 0
0, 0
0, 0
0, 0
0, 0
0, 0
0, 0
0, 0
0, 0
0, 0
0, 0
0, 0
0, 0
0, 0
0, 0
0, 0
0, 0
0, 0
0, 0
0, 0
0, 0
0, 0
0, 0
0, 0
0, 0
0, 0
0, 0
0, 0
0, 0
0, 0
0, 0
0, 0
0, 0
0, 0
0, 0
0, 0
0, 0
0, 0
0, 0
0, 0
0, 0
0, 0
0, 0
0, 0
0, 0
0, 0
0, 0
0, 0
#ENDOFDATA     end of spectrum data

File: ps__0257_0689790785_000rfs_shot_3160.msa
#FORMAT      : EMSA/MAS spectral data file
#VERSION     : TC202v2.0 PIXL
#TITLE       : N/A
#DATE        :       Date in the format DD-MMM-YYYY, for example 07-JUL-2010
#TIME        :             The time of day at which the spectrum was recorded, in 24-hour format
#OWNER       : PIXL Flight Model       (PIXL will use this to indicate which instrument took the data.)
#NPOINTS     : 4096     Number of data points in the spectrum (This can be zero for configuration only files)
#NCOLUMNS    : 2     Number of data columns in the spectrum (This can be zero for configuration only files)
#XUNITS      : eV
#YUNITS      : COUNTS
#DATATYPE    : YY
#XPERCHAN    : 7.862, 7.881   eV per channel (separate by commas if more than one detector)
#OFFSET      : 18.5, -22.4         eV of first channel  (separate by commas if more than one detector
#SIGNALTYPE  : XRF
#YP_TEMP     : 3.262
#LIVETIME    : 8.98912, 9.00134   seconds (separate by commas if more than one detector)
#REALTIME    : 10, 10.0   seconds (separate by commas if more than one detector)
#SPECTRUM    : start of spectrum data
0, 0
0, 0
0, 0
0, 0
0, 0
0, 0
0, 0
1, 0
1, 1
1, 1
1, 2
42, 25
39, 36
6, 0
2, 0
84, 70
518, 480
99, 70
3, 2
1, 1
5, 2
5, 3
7, 3
6, 12
40, 36
22, 39
28, 27
14, 27
8, 3
4, 1
2, 1
2, 2
6, 4
23, 10
20, 26
8, 3
11, 5
8, 8
0, 0
4, 2
6, 25
10, 58
16, 35
25, 16
13, 4
7, 6
8, 11
7, 7
13, 4
9, 7
8, 10
8, 8
8, 13
64, 61
112, 96
24, 31
53, 58
673, 796
3735, 3718
2331, 1890
169, 100
20, 29
27, 27
151, 180
520, 514
297, 221
20, 20
1, 5
13, 6
3, 3
3, 3
3, 15
10, 10
8, 0
7, 3
1, 1
3, 4
2, 5
4, 5
4, 5
4, 2
1, 3
4, 3
5, 2
1, 0
4, 7
4, 9
4, 5
6, 6
4, 0
2, 1
1, 2
4, 1
1, 0
1, 3
4, 2
1, 0
2, 2
4, 1
5, 0
6, 0
3, 3
3, 1
3, 2
6, 0
2, 2
2, 3
1, 2
2, 0
2, 1
2, 3
2, 5
3, 4
3, 1
1, 3
2, 4
5, 7
5, 5
1, 2
1, 0
0, 2
1, 1
5, 3
0, 0
0, 1
1, 1
0, 1
0, 1
0, 1
4, 0
3, 1
1, 0
1, 0
2, 0
0, 1
1, 1
1, 0
0, 2
0, 1
1, 0
1, 1
0, 2
0, 2
0, 1
1, 1
0, 0
2, 0
0, 0
0, 0
0, 0
0, 1
1, 0
0, 0
0, 0
0, 1
0, 0
0, 0
0, 0
0, 2
1, 0
0, 0
0, 0
0, 0
0, 1
0, 0
0, 0
0, 0
0, 0
0, 0
0, 0
0, 0
0, 0
0, 0
0, 0
0, 0
0, 1
0, 0
0, 1
0, 2
0, 0
0, 0
0, 0
1, 0
1, 1
0, 0
0, 0
0, 0
0, 0
0, 0
0, 0
0, 0
0, 0
0, 1
0, 0
0, 0
0, 0
0, 1
0, 0
0, 0
0, 0
0, 0
0, 0
0, 0
0, 1
0, 0
0, 0
0, 0
0, 0
0, 0
0, 0
0, 0
0, 0
0, 0
0, 0
0, 0
0, 0
0, 0
0, 0
0, 0
0, 0
0, 0
0, 0
0, 0
0, 0
0, 0
0, 0
0, 0
0, 0
0, 0
0, 0
0, 0
0, 0
0, 0
0, 0
0, 0
0, 0
0, 0
0, 0
0, 0
0, 0
0, 0
0, 0
0, 0
0, 0
0, 0
0, 0
0, 0
0, 0
0, 0
0, 0
0, 0
0, 0
0, 0
0, 0
0, 0
0, 0
0, 0
0, 0
0, 0
0, 0
0, 0
0, 0
0, 0
0, 0
0, 0
0, 0
0, 0
0, 0
0, 0
0, 0
0, 0
0, 0
0, 0
0, 0
0, 0
0, 0
0, 0
0, 0
0, 0
0, 0
0, 0
0, 0
0, 0
0, 0
0, 0
0, 0
0, 0
0, 0
0, 0
0, 0
0, 0
0, 0
0, 0
0, 0
#ENDOFDATA     end of spectrum data

File: ps__0257_0689790785_000rfs_shot_3161.msa
#FORMAT      : EMSA/MAS spectral data file
#VERSION     : TC202v2.0 PIXL
#TITLE       : N/A
#DATE        :       Date in the format DD-MMM-YYYY, for example 07-JUL-2010
#TIME        :             The time of day at which the spectrum was recorded, in 24-hour format
#OWNER       : PIXL Flight Model       (PIXL will use this to indicate which instrument took the data.)
#NPOINTS     : 4096     Number of data points in the spectrum (This can be zero for configuration only files)
#NCOLUMNS    : 2     Number of data columns in the spectrum (This can be zero for configuration only files)
#XUNITS      : eV
#YUNITS      : COUNTS
#DATATYPE    : YY
#XPERCHAN    : 7.862, 7.881   eV per channel (separate by commas if more than one detector)
#OFFSET      : 18.5, -22.4         eV of first channel  (separate by commas if more than one detector
#SIGNALTYPE  : XRF
#YP_TEMP     : 3.262
#LIVETIME    : 8.98952, 9.00041   seconds (separate by commas if more than one detector)
#REALTIME    : 10, 10.0   seconds (separate by commas if more than one detector)
#SPECTRUM    : start of spectrum data
0, 0
0, 0
0, 0
0, 0
0, 0
0, 0
0, 0
0, 0
0, 0
0, 0
1, 0
29, 18
36, 29
2, 0
5, 5
76, 67
496, 493
80, 87
8, 6
5, 0
1, 3
11, 11
6, 5
9, 9
46, 40
62, 54
25, 41
10, 29
8, 3
4, 4
1, 3
3, 2
12, 6
27, 23
38, 28
5, 6
8, 6
6, 6
3, 6
8, 3
9, 27
30, 74
22, 42
21, 18
12, 6
7, 13
4, 8
7, 5
12, 11
9, 20
15, 10
9, 8
10, 20
70, 70
98, 99
26, 27
29, 49
680, 839
3762, 3720
2359, 1886
178, 117
23, 9
23, 27
155, 173
523, 562
270, 270
31, 21
9, 3
7, 6
14, 5
6, 4
5, 12
6, 4
7, 7
4, 6
4, 2
7, 4
3, 2
3, 4
1, 2
3, 1
6, 7
3, 5
0, 3
6, 5
5, 4
5, 10
0, 5
3, 7
6, 7
7, 1
2, 5
3, 1
1, 2
0, 3
1, 3
1, 1
4, 4
1, 2
5, 4
3, 2
2, 3
2, 3
1, 0
1, 0
0, 3
1, 3
2, 2
2, 3
1, 6
0, 0
3, 4
0, 5
1, 6
4, 1
4, 4
9, 6
2, 4
1, 1
1, 1
1, 1
2, 1
3, 2
1, 2
1, 3
0, 3
2, 2
0, 1
0, 1
1, 0
1, 0
1, 0
0, 0
1, 2
3, 0
1, 0
0, 0
1, 0
0, 1
1, 1
1, 1
0, 0
1, 0
1, 2
0, 0
1, 0
0, 1
3, 0
1, 0
0, 0
0, 0
0, 0
0, 1
0, 0
0, 0
0, 0
0, 1
0, 0
0, 0
0, 0
0, 0
0, 0
1, 0
0, 0
0, 0
0, 0
0, 0
0, 0
0, 1
0, 0
0, 0
0, 0
0, 0
0, 0
1, 0
0, 0
1, 0
0, 0
0, 0
0, 0
0, 0
0, 0
0, 1
0, 0
0, 0
0, 1
0, 0
0, 0
1, 0
0, 0
1, 0
0, 0
0, 0
0, 0
0, 0
0, 0
0, 0
0, 0
0, 0
0, 1
0, 0
0, 0
0, 0
0, 0
0, 0
0, 0
0, 0
0, 0
0, 0
0, 0
0, 0
0, 0
0, 0
0, 0
0, 0
0, 0
0, 0
0, 0
0, 0
0, 0
0, 0
0, 0
0, 0
0, 0
0, 0
0, 0
0, 0
0, 0
0, 0
0, 0
0, 0
0, 0
0, 0
0, 0
0, 0
0, 0
0, 0
0, 0
0, 0
0, 0
0, 0
0, 0
0, 0
0, 0
0, 0
0, 0
0, 0
0, 0
0, 0
0, 0
0, 0
0, 0
0, 0
0, 0
0, 0
0, 0
0, 0
0, 0
0, 0
0, 0
0, 0
0, 0
0, 0
0, 0
0, 0
0, 0
0, 0
0, 0
0, 0
0, 0
0, 0
0, 0
0, 0
0, 0
0, 0
0, 0
0, 0
0, 0
0, 0
0, 0
0, 0
0, 0
0, 0
0, 0
0, 0
0, 0
0, 0
0, 0
0, 0
0, 0
0, 0
0, 0
0, 0
0, 0
#ENDOFDATA     end of spectrum data

File: ps__0257_0689790785_000rfs_shot_3162.msa
#FORMAT      : EMSA/MAS spectral data file
#VERSION     : TC202v2.0 PIXL
#TITLE       : N/A
#DATE        :       Date in the format DD-MMM-YYYY, for example 07-JUL-2010
#TIME        :             The time of day at which the spectrum was recorded, in 24-hour format
#OWNER       : PIXL Flight Model       (PIXL will use this to indicate which instrument took the data.)
#NPOINTS     : 4096     Number of data points in the spectrum (This can be zero for configuration only files)
#NCOLUMNS    : 2     Number of data columns in the spectrum (This can be zero for configuration only files)
#XUNITS      : eV
#YUNITS      : COUNTS
#DATATYPE    : YY
#XPERCHAN    : 7.862, 7.881   eV per channel (separate by commas if more than one detector)
#OFFSET      : 18.5, -22.4         eV of first channel  (separate by commas if more than one detector
#SIGNALTYPE  : XRF
#YP_TEMP     : 3.133
#LIVETIME    : 8.98476, 8.9909   seconds (separate by commas if more than one detector)
#REALTIME    : 10, 10.0   seconds (separate by commas if more than one detector)
#SPECTRUM    : start of spectrum data
0, 0
0, 0
0, 0
0, 0
0, 0
0, 0
0, 0
0, 0
0, 1
1, 1
2, 3
33, 33
25, 40
5, 3
6, 9
82, 77
526, 509
89, 93
5, 6
3, 1
4, 5
13, 8
4, 10
13, 8
68, 52
97, 77
43, 40
19, 21
5, 7
4, 0
2, 6
2, 4
13, 7
32, 29
48, 35
9, 5
7, 3
12, 14
13, 20
10, 14
14, 15
49, 39
35, 33
23, 22
8, 12
7, 12
8, 9
9, 7
15, 17
19, 29
20, 17
14, 20
15, 24
63, 77
93, 108
40, 27
40, 48
685, 792
3721, 3715
2211, 1873
193, 125
21, 28
33, 43
145, 203
521, 533
303, 267
28, 26
6, 13
16, 7
6, 7
3, 2
4, 6
2, 6
2, 1
4, 8
11, 2
8, 1
1, 7
4, 5
2, 2
5, 2
2, 5
4, 3
5, 2
1, 4
6, 3
4, 5
5, 10
5, 1
2, 4
1, 1
8, 0
4, 1
4, 4
4, 3
5, 2
2, 4
2, 2
2, 3
2, 2
0, 2
2, 0
0, 1
3, 1
0, 2
1, 3
2, 3
2, 1
2, 2
1, 4
2, 1
4, 3
2, 4
1, 4
2, 1
1, 1
6, 8
4, 6
4, 1
3, 1
0, 0
2, 0
1, 6
3, 2
1, 1
2, 0
1, 3
0, 1
1, 2
1, 1
2, 1
0, 1
0, 1
0, 0
1, 1
0, 0
0, 0
1, 1
1, 1
1, 0
1, 0
1, 0
0, 1
0, 0
0, 0
0, 0
0, 0
0, 1
0, 0
0, 0
0, 0
0, 0
1, 1
0, 0
0, 0
0, 0
0, 0
0, 0
0, 0
0, 0
0, 0
1, 0
0, 0
1, 1
0, 0
1, 1
0, 0
0, 1
0, 1
0, 1
0, 0
0, 1
0, 0
1, 0
0, 0
0, 0
1, 0
0, 0
0, 0
0, 0
0, 0
0, 0
0, 0
0, 1
0, 1
0, 0
0, 0
0, 0
0, 0
0, 0
0, 0
0, 0
0, 0
0, 0
0, 0
1, 0
1, 0
0, 0
0, 0
0, 0
0, 0
0, 0
0, 0
0, 0
0, 0
0, 0
0, 0
0, 0
0, 0
0, 0
0, 0
0, 0
0, 0
0, 0
0, 0
0, 0
0, 0
0, 0
0, 0
0, 0
0, 0
0, 0
0, 0
0, 0
0, 0
0, 0
0, 0
0, 0
0, 0
0, 0
0, 0
0, 0
0, 0
0, 0
0, 0
0, 0
0, 0
0, 0
0, 0
0, 0
0, 0
0, 0
0, 0
0, 0
0, 0
0, 0
0, 0
0, 0
0, 0
0, 0
0, 0
0, 0
0, 0
0, 0
0, 0
0, 0
0, 0
0, 0
0, 0
0, 0
0, 0
0, 0
0, 0
0, 0
0, 0
0, 0
0, 0
0, 0
0, 0
0, 0
0, 0
0, 0
0, 0
0, 0
0, 0
0, 0
0, 0
0, 0
0, 0
0, 0
0, 0
0, 0
0, 0
0, 0
0, 0
0, 0
0, 0
0, 0
0, 0
0, 0
0, 0
0, 0
0, 0
0, 0
#ENDOFDATA     end of spectrum data

File: ps__0257_0689790785_000rfs_shot_3163.msa
#FORMAT      : EMSA/MAS spectral data file
#VERSION     : TC202v2.0 PIXL
#TITLE       : N/A
#DATE        :       Date in the format DD-MMM-YYYY, for example 07-JUL-2010
#TIME        :             The time of day at which the spectrum was recorded, in 24-hour format
#OWNER       : PIXL Flight Model       (PIXL will use this to indicate which instrument took the data.)
#NPOINTS     : 4096     Number of data points in the spectrum (This can be zero for configuration only files)
#NCOLUMNS    : 2     Number of data columns in the spectrum (This can be zero for configuration only files)
#XUNITS      : eV
#YUNITS      : COUNTS
#DATATYPE    : YY
#XPERCHAN    : 7.862, 7.881   eV per channel (separate by commas if more than one detector)
#OFFSET      : 18.5, -22.4         eV of first channel  (separate by commas if more than one detector
#SIGNALTYPE  : XRF
#YP_TEMP     : 3.101
#LIVETIME    : 8.97654, 8.99933   seconds (separate by commas if more than one detector)
#REALTIME    : 10, 10.0   seconds (separate by commas if more than one detector)
#SPECTRUM    : start of spectrum data
0, 0
0, 0
0, 0
0, 0
0, 0
0, 0
0, 0
0, 0
0, 2
2, 2
1, 2
38, 14
45, 29
6, 5
3, 9
82, 64
525, 444
98, 64
5, 3
0, 3
1, 3
5, 11
6, 10
22, 19
56, 65
74, 76
34, 36
18, 13
4, 4
5, 3
6, 7
2, 4
7, 13
46, 37
32, 37
12, 7
17, 13
10, 8
12, 13
10, 8
17, 20
42, 43
34, 35
23, 17
11, 9
23, 19
9, 17
15, 9
24, 14
31, 41
28, 27
11, 11
18, 23
59, 59
111, 75
38, 24
41, 40
735, 747
3788, 3591
2365, 1793
223, 130
32, 28
37, 34
150, 143
551, 558
342, 241
21, 14
7, 8
11, 11
7, 4
5, 0
0, 4
5, 4
4, 2
2, 7
6, 7
7, 6
4, 4
3, 4
3, 2
3, 4
2, 4
3, 3
3, 3
7, 9
8, 2
5, 4
8, 2
8, 5
2, 2
5, 3
4, 1
3, 1
1, 4
0, 2
4, 3
3, 4
2, 2
3, 2
5, 1
1, 2
1, 1
3, 1
2, 1
5, 0
1, 4
1, 2
2, 3
3, 3
0, 1
0, 1
4, 2
1, 1
1, 1
1, 2
7, 6
10, 4
6, 1
0, 2
1, 3
1, 1
5, 0
3, 1
1, 3
0, 2
0, 1
1, 2
0, 0
2, 2
0, 2
0, 1
1, 0
0, 0
0, 1
1, 0
1, 1
2, 2
0, 1
0, 0
1, 0
0, 1
0, 0
0, 0
1, 0
0, 1
0, 1
0, 0
0, 0
0, 0
0, 1
0, 0
2, 0
0, 2
1, 1
0, 0
2, 0
0, 0
0, 0
0, 0
0, 0
0, 0
0, 0
0, 1
0, 0
0, 0
0, 0
0, 0
0, 0
0, 0
0, 0
1, 0
0, 0
0, 0
0, 1
0, 1
0, 0
0, 0
1, 0
0, 0
0, 1
0, 0
0, 0
0, 0
1, 0
0, 0
0, 0
0, 0
0, 0
0, 0
0, 0
0, 0
0, 1
0, 0
0, 0
0, 1
0, 0
0, 0
0, 0
0, 0
0, 0
0, 0
0, 0
0, 0
0, 0
0, 0
0, 0
0, 0
0, 0
0, 0
0, 0
0, 0
0, 0
0, 0
0, 0
0, 0
0, 0
0, 0
0, 0
0, 0
0, 0
0, 0
0, 0
0, 0
0, 0
0, 0
0, 0
0, 0
0, 0
0, 0
0, 0
0, 0
0, 0
0, 0
0, 0
0, 0
0, 0
0, 0
0, 0
0, 0
0, 0
0, 0
0, 0
0, 0
0, 0
0, 0
0, 0
0, 0
0, 0
0, 0
0, 0
0, 0
0, 0
0, 0
0, 0
0, 0
0, 0
0, 0
0, 0
0, 0
0, 0
0, 0
0, 0
0, 0
0, 0
0, 0
0, 0
0, 0
0, 0
0, 0
0, 0
0, 0
0, 0
0, 0
0, 0
0, 0
0, 0
0, 0
0, 0
0, 0
0, 0
0, 0
0, 0
0, 0
0, 0
0, 0
0, 0
0, 0
0, 0
0, 0
0, 0
0, 0
0, 0
0, 0
0, 0
#ENDOFDATA     end of spectrum data

File: ps__0257_0689790785_000rfs_shot_3164.msa
#FORMAT      : EMSA/MAS spectral data file
#VERSION     : TC202v2.0 PIXL
#TITLE       : N/A
#DATE        :       Date in the format DD-MMM-YYYY, for example 07-JUL-2010
#TIME        :             The time of day at which the spectrum was recorded, in 24-hour format
#OWNER       : PIXL Flight Model       (PIXL will use this to indicate which instrument took the data.)
#NPOINTS     : 4096     Number of data points in the spectrum (This can be zero for configuration only files)
#NCOLUMNS    : 2     Number of data columns in the spectrum (This can be zero for configuration only files)
#XUNITS      : eV
#YUNITS      : COUNTS
#DATATYPE    : YY
#XPERCHAN    : 7.862, 7.881   eV per channel (separate by commas if more than one detector)
#OFFSET      : 18.5, -22.4         eV of first channel  (separate by commas if more than one detector
#SIGNALTYPE  : XRF
#YP_TEMP     : 2.973
#LIVETIME    : 9.06887, 9.01818   seconds (separate by commas if more than one detector)
#REALTIME    : 10, 10.0   seconds (separate by commas if more than one detector)
#SPECTRUM    : start of spectrum data
0, 0
0, 0
0, 0
0, 0
0, 0
0, 0
0, 0
0, 0
0, 1
3, 2
2, 0
15, 15
18, 24
10, 14
25, 48
69, 84
399, 541
78, 77
5, 5
0, 4
1, 3
6, 6
3, 10
13, 34
51, 58
61, 58
22, 30
14, 11
8, 4
2, 16
17, 58
17, 35
6, 7
20, 29
32, 64
7, 26
7, 19
3, 4
6, 11
5, 9
80, 147
336, 616
116, 198
13, 30
23, 45
61, 126
29, 29
7, 9
34, 73
237, 471
161, 227
29, 37
31, 15
51, 77
84, 145
44, 47
23, 31
398, 666
2205, 2925
1350, 1434
105, 103
13, 18
34, 33
97, 136
316, 400
194, 229
23, 14
5, 10
5, 8
3, 8
5, 2
3, 9
3, 1
5, 5
5, 3
10, 3
8, 7
2, 10
0, 6
4, 4
3, 3
1, 4
4, 3
2, 8
3, 6
3, 4
1, 2
4, 8
0, 0
1, 3
1, 3
4, 4
4, 3
1, 7
5, 0
2, 2
4, 2
1, 0
1, 2
5, 7
1, 2
5, 3
4, 2
3, 0
2, 3
0, 3
2, 5
1, 4
0, 5
3, 3
0, 1
1, 1
1, 2
1, 1
0, 2
2, 2
4, 2
1, 5
2, 2
0, 2
0, 0
3, 1
0, 3
1, 0
3, 1
1, 1
0, 0
0, 0
2, 1
2, 0
1, 1
2, 2
1, 1
1, 1
1, 1
0, 1
0, 1
1, 0
0, 0
0, 0
0, 0
0, 0
1, 1
1, 0
1, 0
1, 0
0, 2
1, 0
0, 1
0, 0
0, 0
0, 0
0, 0
1, 0
0, 0
0, 0
0, 0
0, 0
0, 0
0, 0
0, 1
0, 0
0, 1
1, 0
0, 0
0, 1
0, 1
0, 0
0, 1
0, 0
1, 0
0, 0
0, 0
0, 0
0, 0
0, 0
0, 0
0, 0
0, 0
0, 0
1, 0
0, 0
0, 0
0, 0
0, 0
0, 0
0, 0
0, 0
0, 0
0, 0
0, 0
0, 0
0, 0
0, 0
0, 0
0, 0
0, 0
0, 0
0, 0
0, 0
0, 0
0, 0
0, 0
0, 0
0, 0
0, 0
1, 0
0, 0
0, 0
0, 0
0, 0
0, 0
0, 0
0, 0
0, 0
0, 0
0, 0
0, 0
0, 0
0, 0
0, 0
0, 0
0, 0
0, 0
0, 0
0, 0
0, 0
0, 0
0, 0
0, 0
0, 0
0, 0
0, 0
0, 0
0, 0
0, 0
0, 0
0, 0
0, 0
0, 0
0, 0
0, 0
0, 0
0, 0
0, 0
0, 0
0, 0
0, 0
0, 0
0, 0
0, 0
0, 0
0, 0
0, 0
0, 0
0, 0
0, 0
0, 0
0, 0
0, 0
0, 0
0, 0
0, 0
0, 0
0, 0
0, 0
0, 0
0, 0
0, 0
0, 0
0, 0
0, 0
0, 0
0, 0
0, 0
0, 0
0, 0
0, 0
0, 0
0, 0
0, 0
0, 0
0, 0
0, 0
0, 0
0, 0
0, 0
0, 0
0, 0
0, 0
0, 0
0, 0
0, 0
0, 0
#ENDOFDATA     end of spectrum data

File: ps__0257_0689790785_000rfs_shot_3165.msa
#FORMAT      : EMSA/MAS spectral data file
#VERSION     : TC202v2.0 PIXL
#TITLE       : N/A
#DATE        :       Date in the format DD-MMM-YYYY, for example 07-JUL-2010
#TIME        :             The time of day at which the spectrum was recorded, in 24-hour format
#OWNER       : PIXL Flight Model       (PIXL will use this to indicate which instrument took the data.)
#NPOINTS     : 4096     Number of data points in the spectrum (This can be zero for configuration only files)
#NCOLUMNS    : 2     Number of data columns in the spectrum (This can be zero for configuration only files)
#XUNITS      : eV
#YUNITS      : COUNTS
#DATATYPE    : YY
#XPERCHAN    : 7.862, 7.881   eV per channel (separate by commas if more than one detector)
#OFFSET      : 18.5, -22.4         eV of first channel  (separate by commas if more than one detector
#SIGNALTYPE  : XRF
#YP_TEMP     : 2.973
#LIVETIME    : 9.00706, 9.00756   seconds (separate by commas if more than one detector)
#REALTIME    : 10, 10.0   seconds (separate by commas if more than one detector)
#SPECTRUM    : start of spectrum data
0, 0
0, 0
0, 0
0, 0
0, 0
0, 0
0, 0
0, 0
2, 2
2, 1
3, 6
12, 14
12, 16
17, 17
23, 39
72, 74
475, 489
80, 90
9, 3
2, 6
2, 2
11, 9
5, 25
16, 28
71, 60
56, 36
16, 29
17, 19
3, 5
6, 8
28, 33
10, 21
10, 8
9, 18
21, 26
14, 15
23, 23
16, 22
6, 4
9, 13
133, 157
738, 807
242, 265
23, 22
62, 58
119, 155
38, 38
9, 11
72, 83
502, 575
311, 322
63, 26
70, 25
62, 75
126, 119
46, 53
25, 28
472, 639
2519, 2784
1573, 1346
103, 103
16, 23
22, 21
107, 142
374, 432
212, 177
21, 14
4, 9
12, 5
5, 6
2, 0
1, 6
7, 4
4, 8
6, 9
3, 7
3, 6
3, 2
6, 8
2, 7
5, 4
4, 4
2, 2
4, 3
3, 4
2, 3
7, 3
8, 2
3, 1
3, 8
4, 9
4, 4
4, 2
3, 4
2, 3
1, 5
0, 4
4, 6
3, 4
5, 2
4, 5
7, 1
5, 2
2, 3
1, 3
0, 3
1, 1
3, 2
5, 0
2, 1
0, 0
0, 0
1, 0
1, 1
3, 2
2, 0
3, 7
2, 2
4, 3
2, 0
1, 3
0, 3
1, 3
0, 2
1, 3
0, 2
0, 0
0, 0
0, 1
2, 1
0, 2
2, 1
0, 0
1, 2
1, 0
1, 1
1, 0
0, 1
0, 0
0, 0
1, 0
0, 0
0, 0
2, 0
0, 3
0, 0
0, 0
1, 0
1, 0
0, 1
1, 0
0, 0
0, 0
0, 0
0, 0
0, 0
1, 0
0, 0
0, 1
0, 0
0, 0
0, 1
0, 0
0, 0
0, 0
0, 0
2, 0
0, 0
1, 0
0, 0
0, 0
0, 0
0, 0
0, 1
0, 1
0, 0
0, 0
0, 0
0, 0
0, 0
0, 0
0, 0
0, 0
0, 0
0, 0
0, 0
0, 0
0, 0
0, 1
0, 0
0, 0
0, 0
0, 0
0, 0
0, 0
0, 0
0, 0
0, 0
0, 0
0, 0
0, 0
0, 0
0, 0
0, 0
0, 0
0, 0
0, 0
0, 0
0, 0
0, 0
0, 0
0, 0
0, 0
0, 0
0, 0
0, 0
0, 0
0, 0
0, 0
0, 0
0, 0
0, 0
0, 0
0, 0
0, 0
0, 0
0, 0
0, 0
0, 0
0, 0
0, 0
0, 0
0, 0
0, 0
0, 0
0, 0
0, 0
0, 0
0, 0
0, 0
0, 0
0, 0
0, 0
0, 0
0, 0
0, 0
0, 0
0, 0
0, 0
0, 0
0, 0
0, 0
0, 0
0, 0
0, 0
0, 0
0, 0
0, 0
0, 0
0, 0
0, 0
0, 0
0, 0
0, 0
0, 0
0, 0
0, 0
0, 0
0, 0
0, 0
0, 0
0, 0
0, 0
0, 0
0, 0
0, 0
0, 0
0, 0
0, 0
0, 0
0, 0
0, 0
0, 0
0, 0
0, 0
0, 0
0, 0
0, 0
0, 0
0, 0
0, 0
0, 0
0, 0
0, 0
#ENDOFDATA     end of spectrum data

File: ps__0257_0689790785_000rfs_shot_3166.msa
#FORMAT      : EMSA/MAS spectral data file
#VERSION     : TC202v2.0 PIXL
#TITLE       : N/A
#DATE        :       Date in the format DD-MMM-YYYY, for example 07-JUL-2010
#TIME        :             The time of day at which the spectrum was recorded, in 24-hour format
#OWNER       : PIXL Flight Model       (PIXL will use this to indicate which instrument took the data.)
#NPOINTS     : 4096     Number of data points in the spectrum (This can be zero for configuration only files)
#NCOLUMNS    : 2     Number of data columns in the spectrum (This can be zero for configuration only files)
#XUNITS      : eV
#YUNITS      : COUNTS
#DATATYPE    : YY
#XPERCHAN    : 7.862, 7.881   eV per channel (separate by commas if more than one detector)
#OFFSET      : 18.5, -22.4         eV of first channel  (separate by commas if more than one detector
#SIGNALTYPE  : XRF
#YP_TEMP     : 3.133
#LIVETIME    : 9.00359, 9.01069   seconds (separate by commas if more than one detector)
#REALTIME    : 10, 10.0   seconds (separate by commas if more than one detector)
#SPECTRUM    : start of spectrum data
0, 0
0, 0
0, 0
0, 0
0, 0
0, 0
0, 0
0, 0
0, 0
3, 3
5, 2
34, 20
32, 34
4, 4
9, 10
78, 82
611, 482
110, 81
3, 3
4, 2
2, 3
3, 3
5, 3
13, 10
54, 63
46, 40
24, 21
14, 10
4, 9
6, 2
5, 6
6, 2
4, 1
24, 16
23, 23
9, 25
35, 58
24, 21
7, 3
1, 3
10, 12
39, 42
28, 24
17, 7
30, 7
16, 15
5, 8
8, 4
6, 11
23, 27
24, 19
16, 14
14, 15
64, 59
84, 90
27, 22
29, 40
645, 749
3664, 3403
2342, 1757
163, 122
21, 13
34, 26
147, 183
563, 534
307, 207
25, 18
3, 12
6, 15
4, 4
4, 5
3, 10
4, 19
9, 3
9, 10
4, 5
5, 4
3, 4
2, 7
2, 3
2, 8
5, 11
4, 7
4, 2
3, 1
2, 1
5, 5
11, 2
4, 1
6, 4
5, 5
4, 3
5, 4
13, 3
9, 2
15, 5
5, 1
1, 0
1, 5
5, 7
1, 3
6, 3
1, 4
5, 1
1, 2
5, 0
4, 1
0, 0
2, 2
0, 1
2, 2
4, 2
3, 2
1, 6
3, 5
0, 3
9, 9
3, 7
3, 0
2, 2
1, 1
4, 0
2, 1
3, 1
5, 3
1, 0
1, 1
1, 0
2, 1
2, 1
3, 0
1, 0
2, 1
0, 1
1, 1
1, 0
0, 0
1, 2
0, 0
0, 0
0, 0
1, 1
0, 0
0, 0
0, 0
2, 1
1, 0
0, 0
0, 0
3, 0
0, 0
0, 0
0, 0
1, 3
0, 1
1, 0
1, 0
1, 1
0, 0
0, 0
0, 1
0, 0
0, 0
0, 1
0, 0
0, 0
0, 1
0, 0
0, 0
0, 0
0, 0
0, 0
0, 0
0, 0
0, 0
0, 0
0, 1
0, 0
0, 0
0, 0
0, 0
0, 0
0, 0
0, 0
0, 0
1, 1
0, 0
0, 0
0, 0
0, 0
0, 0
0, 0
1, 0
0, 0
0, 0
0, 0
0, 0
0, 0
0, 0
0, 0
0, 0
0, 0
0, 0
0, 0
0, 0
0, 0
0, 0
0, 0
0, 0
0, 0
0, 0
0, 0
0, 0
0, 0
0, 0
0, 0
0, 0
0, 0
0, 0
0, 0
0, 0
0, 0
0, 0
0, 0
0, 0
0, 0
0, 0
0, 0
0, 0
0, 0
0, 0
0, 0
0, 0
0, 0
0, 0
0, 0
0, 0
0, 0
0, 0
0, 0
0, 0
0, 0
0, 0
0, 0
0, 0
0, 0
0, 0
0, 0
0, 0
0, 0
0, 0
0, 0
0, 0
0, 0
0, 0
0, 0
0, 0
0, 0
0, 0
0, 0
0, 0
0, 0
0, 0
0, 0
0, 0
0, 0
0, 0
0, 0
0, 0
0, 0
0, 0
0, 0
0, 0
0, 0
0, 0
0, 0
0, 0
0, 0
0, 0
0, 0
0, 0
0, 0
0, 0
0, 0
0, 0
0, 0
0, 0
0, 0
0, 0
0, 0
0, 0
0, 0
0, 0
0, 0
#ENDOFDATA     end of spectrum data