Folder: data-repository/host_upload/12-01-2023/Dourbes (shot-by-shot)/upload_4 (part 16)

File: ps__0257_0689790785_000rfs_shot_3279.msa
#FORMAT      : EMSA/MAS spectral data file
#VERSION     : TC202v2.0 PIXL
#TITLE       : N/A
#DATE        :       Date in the format DD-MMM-YYYY, for example 07-JUL-2010
#TIME        :             The time of day at which the spectrum was recorded, in 24-hour format
#OWNER       : PIXL Flight Model       (PIXL will use this to indicate which instrument took the data.)
#NPOINTS     : 4096     Number of data points in the spectrum (This can be zero for configuration only files)
#NCOLUMNS    : 2     Number of data columns in the spectrum (This can be zero for configuration only files)
#XUNITS      : eV
#YUNITS      : COUNTS
#DATATYPE    : YY
#XPERCHAN    : 7.862, 7.881   eV per channel (separate by commas if more than one detector)
#OFFSET      : 18.5, -22.4         eV of first channel  (separate by commas if more than one detector
#SIGNALTYPE  : XRF
#YP_TEMP     : 3.294
#LIVETIME    : 9.11994, 9.1363   seconds (separate by commas if more than one detector)
#REALTIME    : 10, 10.0   seconds (separate by commas if more than one detector)
#SPECTRUM    : start of spectrum data
0, 0
0, 0
0, 0
0, 0
0, 0
0, 0
0, 0
0, 0
1, 0
2, 1
3, 1
25, 20
23, 23
3, 6
17, 14
133, 122
921, 932
153, 133
16, 19
5, 4
1, 7
5, 6
5, 2
4, 2
17, 17
23, 18
9, 10
12, 21
5, 8
5, 1
2, 3
4, 4
20, 30
637, 694
1050, 1051
97, 77
127, 107
157, 127
26, 16
1, 1
14, 11
24, 37
29, 16
3, 7
6, 1
8, 8
5, 16
4, 18
11, 12
59, 49
30, 33
3, 5
7, 4
28, 30
47, 48
25, 13
157, 12
542, 262
1264, 1138
687, 572
60, 32
5, 7
12, 11
52, 51
210, 199
113, 73
7, 16
5, 12
7, 9
3, 2
3, 6
0, 4
4, 2
6, 3
6, 3
12, 2
6, 9
3, 7
4, 8
4, 3
4, 3
5, 5
8, 7
6, 4
4, 10
7, 30
5, 36
5, 14
6, 4
4, 6
2, 2
8, 7
7, 9
3, 6
6, 6
5, 4
1, 2
2, 4
2, 3
5, 2
0, 1
3, 3
1, 1
6, 7
7, 7
19, 2
10, 0
3, 0
5, 7
0, 2
1, 4
1, 1
2, 3
3, 1
2, 0
3, 2
4, 0
6, 1
2, 3
2, 2
5, 1
2, 0
1, 0
0, 1
3, 0
2, 0
1, 2
2, 0
1, 0
1, 1
1, 0
0, 2
1, 1
0, 1
2, 0
1, 0
1, 0
2, 1
1, 2
1, 0
0, 1
0, 3
1, 0
2, 0
1, 0
0, 1
1, 0
1, 2
1, 0
1, 0
1, 0
0, 0
0, 0
0, 0
0, 2
1, 0
1, 0
0, 0
0, 0
0, 0
0, 0
0, 0
1, 0
0, 0
0, 1
1, 0
0, 0
0, 1
0, 0
0, 0
0, 0
1, 0
0, 1
0, 0
0, 0
0, 0
0, 1
0, 0
0, 0
1, 0
0, 0
0, 0
1, 0
0, 0
0, 0
0, 0
0, 0
0, 0
0, 0
0, 0
0, 0
0, 0
0, 0
0, 0
0, 1
0, 1
0, 0
0, 0
0, 0
0, 0
0, 0
0, 0
0, 0
0, 0
0, 0
0, 0
1, 0
0, 0
0, 0
0, 0
0, 0
0, 0
0, 0
0, 0
0, 0
0, 0
0, 0
0, 0
0, 0
0, 0
0, 0
0, 0
1, 0
0, 0
0, 0
0, 0
0, 0
0, 0
0, 0
0, 0
0, 0
0, 0
0, 0
0, 0
0, 0
0, 0
0, 0
0, 0
0, 0
0, 0
0, 0
0, 0
0, 0
0, 0
0, 0
0, 0
0, 0
0, 0
0, 0
0, 0
0, 0
0, 0
0, 0
0, 0
0, 0
0, 0
0, 0
0, 0
0, 0
0, 0
0, 0
0, 0
0, 0
0, 0
0, 0
0, 0
0, 0
0, 0
0, 0
0, 0
0, 0
0, 0
0, 0
0, 0
0, 0
0, 0
0, 0
0, 0
0, 0
0, 0
0, 0
0, 0
0, 0
0, 0
0, 0
0, 0
0, 0
0, 0
0, 0
0, 0
0, 0
0, 0
0, 0
0, 0
#ENDOFDATA     end of spectrum data

File: ps__0257_0689790785_000rfs_shot_3286.msa
#FORMAT      : EMSA/MAS spectral data file
#VERSION     : TC202v2.0 PIXL
#TITLE       : N/A
#DATE        :       Date in the format DD-MMM-YYYY, for example 07-JUL-2010
#TIME        :             The time of day at which the spectrum was recorded, in 24-hour format
#OWNER       : PIXL Flight Model       (PIXL will use this to indicate which instrument took the data.)
#NPOINTS     : 4096     Number of data points in the spectrum (This can be zero for configuration only files)
#NCOLUMNS    : 2     Number of data columns in the spectrum (This can be zero for configuration only files)
#XUNITS      : eV
#YUNITS      : COUNTS
#DATATYPE    : YY
#XPERCHAN    : 7.862, 7.881   eV per channel (separate by commas if more than one detector)
#OFFSET      : 18.5, -22.4         eV of first channel  (separate by commas if more than one detector
#SIGNALTYPE  : XRF
#YP_TEMP     : 3.454
#LIVETIME    : 9.11803, 9.12515   seconds (separate by commas if more than one detector)
#REALTIME    : 10, 10.0   seconds (separate by commas if more than one detector)
#SPECTRUM    : start of spectrum data
0, 0
0, 0
0, 0
0, 0
0, 0
0, 0
0, 0
0, 0
0, 1
1, 0
0, 0
24, 23
16, 25
14, 13
29, 35
152, 114
818, 854
136, 138
17, 12
10, 6
5, 5
5, 5
6, 3
6, 13
42, 64
45, 51
24, 32
15, 51
5, 26
3, 7
24, 26
22, 11
19, 20
438, 449
731, 633
56, 78
65, 120
93, 74
13, 8
4, 5
10, 25
52, 51
33, 18
1, 9
11, 14
14, 6
13, 5
7, 10
5, 10
32, 30
30, 29
3, 6
11, 14
39, 41
68, 54
21, 23
58, 20
348, 310
1447, 1528
989, 732
59, 61
12, 10
15, 24
57, 63
254, 240
151, 114
11, 13
13, 9
8, 5
8, 3
3, 5
7, 3
10, 8
2, 3
6, 5
6, 9
6, 5
9, 5
10, 6
5, 8
4, 6
5, 3
3, 3
13, 3
5, 4
1, 7
9, 12
4, 9
6, 11
3, 5
5, 2
12, 2
7, 7
8, 9
6, 3
4, 2
5, 3
1, 3
6, 4
1, 2
2, 2
3, 2
2, 2
1, 2
7, 2
0, 4
5, 4
7, 1
4, 5
1, 0
5, 4
1, 6
2, 4
3, 2
2, 2
1, 1
5, 3
1, 2
1, 3
0, 2
3, 0
2, 0
1, 1
1, 2
1, 1
1, 0
1, 1
0, 0
2, 1
1, 1
2, 1
0, 0
0, 2
2, 0
0, 2
0, 1
0, 1
2, 1
1, 1
0, 1
1, 0
0, 2
0, 0
0, 1
0, 0
0, 1
0, 1
0, 0
1, 2
1, 0
0, 0
1, 1
0, 0
0, 1
0, 0
0, 0
0, 2
1, 0
1, 0
1, 0
0, 0
0, 0
0, 0
1, 0
1, 0
0, 0
0, 0
0, 0
0, 0
0, 1
1, 0
0, 0
0, 0
0, 0
0, 0
0, 1
0, 0
0, 0
0, 0
1, 1
0, 0
0, 0
0, 0
0, 0
0, 1
0, 0
0, 0
0, 0
0, 0
0, 0
0, 0
0, 0
0, 0
0, 0
0, 0
0, 0
0, 0
0, 0
0, 0
0, 0
0, 0
0, 0
0, 0
0, 0
0, 0
0, 0
0, 0
0, 0
0, 0
0, 0
0, 0
0, 0
0, 0
0, 0
0, 0
0, 0
0, 0
0, 0
0, 0
0, 0
0, 0
0, 0
1, 0
0, 0
0, 0
0, 0
0, 0
0, 0
0, 0
0, 0
0, 0
0, 0
0, 0
0, 0
0, 0
0, 0
0, 0
0, 0
0, 0
0, 0
0, 0
0, 0
0, 0
0, 0
0, 0
0, 0
0, 0
0, 0
0, 0
0, 0
0, 0
0, 0
0, 0
0, 0
0, 0
0, 0
0, 0
0, 0
0, 0
0, 0
0, 0
0, 0
0, 0
0, 0
0, 0
0, 0
0, 0
0, 0
0, 0
0, 0
0, 0
0, 0
0, 0
0, 0
0, 0
0, 0
0, 0
0, 0
0, 0
0, 0
0, 0
0, 0
0, 0
0, 0
0, 0
0, 0
0, 0
0, 0
0, 0
0, 0
0, 0
0, 0
0, 0
0, 0
#ENDOFDATA     end of spectrum data

File: ps__0257_0689790785_000rfs_shot_3287.msa
#FORMAT      : EMSA/MAS spectral data file
#VERSION     : TC202v2.0 PIXL
#TITLE       : N/A
#DATE        :       Date in the format DD-MMM-YYYY, for example 07-JUL-2010
#TIME        :             The time of day at which the spectrum was recorded, in 24-hour format
#OWNER       : PIXL Flight Model       (PIXL will use this to indicate which instrument took the data.)
#NPOINTS     : 4096     Number of data points in the spectrum (This can be zero for configuration only files)
#NCOLUMNS    : 2     Number of data columns in the spectrum (This can be zero for configuration only files)
#XUNITS      : eV
#YUNITS      : COUNTS
#DATATYPE    : YY
#XPERCHAN    : 7.862, 7.881   eV per channel (separate by commas if more than one detector)
#OFFSET      : 18.5, -22.4         eV of first channel  (separate by commas if more than one detector
#SIGNALTYPE  : XRF
#YP_TEMP     : 3.23
#LIVETIME    : 9.00881, 9.00496   seconds (separate by commas if more than one detector)
#REALTIME    : 10, 10.0   seconds (separate by commas if more than one detector)
#SPECTRUM    : start of spectrum data
0, 0
0, 0
0, 0
0, 0
0, 0
0, 0
0, 0
0, 0
2, 1
0, 1
0, 1
21, 27
21, 32
4, 5
10, 10
82, 96
601, 625
79, 107
8, 5
6, 9
4, 3
7, 6
1, 4
10, 18
42, 59
37, 40
36, 24
18, 19
10, 7
5, 7
10, 9
5, 3
8, 6
93, 84
144, 129
23, 39
25, 46
31, 24
6, 10
3, 7
3, 11
24, 21
26, 26
13, 23
11, 11
12, 15
18, 6
9, 5
8, 6
15, 20
15, 10
13, 10
12, 14
44, 70
87, 70
41, 19
57, 45
628, 767
3224, 3610
1999, 1724
160, 102
18, 18
18, 14
132, 163
520, 536
254, 251
31, 20
8, 11
4, 10
9, 10
4, 5
4, 18
3, 21
4, 7
4, 7
3, 5
7, 3
7, 4
5, 1
4, 7
3, 4
1, 4
3, 7
8, 4
3, 3
2, 2
0, 4
2, 4
2, 4
2, 2
7, 4
2, 5
2, 4
10, 2
7, 3
6, 1
0, 1
7, 3
6, 2
1, 6
5, 1
2, 2
2, 4
2, 5
3, 1
2, 4
1, 2
3, 3
0, 1
2, 4
2, 2
2, 1
0, 2
1, 1
1, 2
2, 2
6, 10
6, 3
0, 2
2, 4
0, 0
2, 5
3, 4
3, 1
0, 0
3, 2
1, 0
0, 2
2, 1
2, 1
0, 0
2, 0
1, 1
1, 1
0, 0
0, 0
0, 0
0, 0
0, 0
1, 0
1, 1
1, 0
0, 1
0, 1
0, 0
2, 1
0, 0
0, 1
0, 1
0, 0
0, 0
0, 0
1, 0
1, 0
1, 0
0, 2
0, 0
0, 0
1, 1
0, 0
0, 0
0, 0
1, 0
0, 0
0, 0
0, 0
0, 1
0, 0
0, 1
0, 0
0, 1
0, 1
0, 0
0, 0
0, 0
0, 0
1, 0
0, 0
0, 0
0, 0
0, 0
0, 0
0, 0
0, 0
0, 0
0, 1
0, 0
0, 0
0, 0
0, 0
0, 1
0, 0
0, 0
0, 0
0, 0
0, 0
0, 0
0, 0
0, 0
0, 0
0, 0
0, 0
0, 0
0, 0
0, 0
0, 1
0, 0
0, 0
0, 0
0, 0
0, 0
0, 0
0, 0
0, 0
0, 0
0, 0
0, 0
0, 0
0, 0
0, 0
0, 0
0, 0
0, 0
0, 0
0, 0
0, 0
0, 0
0, 0
0, 0
0, 0
0, 0
0, 0
0, 0
0, 0
0, 0
0, 0
0, 0
0, 0
0, 0
0, 0
0, 0
0, 0
0, 0
0, 0
0, 0
0, 0
0, 0
0, 0
0, 0
0, 0
0, 0
0, 0
0, 0
0, 0
0, 0
0, 0
0, 0
0, 0
0, 0
0, 0
0, 0
0, 0
0, 0
0, 0
0, 0
0, 0
0, 0
0, 0
0, 0
0, 0
0, 0
0, 0
0, 0
0, 0
0, 0
0, 0
0, 0
0, 0
0, 0
0, 0
0, 0
0, 0
0, 0
0, 0
0, 0
0, 0
0, 0
0, 0
0, 0
0, 0
0, 0
0, 0
0, 0
0, 0
#ENDOFDATA     end of spectrum data

File: ps__0257_0689790785_000rfs_shot_3289.msa
#FORMAT      : EMSA/MAS spectral data file
#VERSION     : TC202v2.0 PIXL
#TITLE       : N/A
#DATE        :       Date in the format DD-MMM-YYYY, for example 07-JUL-2010
#TIME        :             The time of day at which the spectrum was recorded, in 24-hour format
#OWNER       : PIXL Flight Model       (PIXL will use this to indicate which instrument took the data.)
#NPOINTS     : 4096     Number of data points in the spectrum (This can be zero for configuration only files)
#NCOLUMNS    : 2     Number of data columns in the spectrum (This can be zero for configuration only files)
#XUNITS      : eV
#YUNITS      : COUNTS
#DATATYPE    : YY
#XPERCHAN    : 7.862, 7.881   eV per channel (separate by commas if more than one detector)
#OFFSET      : 18.5, -22.4         eV of first channel  (separate by commas if more than one detector
#SIGNALTYPE  : XRF
#YP_TEMP     : 3.165
#LIVETIME    : 8.99229, 9.00394   seconds (separate by commas if more than one detector)
#REALTIME    : 10, 10.0   seconds (separate by commas if more than one detector)
#SPECTRUM    : start of spectrum data
0, 0
0, 0
0, 0
0, 0
0, 0
0, 0
0, 0
0, 0
0, 1
4, 0
1, 3
22, 23
45, 34
4, 5
8, 8
89, 69
521, 491
104, 67
19, 7
14, 9
3, 2
16, 4
5, 12
3, 10
48, 47
52, 52
30, 13
15, 14
5, 5
1, 1
6, 1
6, 5
5, 8
40, 45
59, 70
13, 20
85, 31
54, 13
6, 6
5, 3
9, 11
16, 19
28, 25
17, 12
16, 12
12, 18
3, 15
5, 6
11, 13
20, 19
14, 19
9, 11
13, 14
68, 67
86, 76
42, 30
48, 33
703, 774
3804, 3635
2173, 1759
177, 103
7, 16
30, 23
154, 184
549, 521
306, 228
27, 16
8, 6
9, 8
8, 5
4, 2
9, 13
5, 7
3, 5
6, 6
3, 2
2, 4
4, 5
8, 4
4, 4
3, 6
0, 8
2, 3
1, 2
3, 3
1, 4
3, 2
1, 1
9, 3
0, 0
4, 7
4, 3
6, 2
5, 2
4, 2
3, 1
1, 1
2, 2
1, 3
2, 9
2, 2
5, 2
4, 2
3, 5
3, 3
4, 3
0, 3
2, 1
3, 1
0, 2
1, 1
2, 2
1, 2
1, 1
0, 2
4, 1
8, 8
7, 2
2, 2
1, 4
1, 3
2, 2
5, 2
4, 2
0, 1
0, 2
2, 1
0, 0
2, 0
1, 1
0, 0
3, 2
0, 0
1, 1
0, 2
0, 0
0, 1
1, 1
0, 2
0, 1
0, 0
0, 0
2, 0
0, 0
1, 0
2, 0
0, 0
0, 0
0, 0
0, 0
0, 0
1, 0
0, 0
0, 0
0, 1
0, 1
0, 1
0, 1
0, 1
1, 0
0, 0
0, 1
0, 0
0, 0
0, 0
1, 0
0, 0
0, 0
1, 0
0, 0
0, 0
0, 1
0, 0
0, 0
0, 0
0, 0
0, 1
0, 0
0, 0
0, 0
0, 0
0, 0
0, 0
0, 0
0, 0
0, 0
0, 1
0, 0
0, 1
0, 1
0, 0
0, 0
0, 0
0, 0
0, 1
0, 0
0, 0
0, 0
0, 0
0, 0
1, 0
0, 0
0, 0
0, 1
0, 0
1, 0
0, 0
0, 0
0, 0
0, 0
0, 0
0, 0
0, 0
0, 0
0, 0
0, 0
0, 0
0, 0
0, 0
0, 0
0, 0
0, 0
0, 0
0, 0
0, 0
0, 0
0, 0
0, 0
0, 0
0, 0
0, 0
0, 0
0, 0
0, 0
0, 0
0, 0
0, 0
0, 0
0, 0
0, 0
0, 0
0, 0
0, 0
0, 0
0, 0
0, 0
0, 0
0, 0
0, 0
0, 0
0, 0
0, 0
0, 0
0, 0
0, 0
0, 0
0, 0
0, 0
0, 0
0, 0
0, 0
0, 0
0, 0
0, 0
0, 0
0, 0
0, 0
0, 0
0, 0
0, 0
0, 0
0, 0
0, 0
0, 0
0, 0
0, 0
0, 0
0, 0
0, 0
0, 0
0, 0
0, 0
0, 0
0, 0
0, 0
0, 0
0, 0
0, 0
0, 0
0, 0
0, 0
0, 0
0, 0
0, 0
#ENDOFDATA     end of spectrum data

File: ps__0257_0689790785_000rfs_shot_3292.msa
#FORMAT      : EMSA/MAS spectral data file
#VERSION     : TC202v2.0 PIXL
#TITLE       : N/A
#DATE        :       Date in the format DD-MMM-YYYY, for example 07-JUL-2010
#TIME        :             The time of day at which the spectrum was recorded, in 24-hour format
#OWNER       : PIXL Flight Model       (PIXL will use this to indicate which instrument took the data.)
#NPOINTS     : 4096     Number of data points in the spectrum (This can be zero for configuration only files)
#NCOLUMNS    : 2     Number of data columns in the spectrum (This can be zero for configuration only files)
#XUNITS      : eV
#YUNITS      : COUNTS
#DATATYPE    : YY
#XPERCHAN    : 7.862, 7.881   eV per channel (separate by commas if more than one detector)
#OFFSET      : 18.5, -22.4         eV of first channel  (separate by commas if more than one detector
#SIGNALTYPE  : XRF
#YP_TEMP     : 3.037
#LIVETIME    : 8.99261, 8.99256   seconds (separate by commas if more than one detector)
#REALTIME    : 10, 10.0   seconds (separate by commas if more than one detector)
#SPECTRUM    : start of spectrum data
0, 0
0, 0
0, 0
0, 0
0, 0
0, 0
0, 0
0, 0
0, 1
1, 1
0, 3
38, 33
38, 31
9, 2
3, 7
83, 77
494, 456
91, 83
4, 4
1, 4
5, 1
3, 6
5, 3
9, 2
32, 36
30, 38
23, 28
15, 11
2, 2
5, 3
3, 2
5, 4
2, 1
8, 13
21, 22
9, 47
23, 91
12, 16
6, 3
2, 2
6, 3
15, 9
12, 20
19, 17
12, 7
5, 13
2, 9
4, 10
6, 7
11, 10
13, 8
13, 10
12, 16
59, 81
90, 94
26, 17
33, 50
677, 795
3717, 3914
2260, 1947
172, 135
23, 10
22, 26
159, 196
561, 593
318, 296
31, 22
5, 9
7, 11
7, 4
2, 10
1, 26
3, 17
4, 11
5, 9
7, 3
2, 6
4, 2
3, 6
5, 3
2, 5
1, 5
2, 3
6, 3
3, 3
2, 6
3, 3
0, 5
3, 2
3, 2
0, 7
1, 2
5, 2
10, 2
12, 3
7, 3
2, 4
3, 2
5, 7
2, 10
3, 4
5, 0
7, 3
1, 0
2, 1
2, 3
2, 2
2, 1
2, 5
4, 0
1, 2
3, 1
1, 2
0, 2
4, 1
2, 3
7, 6
6, 4
2, 0
2, 1
1, 3
4, 1
3, 3
1, 2
1, 3
1, 0
1, 1
1, 0
0, 2
1, 2
2, 1
2, 2
2, 1
0, 0
0, 0
0, 2
0, 2
1, 0
0, 0
0, 0
0, 0
0, 0
2, 0
0, 1
0, 0
1, 0
0, 0
0, 1
0, 0
0, 1
2, 1
1, 0
0, 1
0, 0
0, 0
0, 0
0, 1
1, 0
0, 0
0, 0
0, 1
0, 0
0, 0
1, 0
0, 1
0, 0
1, 1
0, 0
0, 0
0, 0
0, 0
1, 0
0, 0
0, 0
1, 0
0, 0
0, 1
0, 0
0, 0
0, 0
0, 0
0, 0
0, 0
0, 0
0, 0
1, 1
0, 0
0, 0
0, 0
0, 0
0, 0
0, 0
0, 1
0, 0
0, 0
0, 0
0, 0
0, 0
0, 0
0, 0
0, 0
0, 0
0, 0
0, 0
0, 0
0, 0
0, 0
0, 0
0, 0
0, 1
0, 0
0, 0
0, 0
0, 0
0, 0
0, 0
0, 0
0, 0
0, 0
0, 0
0, 1
0, 0
0, 0
0, 0
0, 0
0, 0
0, 0
0, 0
0, 0
0, 0
0, 0
0, 0
0, 0
0, 0
0, 0
0, 0
0, 0
0, 0
0, 0
0, 0
0, 0
0, 0
0, 0
0, 0
0, 0
0, 0
0, 0
0, 0
0, 0
0, 0
0, 0
0, 0
0, 0
0, 0
0, 0
0, 0
0, 0
0, 0
0, 0
0, 0
0, 0
0, 0
0, 0
0, 0
0, 0
0, 0
0, 0
0, 0
0, 0
0, 0
0, 0
0, 0
0, 0
0, 0
0, 0
0, 0
0, 0
0, 0
0, 0
0, 0
0, 0
0, 0
0, 0
0, 0
0, 0
0, 0
0, 0
0, 0
0, 0
0, 0
0, 0
0, 0
0, 0
0, 0
#ENDOFDATA     end of spectrum data

File: ps__0257_0689790785_000rfs_shot_3294.msa
#FORMAT      : EMSA/MAS spectral data file
#VERSION     : TC202v2.0 PIXL
#TITLE       : N/A
#DATE        :       Date in the format DD-MMM-YYYY, for example 07-JUL-2010
#TIME        :             The time of day at which the spectrum was recorded, in 24-hour format
#OWNER       : PIXL Flight Model       (PIXL will use this to indicate which instrument took the data.)
#NPOINTS     : 4096     Number of data points in the spectrum (This can be zero for configuration only files)
#NCOLUMNS    : 2     Number of data columns in the spectrum (This can be zero for configuration only files)
#XUNITS      : eV
#YUNITS      : COUNTS
#DATATYPE    : YY
#XPERCHAN    : 7.862, 7.881   eV per channel (separate by commas if more than one detector)
#OFFSET      : 18.5, -22.4         eV of first channel  (separate by commas if more than one detector
#SIGNALTYPE  : XRF
#YP_TEMP     : 2.909
#LIVETIME    : 8.9898, 9.00908   seconds (separate by commas if more than one detector)
#REALTIME    : 10, 10.0   seconds (separate by commas if more than one detector)
#SPECTRUM    : start of spectrum data
0, 0
0, 0
0, 0
0, 0
0, 0
0, 0
0, 0
0, 0
0, 0
2, 0
2, 2
28, 28
37, 42
6, 6
4, 14
101, 76
479, 495
84, 75
8, 3
0, 0
3, 1
6, 9
5, 5
9, 8
31, 18
45, 32
25, 22
9, 11
7, 5
10, 1
13, 3
4, 3
3, 3
8, 28
34, 30
10, 47
14, 108
14, 26
5, 8
12, 2
3, 8
9, 11
14, 19
49, 12
136, 6
42, 9
12, 5
5, 10
6, 8
10, 11
19, 11
12, 7
9, 9
62, 63
85, 92
32, 21
29, 45
721, 769
3789, 3626
2279, 1772
188, 114
15, 12
18, 29
153, 160
542, 556
281, 244
31, 17
7, 7
8, 9
5, 2
1, 7
4, 24
7, 33
6, 6
12, 5
9, 3
1, 5
1, 1
4, 2
2, 9
2, 4
3, 6
5, 3
1, 0
4, 5
3, 4
2, 4
6, 3
4, 3
5, 3
4, 2
1, 2
4, 3
10, 3
11, 1
3, 3
1, 0
5, 1
4, 3
2, 5
0, 2
0, 1
5, 2
2, 1
0, 3
1, 2
1, 1
1, 1
2, 0
3, 2
3, 3
1, 2
0, 0
0, 1
1, 0
1, 5
5, 8
6, 8
2, 0
2, 1
3, 1
1, 3
1, 4
1, 4
1, 0
1, 4
0, 1
0, 1
1, 1
3, 3
2, 1
1, 0
0, 0
1, 0
0, 0
0, 1
0, 1
0, 0
0, 0
2, 0
3, 0
0, 0
0, 1
0, 0
0, 1
1, 0
0, 0
0, 0
0, 1
0, 0
1, 1
0, 0
3, 1
0, 1
0, 1
1, 0
0, 2
0, 0
0, 0
0, 0
0, 0
0, 0
0, 0
0, 0
0, 0
0, 0
0, 1
0, 0
0, 0
0, 0
0, 0
0, 0
1, 0
0, 0
0, 0
0, 0
0, 0
0, 0
0, 0
0, 0
0, 0
0, 0
0, 0
0, 1
1, 0
0, 0
0, 0
0, 0
0, 0
0, 0
0, 0
0, 0
0, 0
0, 0
0, 0
0, 0
0, 0
0, 0
0, 0
0, 0
0, 0
0, 0
0, 0
0, 0
0, 0
0, 0
0, 0
0, 0
0, 0
0, 0
0, 0
0, 0
0, 0
0, 0
0, 0
0, 0
0, 0
0, 0
0, 0
0, 0
0, 0
0, 0
0, 0
0, 0
0, 0
0, 0
0, 0
0, 0
0, 0
0, 0
0, 0
0, 0
0, 0
0, 0
0, 0
0, 0
0, 0
0, 0
0, 0
0, 0
0, 0
0, 0
0, 0
0, 0
0, 0
0, 0
0, 0
0, 0
0, 0
0, 0
0, 0
0, 0
0, 0
0, 0
0, 0
0, 0
0, 0
0, 0
0, 0
0, 0
0, 0
0, 0
0, 0
0, 0
0, 0
0, 0
0, 0
0, 0
0, 0
0, 0
0, 0
0, 0
0, 0
0, 0
0, 0
0, 0
0, 0
0, 0
0, 0
0, 0
0, 0
0, 0
0, 0
0, 0
0, 0
0, 0
0, 0
0, 0
0, 0
0, 0
0, 0
0, 0
0, 0
0, 0
#ENDOFDATA     end of spectrum data

File: ps__0257_0689790785_000rfs_shot_3295.msa
#FORMAT      : EMSA/MAS spectral data file
#VERSION     : TC202v2.0 PIXL
#TITLE       : N/A
#DATE        :       Date in the format DD-MMM-YYYY, for example 07-JUL-2010
#TIME        :             The time of day at which the spectrum was recorded, in 24-hour format
#OWNER       : PIXL Flight Model       (PIXL will use this to indicate which instrument took the data.)
#NPOINTS     : 4096     Number of data points in the spectrum (This can be zero for configuration only files)
#NCOLUMNS    : 2     Number of data columns in the spectrum (This can be zero for configuration only files)
#XUNITS      : eV
#YUNITS      : COUNTS
#DATATYPE    : YY
#XPERCHAN    : 7.862, 7.881   eV per channel (separate by commas if more than one detector)
#OFFSET      : 18.5, -22.4         eV of first channel  (separate by commas if more than one detector
#SIGNALTYPE  : XRF
#YP_TEMP     : 3.005
#LIVETIME    : 8.99538, 8.99444   seconds (separate by commas if more than one detector)
#REALTIME    : 10, 10.0   seconds (separate by commas if more than one detector)
#SPECTRUM    : start of spectrum data
0, 0
0, 0
0, 0
0, 0
0, 0
0, 0
0, 1
0, 0
0, 0
0, 0
1, 2
26, 29
34, 39
3, 5
8, 4
90, 76
546, 454
80, 73
3, 7
6, 3
3, 3
19, 21
5, 8
3, 6
25, 20
34, 20
20, 9
10, 7
4, 3
9, 6
11, 2
5, 2
6, 2
13, 30
29, 32
9, 35
31, 102
20, 22
4, 2
3, 6
4, 3
11, 5
19, 21
36, 7
66, 6
27, 15
7, 9
10, 5
4, 7
5, 10
7, 9
15, 7
15, 10
64, 69
87, 86
25, 23
38, 34
647, 795
3507, 3779
2213, 1889
162, 137
21, 18
19, 23
153, 166
520, 545
280, 222
16, 21
5, 4
8, 9
4, 3
4, 8
2, 35
5, 20
9, 12
7, 6
2, 8
3, 6
2, 8
1, 6
4, 1
3, 5
1, 13
1, 3
4, 5
2, 3
1, 3
5, 2
7, 1
6, 3
8, 4
2, 3
0, 4
7, 1
6, 1
15, 6
3, 3
4, 1
4, 1
4, 6
1, 5
5, 3
2, 1
0, 3
1, 1
2, 2
0, 0
1, 1
0, 0
3, 2
2, 4
1, 1
1, 1
1, 6
2, 4
0, 1
5, 7
10, 10
2, 5
2, 4
2, 1
2, 1
2, 2
4, 2
0, 2
1, 3
2, 1
2, 1
1, 0
2, 0
2, 3
5, 0
4, 3
2, 0
1, 0
0, 0
0, 0
0, 1
0, 0
1, 0
0, 0
0, 1
0, 0
0, 0
0, 1
0, 0
0, 0
0, 0
0, 0
0, 0
0, 0
1, 0
0, 0
0, 0
3, 0
0, 0
0, 0
0, 0
0, 0
1, 0
0, 0
0, 0
1, 0
0, 0
1, 0
0, 0
0, 0
0, 1
0, 0
0, 1
0, 0
1, 0
0, 0
0, 0
0, 0
0, 1
0, 0
0, 0
0, 0
1, 0
0, 0
0, 1
0, 0
0, 0
0, 0
1, 1
1, 0
0, 0
0, 0
0, 0
0, 0
0, 0
0, 0
0, 0
0, 0
0, 0
0, 1
0, 0
0, 0
0, 0
0, 0
0, 0
0, 0
0, 0
0, 0
0, 0
0, 0
0, 0
0, 0
0, 0
0, 0
0, 0
0, 0
0, 0
0, 0
0, 0
0, 0
0, 0
0, 0
0, 0
0, 0
0, 0
0, 0
0, 0
0, 0
0, 0
0, 0
0, 0
0, 0
0, 0
0, 0
0, 0
0, 0
0, 0
0, 0
0, 0
0, 0
0, 0
0, 0
0, 0
0, 0
0, 0
0, 0
0, 0
0, 0
0, 0
0, 0
0, 0
0, 0
0, 0
0, 0
0, 0
0, 0
0, 0
0, 0
0, 0
0, 0
0, 0
0, 0
0, 0
0, 0
0, 0
0, 0
0, 0
0, 0
0, 0
0, 0
0, 0
0, 0
0, 0
0, 0
0, 0
0, 0
0, 0
0, 0
0, 0
0, 0
0, 0
0, 0
0, 0
0, 0
0, 0
0, 0
0, 0
0, 0
0, 0
0, 0
0, 0
0, 0
0, 0
0, 0
0, 0
0, 0
0, 0
0, 0
#ENDOFDATA     end of spectrum data

File: ps__0257_0689790785_000rfs_shot_3296.msa
#FORMAT      : EMSA/MAS spectral data file
#VERSION     : TC202v2.0 PIXL
#TITLE       : N/A
#DATE        :       Date in the format DD-MMM-YYYY, for example 07-JUL-2010
#TIME        :             The time of day at which the spectrum was recorded, in 24-hour format
#OWNER       : PIXL Flight Model       (PIXL will use this to indicate which instrument took the data.)
#NPOINTS     : 4096     Number of data points in the spectrum (This can be zero for configuration only files)
#NCOLUMNS    : 2     Number of data columns in the spectrum (This can be zero for configuration only files)
#XUNITS      : eV
#YUNITS      : COUNTS
#DATATYPE    : YY
#XPERCHAN    : 7.862, 7.881   eV per channel (separate by commas if more than one detector)
#OFFSET      : 18.5, -22.4         eV of first channel  (separate by commas if more than one detector
#SIGNALTYPE  : XRF
#YP_TEMP     : 3.037
#LIVETIME    : 8.99617, 8.99648   seconds (separate by commas if more than one detector)
#REALTIME    : 10, 10.0   seconds (separate by commas if more than one detector)
#SPECTRUM    : start of spectrum data
0, 0
0, 0
0, 0
0, 0
0, 0
0, 0
0, 0
0, 0
0, 1
2, 1
0, 1
30, 25
34, 24
2, 2
2, 1
87, 70
483, 457
76, 73
5, 12
5, 3
2, 3
2, 8
2, 0
8, 5
20, 15
19, 19
14, 13
10, 13
2, 1
5, 1
2, 2
4, 0
0, 3
22, 10
32, 25
12, 33
39, 71
21, 14
8, 8
9, 5
4, 5
3, 14
18, 19
15, 20
25, 6
11, 13
8, 5
7, 6
13, 8
14, 8
13, 13
24, 10
16, 9
69, 55
93, 100
25, 16
32, 45
689, 801
3684, 3802
2240, 1976
185, 127
19, 12
13, 34
174, 186
505, 588
310, 250
27, 21
3, 9
2, 9
3, 3
7, 2
5, 20
7, 16
3, 2
6, 4
7, 8
7, 3
1, 3
3, 4
7, 5
3, 1
0, 11
2, 5
3, 6
0, 6
4, 0
8, 3
8, 5
4, 2
2, 2
3, 5
3, 3
4, 0
8, 1
15, 3
6, 1
4, 1
5, 2
2, 4
3, 6
1, 2
4, 2
2, 4
1, 3
1, 2
5, 0
2, 1
2, 0
3, 2
2, 2
3, 3
3, 0
1, 1
0, 2
2, 1
4, 1
8, 9
9, 6
2, 7
3, 0
2, 3
1, 5
1, 2
3, 6
1, 1
2, 2
0, 1
2, 0
2, 0
3, 3
1, 1
2, 1
0, 0
0, 2
2, 1
0, 2
0, 0
1, 0
2, 0
1, 3
0, 1
0, 1
0, 0
0, 0
1, 0
0, 0
0, 0
0, 1
1, 1
1, 0
0, 1
0, 1
0, 0
0, 0
0, 0
0, 0
1, 0
0, 0
1, 0
0, 0
0, 0
0, 1
0, 0
1, 1
0, 1
0, 0
0, 0
0, 0
0, 0
0, 0
0, 0
0, 1
0, 0
0, 0
0, 0
0, 0
1, 1
0, 0
0, 0
0, 0
0, 0
0, 1
1, 0
0, 0
0, 0
0, 0
0, 0
0, 0
0, 0
0, 0
0, 0
0, 0
0, 0
0, 0
0, 0
0, 0
0, 0
0, 0
0, 0
0, 0
0, 0
0, 0
0, 0
0, 1
1, 0
0, 0
0, 0
0, 0
0, 0
0, 0
0, 0
0, 0
0, 0
0, 0
0, 0
0, 0
0, 0
0, 0
0, 0
0, 0
0, 0
0, 0
0, 0
0, 0
0, 0
0, 0
0, 0
0, 0
0, 0
0, 0
0, 0
0, 0
0, 0
0, 0
0, 0
0, 0
0, 0
0, 0
0, 0
0, 0
0, 0
0, 0
0, 0
0, 0
0, 0
0, 0
0, 0
0, 0
0, 0
0, 0
0, 0
0, 0
0, 0
0, 0
0, 0
0, 0
0, 0
0, 0
0, 0
0, 0
0, 0
0, 0
0, 0
0, 0
0, 0
0, 0
0, 0
0, 0
0, 0
0, 0
0, 0
0, 0
0, 0
0, 0
0, 0
0, 0
0, 0
0, 0
0, 0
0, 0
0, 0
0, 0
0, 0
0, 0
0, 0
0, 0
0, 0
0, 0
0, 0
0, 0
0, 0
0, 0
0, 0
0, 0
#ENDOFDATA     end of spectrum data

File: ps__0257_0689790785_000rfs_shot_3301.msa
#FORMAT      : EMSA/MAS spectral data file
#VERSION     : TC202v2.0 PIXL
#TITLE       : N/A
#DATE        :       Date in the format DD-MMM-YYYY, for example 07-JUL-2010
#TIME        :             The time of day at which the spectrum was recorded, in 24-hour format
#OWNER       : PIXL Flight Model       (PIXL will use this to indicate which instrument took the data.)
#NPOINTS     : 4096     Number of data points in the spectrum (This can be zero for configuration only files)
#NCOLUMNS    : 2     Number of data columns in the spectrum (This can be zero for configuration only files)
#XUNITS      : eV
#YUNITS      : COUNTS
#DATATYPE    : YY
#XPERCHAN    : 7.862, 7.881   eV per channel (separate by commas if more than one detector)
#OFFSET      : 18.5, -22.4         eV of first channel  (separate by commas if more than one detector
#SIGNALTYPE  : XRF
#YP_TEMP     : 3.037
#LIVETIME    : 9.00778, 9.00297   seconds (separate by commas if more than one detector)
#REALTIME    : 10, 10.0   seconds (separate by commas if more than one detector)
#SPECTRUM    : start of spectrum data
0, 0
0, 0
0, 0
0, 0
0, 0
0, 0
0, 0
0, 0
0, 0
3, 3
2, 1
18, 20
38, 33
9, 13
8, 20
80, 84
505, 560
83, 86
7, 7
5, 5
4, 6
23, 18
10, 4
13, 19
67, 87
61, 66
44, 34
22, 33
3, 3
2, 4
10, 23
3, 15
6, 7
49, 33
81, 85
9, 15
12, 10
12, 12
11, 14
0, 9
17, 28
58, 105
46, 43
24, 22
19, 20
18, 24
19, 12
8, 7
13, 11
39, 71
32, 30
24, 15
23, 27
52, 79
95, 103
35, 38
42, 40
670, 810
3323, 3583
2113, 1881
160, 112
21, 27
32, 29
140, 171
495, 503
284, 224
25, 21
6, 6
9, 12
4, 4
4, 3
1, 5
5, 6
5, 3
2, 6
11, 8
4, 5
1, 7
7, 10
3, 6
6, 4
2, 7
3, 3
1, 5
4, 3
5, 6
2, 2
5, 5
3, 6
2, 1
6, 3
2, 7
4, 4
0, 3
5, 6
2, 3
1, 3
5, 5
3, 4
3, 3
2, 4
3, 0
1, 3
2, 3
3, 4
0, 2
1, 3
4, 1
3, 3
4, 2
3, 2
1, 2
2, 6
0, 4
2, 2
7, 7
8, 8
2, 6
1, 2
1, 0
0, 0
2, 4
3, 3
4, 1
2, 1
0, 0
2, 1
2, 2
2, 1
0, 3
0, 3
1, 1
1, 1
3, 0
0, 1
0, 2
2, 0
1, 2
2, 1
2, 0
0, 0
2, 0
0, 1
0, 0
0, 0
0, 0
0, 0
0, 1
0, 0
1, 1
1, 0
0, 0
0, 3
1, 0
0, 1
0, 0
0, 0
0, 0
1, 0
0, 0
0, 0
2, 0
1, 1
0, 1
1, 0
0, 0
0, 0
0, 0
0, 0
0, 1
0, 0
0, 0
0, 0
0, 0
0, 0
0, 0
0, 0
0, 0
0, 0
0, 0
0, 0
1, 0
0, 0
0, 0
1, 0
0, 0
0, 0
0, 0
0, 0
0, 0
0, 0
0, 1
0, 0
0, 0
0, 0
0, 0
0, 0
1, 0
0, 0
0, 0
0, 0
0, 0
0, 0
0, 0
0, 0
0, 0
0, 0
0, 0
0, 0
0, 0
0, 0
0, 0
0, 0
0, 0
0, 0
0, 0
0, 0
0, 0
0, 0
0, 0
0, 0
0, 0
0, 0
0, 0
0, 0
0, 0
0, 0
0, 0
0, 0
0, 0
0, 0
0, 0
0, 0
0, 0
0, 0
0, 0
0, 0
0, 0
0, 0
0, 0
0, 0
0, 0
0, 0
0, 0
0, 0
0, 0
0, 0
0, 0
0, 0
0, 0
0, 0
0, 0
0, 0
0, 0
0, 0
0, 0
0, 0
0, 0
0, 0
0, 0
0, 0
0, 0
0, 0
0, 0
0, 0
0, 0
0, 0
0, 0
0, 0
0, 0
0, 0
0, 0
0, 0
0, 0
0, 0
0, 0
0, 0
0, 0
0, 0
0, 0
0, 0
0, 0
0, 0
0, 0
0, 0
0, 0
0, 0
0, 0
0, 0
0, 0
0, 0
0, 0
0, 0
0, 0
#ENDOFDATA     end of spectrum data