Folder: data-repository/host_upload/12-01-2023/Dourbes (shot-by-shot)/upload_4 (part 11)

File: ps__0257_0689790785_000rfs_shot_3181.msa
#FORMAT      : EMSA/MAS spectral data file
#VERSION     : TC202v2.0 PIXL
#TITLE       : N/A
#DATE        :       Date in the format DD-MMM-YYYY, for example 07-JUL-2010
#TIME        :             The time of day at which the spectrum was recorded, in 24-hour format
#OWNER       : PIXL Flight Model       (PIXL will use this to indicate which instrument took the data.)
#NPOINTS     : 4096     Number of data points in the spectrum (This can be zero for configuration only files)
#NCOLUMNS    : 2     Number of data columns in the spectrum (This can be zero for configuration only files)
#XUNITS      : eV
#YUNITS      : COUNTS
#DATATYPE    : YY
#XPERCHAN    : 7.862, 7.881   eV per channel (separate by commas if more than one detector)
#OFFSET      : 18.5, -22.4         eV of first channel  (separate by commas if more than one detector
#SIGNALTYPE  : XRF
#YP_TEMP     : 3.198
#LIVETIME    : 9.00841, 8.99896   seconds (separate by commas if more than one detector)
#REALTIME    : 10, 10.0   seconds (separate by commas if more than one detector)
#SPECTRUM    : start of spectrum data
0, 0
0, 0
0, 0
0, 0
0, 0
0, 0
0, 0
0, 0
0, 1
2, 1
2, 1
26, 31
47, 30
2, 1
5, 8
97, 69
544, 544
91, 91
3, 4
0, 4
2, 3
7, 2
5, 4
4, 3
14, 16
26, 32
14, 6
11, 11
4, 4
2, 0
2, 2
1, 4
6, 6
76, 53
106, 88
17, 11
11, 21
11, 19
3, 5
4, 4
8, 4
14, 15
16, 15
9, 10
7, 6
5, 6
6, 4
6, 7
8, 9
9, 12
14, 12
8, 11
5, 6
50, 74
103, 79
27, 27
32, 46
622, 793
3506, 3719
2210, 1874
181, 127
12, 65
28, 67
135, 184
510, 581
304, 243
35, 29
18, 14
9, 6
5, 2
1, 8
1, 11
4, 3
2, 3
2, 2
6, 5
1, 2
2, 0
9, 2
3, 4
6, 6
1, 5
7, 5
2, 2
1, 5
6, 2
2, 4
2, 7
3, 3
3, 6
1, 2
3, 5
0, 3
0, 2
3, 1
3, 4
1, 3
2, 1
0, 3
0, 1
1, 3
3, 2
2, 3
1, 2
4, 3
3, 2
1, 3
1, 2
1, 1
1, 3
0, 2
3, 1
0, 2
1, 0
4, 4
5, 2
6, 8
6, 5
2, 2
2, 4
3, 2
1, 4
2, 4
2, 1
3, 1
1, 2
1, 0
0, 0
0, 0
0, 0
2, 0
2, 1
0, 0
0, 1
2, 0
0, 0
1, 0
0, 1
2, 1
0, 0
0, 0
1, 0
1, 0
0, 0
0, 0
0, 0
0, 0
1, 0
0, 0
1, 0
0, 2
0, 0
0, 0
0, 0
0, 0
0, 0
2, 0
2, 1
0, 0
0, 1
0, 1
0, 0
0, 0
0, 0
0, 0
0, 0
0, 0
0, 0
0, 0
1, 0
0, 1
0, 0
0, 0
0, 0
0, 0
0, 1
0, 0
0, 0
0, 1
0, 0
0, 0
0, 1
0, 0
0, 0
0, 0
0, 0
0, 0
0, 0
1, 0
0, 0
0, 0
0, 0
0, 0
0, 0
0, 0
0, 0
0, 0
0, 0
0, 0
0, 0
0, 0
0, 0
0, 0
0, 0
0, 0
1, 0
0, 0
0, 0
0, 0
0, 0
0, 0
0, 0
0, 0
0, 0
0, 0
0, 0
0, 0
0, 0
0, 0
0, 0
0, 0
0, 0
0, 0
0, 0
0, 0
0, 0
0, 0
0, 0
0, 0
0, 0
0, 0
0, 0
0, 0
0, 0
0, 0
0, 0
0, 0
0, 0
0, 0
0, 0
0, 0
0, 0
0, 0
0, 0
0, 0
0, 0
0, 0
0, 0
0, 0
0, 0
0, 0
0, 0
0, 0
0, 0
0, 0
0, 0
0, 0
0, 0
0, 0
0, 0
0, 0
0, 0
0, 0
0, 0
0, 0
0, 0
0, 0
0, 0
0, 0
0, 0
0, 0
0, 0
0, 0
0, 0
0, 0
0, 0
0, 0
0, 0
0, 0
0, 0
0, 0
0, 0
0, 0
0, 0
0, 0
0, 0
0, 0
0, 0
0, 0
0, 0
0, 0
0, 0
0, 0
0, 0
#ENDOFDATA     end of spectrum data

File: ps__0257_0689790785_000rfs_shot_3184.msa
#FORMAT      : EMSA/MAS spectral data file
#VERSION     : TC202v2.0 PIXL
#TITLE       : N/A
#DATE        :       Date in the format DD-MMM-YYYY, for example 07-JUL-2010
#TIME        :             The time of day at which the spectrum was recorded, in 24-hour format
#OWNER       : PIXL Flight Model       (PIXL will use this to indicate which instrument took the data.)
#NPOINTS     : 4096     Number of data points in the spectrum (This can be zero for configuration only files)
#NCOLUMNS    : 2     Number of data columns in the spectrum (This can be zero for configuration only files)
#XUNITS      : eV
#YUNITS      : COUNTS
#DATATYPE    : YY
#XPERCHAN    : 7.862, 7.881   eV per channel (separate by commas if more than one detector)
#OFFSET      : 18.5, -22.4         eV of first channel  (separate by commas if more than one detector
#SIGNALTYPE  : XRF
#YP_TEMP     : 3.262
#LIVETIME    : 9.12891, 9.13252   seconds (separate by commas if more than one detector)
#REALTIME    : 10, 10.0   seconds (separate by commas if more than one detector)
#SPECTRUM    : start of spectrum data
0, 0
0, 0
0, 0
0, 0
0, 0
0, 0
0, 0
0, 0
1, 2
1, 1
0, 1
24, 18
29, 20
6, 4
21, 10
146, 131
836, 878
133, 119
15, 22
3, 3
4, 5
3, 5
1, 2
3, 3
17, 17
27, 26
8, 18
13, 18
6, 3
3, 4
2, 8
3, 2
27, 27
671, 730
1046, 1045
116, 85
119, 108
154, 152
29, 12
2, 3
11, 5
37, 32
11, 11
3, 3
5, 4
15, 9
12, 20
1, 20
8, 16
36, 53
38, 29
4, 2
5, 4
24, 31
54, 44
13, 9
127, 15
413, 268
1095, 1238
644, 563
56, 40
7, 8
6, 11
64, 65
183, 197
118, 80
15, 21
9, 7
4, 3
8, 5
1, 9
4, 7
4, 4
5, 7
6, 6
9, 7
7, 5
5, 10
2, 9
2, 3
2, 7
0, 2
3, 4
6, 4
5, 10
5, 21
2, 36
8, 13
5, 3
4, 5
7, 5
2, 2
5, 15
8, 3
6, 3
2, 2
3, 2
1, 3
1, 2
1, 1
6, 3
5, 4
1, 1
4, 8
5, 2
14, 4
13, 2
3, 2
2, 0
3, 3
0, 3
2, 2
2, 4
2, 1
1, 4
2, 0
1, 2
2, 4
3, 0
0, 3
1, 2
1, 0
2, 4
4, 1
2, 2
2, 0
0, 1
1, 1
1, 0
1, 3
0, 2
0, 2
2, 1
0, 2
1, 2
0, 2
0, 0
2, 0
0, 1
0, 1
0, 0
1, 1
0, 0
1, 0
0, 3
0, 1
0, 1
2, 3
1, 1
0, 0
1, 1
1, 1
1, 1
0, 0
1, 0
0, 0
0, 0
0, 0
0, 1
1, 0
0, 1
0, 0
2, 0
0, 0
1, 0
0, 0
0, 0
1, 0
1, 0
1, 0
2, 0
0, 0
0, 0
1, 0
0, 1
0, 0
0, 0
0, 0
0, 1
0, 0
0, 0
0, 0
0, 0
0, 0
0, 1
0, 1
0, 0
1, 0
1, 0
0, 0
0, 0
0, 0
0, 0
0, 0
0, 0
0, 0
0, 0
0, 0
0, 0
0, 0
0, 0
0, 0
0, 0
1, 0
0, 0
0, 0
0, 0
0, 0
0, 0
0, 0
0, 0
0, 0
0, 0
0, 0
0, 0
0, 0
0, 0
0, 0
0, 0
0, 0
0, 0
0, 0
1, 0
0, 0
0, 0
0, 0
0, 0
0, 0
0, 0
0, 0
0, 0
0, 0
0, 0
0, 0
0, 0
0, 0
0, 0
0, 0
0, 0
0, 0
0, 0
0, 0
0, 0
0, 0
0, 0
0, 0
0, 0
0, 0
0, 0
0, 0
0, 0
0, 0
0, 0
0, 0
0, 0
0, 0
0, 0
0, 0
0, 0
0, 0
0, 0
0, 0
0, 0
0, 0
0, 0
0, 0
0, 0
0, 0
0, 0
0, 0
0, 0
0, 0
0, 0
0, 0
0, 0
0, 0
0, 0
0, 0
0, 0
0, 0
0, 0
0, 0
0, 0
0, 0
0, 0
0, 0
0, 0
0, 0
0, 0
0, 0
0, 0
0, 0
0, 0
0, 0
#ENDOFDATA     end of spectrum data

File: ps__0257_0689790785_000rfs_shot_3185.msa
#FORMAT      : EMSA/MAS spectral data file
#VERSION     : TC202v2.0 PIXL
#TITLE       : N/A
#DATE        :       Date in the format DD-MMM-YYYY, for example 07-JUL-2010
#TIME        :             The time of day at which the spectrum was recorded, in 24-hour format
#OWNER       : PIXL Flight Model       (PIXL will use this to indicate which instrument took the data.)
#NPOINTS     : 4096     Number of data points in the spectrum (This can be zero for configuration only files)
#NCOLUMNS    : 2     Number of data columns in the spectrum (This can be zero for configuration only files)
#XUNITS      : eV
#YUNITS      : COUNTS
#DATATYPE    : YY
#XPERCHAN    : 7.862, 7.881   eV per channel (separate by commas if more than one detector)
#OFFSET      : 18.5, -22.4         eV of first channel  (separate by commas if more than one detector
#SIGNALTYPE  : XRF
#YP_TEMP     : 3.262
#LIVETIME    : 9.12077, 9.14359   seconds (separate by commas if more than one detector)
#REALTIME    : 10, 10.0   seconds (separate by commas if more than one detector)
#SPECTRUM    : start of spectrum data
0, 0
0, 0
0, 0
0, 0
0, 0
0, 0
0, 0
0, 0
1, 1
0, 2
1, 3
30, 20
25, 25
6, 7
7, 11
140, 109
905, 839
163, 135
21, 15
1, 7
1, 3
4, 5
1, 7
7, 4
24, 13
15, 10
16, 32
17, 113
5, 69
4, 1
4, 0
0, 2
26, 26
701, 586
1136, 932
113, 72
137, 120
143, 124
16, 8
2, 5
10, 13
34, 33
14, 17
4, 4
7, 1
11, 14
9, 13
2, 17
13, 13
42, 39
17, 34
5, 4
6, 9
32, 28
47, 39
53, 16
152, 10
380, 261
1226, 1073
723, 529
59, 42
8, 7
18, 12
59, 57
198, 169
118, 86
12, 13
13, 11
14, 11
6, 5
2, 2
6, 3
4, 2
5, 3
2, 4
7, 4
21, 5
10, 7
5, 2
5, 2
5, 3
3, 7
4, 3
5, 4
6, 4
3, 15
5, 22
9, 12
10, 3
8, 3
2, 4
2, 3
4, 5
5, 9
10, 9
5, 1
3, 10
5, 2
1, 4
7, 1
7, 5
3, 2
4, 3
2, 3
9, 5
7, 1
11, 4
5, 2
1, 3
5, 3
1, 4
1, 4
3, 7
1, 4
6, 4
7, 3
1, 0
3, 0
1, 1
1, 2
0, 1
5, 1
1, 3
3, 1
5, 3
3, 0
1, 2
0, 1
1, 1
1, 2
1, 0
0, 1
2, 2
2, 0
0, 0
1, 2
1, 1
1, 1
0, 2
1, 1
2, 1
0, 1
1, 0
3, 0
0, 0
1, 1
0, 1
1, 1
1, 1
0, 0
0, 0
0, 1
0, 1
1, 1
0, 0
0, 0
2, 0
0, 0
0, 1
0, 0
0, 0
1, 0
2, 1
0, 0
1, 0
1, 1
2, 1
0, 0
0, 0
0, 1
0, 0
0, 0
0, 1
0, 0
0, 0
0, 1
0, 0
0, 0
0, 0
0, 0
0, 0
2, 1
0, 1
0, 0
0, 0
0, 0
0, 0
0, 0
0, 1
1, 0
0, 0
0, 0
0, 0
0, 0
0, 0
0, 1
0, 1
0, 0
0, 0
0, 0
0, 0
0, 0
1, 0
0, 0
0, 0
0, 0
0, 0
0, 0
0, 0
0, 0
0, 0
0, 0
0, 0
0, 0
0, 0
0, 0
0, 0
0, 0
0, 0
0, 0
0, 0
0, 0
0, 0
0, 0
0, 0
0, 0
0, 0
0, 0
0, 0
0, 0
0, 0
0, 0
0, 0
0, 0
0, 0
0, 0
0, 0
0, 0
0, 0
0, 0
0, 0
0, 0
0, 0
0, 0
0, 0
0, 0
0, 0
0, 0
0, 0
0, 0
0, 0
0, 0
0, 0
0, 0
0, 0
0, 0
0, 0
0, 0
0, 0
0, 0
0, 0
0, 0
0, 0
0, 0
0, 0
0, 0
0, 0
0, 0
0, 0
0, 0
0, 0
0, 0
0, 0
0, 0
0, 0
0, 0
0, 0
0, 0
0, 0
0, 0
0, 0
0, 0
0, 0
0, 0
0, 0
0, 0
0, 0
0, 0
0, 0
0, 0
0, 0
0, 0
0, 0
0, 0
#ENDOFDATA     end of spectrum data

File: ps__0257_0689790785_000rfs_shot_3187.msa
#FORMAT      : EMSA/MAS spectral data file
#VERSION     : TC202v2.0 PIXL
#TITLE       : N/A
#DATE        :       Date in the format DD-MMM-YYYY, for example 07-JUL-2010
#TIME        :             The time of day at which the spectrum was recorded, in 24-hour format
#OWNER       : PIXL Flight Model       (PIXL will use this to indicate which instrument took the data.)
#NPOINTS     : 4096     Number of data points in the spectrum (This can be zero for configuration only files)
#NCOLUMNS    : 2     Number of data columns in the spectrum (This can be zero for configuration only files)
#XUNITS      : eV
#YUNITS      : COUNTS
#DATATYPE    : YY
#XPERCHAN    : 7.862, 7.881   eV per channel (separate by commas if more than one detector)
#OFFSET      : 18.5, -22.4         eV of first channel  (separate by commas if more than one detector
#SIGNALTYPE  : XRF
#YP_TEMP     : 3.133
#LIVETIME    : 9.13984, 9.12723   seconds (separate by commas if more than one detector)
#REALTIME    : 10, 10.0   seconds (separate by commas if more than one detector)
#SPECTRUM    : start of spectrum data
0, 0
0, 0
0, 0
0, 0
0, 0
0, 0
0, 0
1, 0
0, 2
1, 1
1, 3
23, 25
31, 36
2, 10
6, 8
140, 112
809, 735
135, 116
17, 25
4, 2
4, 7
8, 9
5, 2
7, 7
25, 31
41, 69
23, 31
17, 34
7, 11
4, 4
3, 6
6, 4
29, 22
588, 609
968, 952
90, 63
97, 109
123, 100
21, 15
4, 9
13, 18
38, 44
19, 19
6, 9
20, 8
17, 15
7, 13
9, 8
16, 6
48, 62
34, 37
9, 10
11, 4
32, 36
66, 54
31, 26
63, 19
320, 288
1250, 1361
754, 666
66, 84
11, 15
12, 17
60, 55
194, 195
112, 102
17, 15
6, 11
9, 7
4, 2
3, 5
7, 6
11, 8
9, 5
10, 6
12, 6
9, 3
10, 6
2, 5
5, 7
2, 8
2, 3
5, 3
4, 3
5, 6
5, 11
10, 24
4, 15
1, 5
2, 3
4, 4
2, 5
3, 9
3, 7
2, 4
2, 5
3, 1
7, 0
4, 2
1, 3
4, 3
3, 2
3, 2
3, 3
9, 2
6, 2
4, 4
2, 4
3, 4
3, 3
1, 5
1, 7
1, 1
1, 7
1, 2
4, 1
3, 4
1, 3
0, 0
0, 0
2, 2
1, 3
2, 2
0, 1
0, 0
3, 3
0, 1
0, 1
2, 0
0, 0
0, 2
2, 1
0, 1
1, 0
2, 1
0, 0
0, 0
2, 3
0, 2
1, 0
1, 1
0, 1
0, 0
0, 1
0, 1
2, 1
2, 1
0, 0
2, 0
1, 0
2, 1
0, 1
0, 0
0, 0
0, 1
0, 0
0, 0
1, 0
1, 0
0, 1
2, 0
0, 1
1, 1
0, 1
0, 0
0, 0
0, 0
0, 0
1, 0
0, 1
0, 0
0, 0
0, 1
0, 0
0, 0
3, 0
1, 0
1, 0
1, 0
0, 1
0, 0
1, 0
0, 0
0, 0
0, 0
1, 0
0, 0
0, 0
1, 0
0, 0
0, 0
0, 0
0, 1
0, 0
0, 0
0, 0
0, 0
0, 0
0, 0
0, 0
0, 0
0, 0
0, 0
0, 0
0, 0
1, 0
0, 0
0, 0
0, 0
0, 0
0, 0
0, 0
0, 0
0, 0
0, 0
0, 0
0, 0
0, 0
0, 0
0, 0
0, 0
0, 0
0, 0
0, 0
0, 0
0, 0
0, 0
0, 0
0, 0
0, 0
0, 0
0, 0
0, 0
0, 0
0, 0
0, 0
0, 0
0, 0
0, 0
0, 0
0, 0
0, 0
0, 0
0, 0
0, 0
0, 0
0, 0
0, 0
0, 0
0, 0
0, 0
0, 0
0, 0
0, 0
0, 0
0, 0
0, 0
0, 0
0, 0
0, 0
0, 0
0, 0
0, 0
0, 0
0, 0
0, 0
0, 0
0, 0
0, 0
0, 0
0, 0
0, 0
0, 0
0, 0
0, 0
0, 0
0, 0
0, 0
0, 0
0, 0
0, 0
0, 0
0, 0
0, 0
0, 0
0, 0
0, 0
0, 0
0, 0
0, 0
0, 0
0, 0
0, 0
0, 0
#ENDOFDATA     end of spectrum data

File: ps__0257_0689790785_000rfs_shot_3192.msa
#FORMAT      : EMSA/MAS spectral data file
#VERSION     : TC202v2.0 PIXL
#TITLE       : N/A
#DATE        :       Date in the format DD-MMM-YYYY, for example 07-JUL-2010
#TIME        :             The time of day at which the spectrum was recorded, in 24-hour format
#OWNER       : PIXL Flight Model       (PIXL will use this to indicate which instrument took the data.)
#NPOINTS     : 4096     Number of data points in the spectrum (This can be zero for configuration only files)
#NCOLUMNS    : 2     Number of data columns in the spectrum (This can be zero for configuration only files)
#XUNITS      : eV
#YUNITS      : COUNTS
#DATATYPE    : YY
#XPERCHAN    : 7.862, 7.881   eV per channel (separate by commas if more than one detector)
#OFFSET      : 18.5, -22.4         eV of first channel  (separate by commas if more than one detector
#SIGNALTYPE  : XRF
#YP_TEMP     : 2.973
#LIVETIME    : 8.98071, 8.96527   seconds (separate by commas if more than one detector)
#REALTIME    : 10, 10.0   seconds (separate by commas if more than one detector)
#SPECTRUM    : start of spectrum data
0, 0
0, 0
0, 0
0, 0
0, 0
0, 0
0, 0
0, 0
0, 1
1, 4
1, 7
32, 34
37, 32
4, 3
6, 4
77, 89
475, 483
77, 66
5, 12
1, 1
1, 10
7, 20
4, 3
11, 8
31, 66
49, 246
22, 145
8, 15
5, 5
3, 5
1, 6
14, 6
29, 7
20, 21
32, 32
5, 13
2, 11
17, 7
9, 2
4, 4
5, 7
22, 19
20, 22
16, 18
11, 8
5, 21
5, 30
11, 16
9, 7
20, 48
23, 213
11, 172
17, 40
52, 77
78, 111
36, 30
37, 52
612, 847
3437, 3860
2254, 1968
173, 138
8, 38
25, 29
151, 179
477, 605
332, 273
29, 24
5, 11
9, 5
9, 7
2, 16
2, 26
4, 13
5, 4
7, 6
8, 7
2, 4
1, 4
5, 2
4, 4
4, 4
5, 9
6, 2
4, 4
1, 2
1, 7
5, 3
1, 2
5, 3
1, 2
4, 9
1, 7
2, 7
2, 0
4, 3
2, 2
4, 6
3, 4
4, 3
5, 2
1, 3
3, 3
4, 1
0, 3
1, 3
3, 1
1, 4
3, 2
5, 4
1, 5
2, 4
3, 1
1, 5
0, 2
3, 1
1, 3
5, 8
8, 5
3, 5
0, 1
1, 0
0, 3
6, 2
3, 0
0, 0
0, 1
2, 0
0, 2
2, 2
1, 1
2, 5
0, 1
0, 0
1, 4
1, 0
1, 0
2, 0
0, 1
0, 0
0, 0
1, 1
1, 1
0, 0
0, 0
0, 1
0, 0
1, 0
0, 1
1, 0
0, 0
1, 0
0, 0
0, 0
0, 0
0, 0
0, 0
1, 0
0, 0
1, 1
0, 1
0, 0
0, 0
0, 1
0, 0
0, 0
0, 1
0, 0
0, 0
0, 0
0, 0
0, 0
0, 0
0, 1
0, 1
0, 0
0, 0
0, 1
1, 1
0, 1
0, 0
0, 0
1, 0
0, 0
0, 0
0, 0
0, 0
0, 0
0, 0
0, 0
0, 0
0, 0
0, 0
0, 0
0, 0
0, 0
0, 0
0, 0
0, 0
0, 0
0, 0
0, 0
0, 0
0, 0
0, 0
0, 0
0, 0
0, 0
0, 0
0, 0
0, 0
0, 0
0, 0
0, 0
0, 0
0, 0
0, 0
0, 0
0, 0
0, 0
0, 0
0, 0
0, 0
0, 0
0, 0
0, 0
0, 0
0, 0
0, 0
0, 0
0, 0
0, 0
0, 0
0, 0
0, 0
0, 0
0, 0
0, 0
0, 0
0, 0
0, 0
0, 0
0, 0
0, 0
0, 0
0, 0
0, 0
0, 0
0, 0
0, 0
0, 0
0, 0
0, 0
0, 0
0, 0
0, 0
0, 0
0, 0
0, 0
0, 0
0, 0
0, 0
0, 0
0, 0
0, 0
0, 0
0, 0
0, 0
0, 0
0, 0
0, 0
0, 0
0, 0
0, 0
0, 0
0, 0
0, 0
0, 0
0, 0
0, 0
0, 0
0, 0
0, 0
0, 0
0, 0
0, 0
0, 0
0, 0
0, 0
0, 0
0, 0
0, 0
0, 0
0, 0
0, 0
#ENDOFDATA     end of spectrum data

File: ps__0257_0689790785_000rfs_shot_3194.msa
#FORMAT      : EMSA/MAS spectral data file
#VERSION     : TC202v2.0 PIXL
#TITLE       : N/A
#DATE        :       Date in the format DD-MMM-YYYY, for example 07-JUL-2010
#TIME        :             The time of day at which the spectrum was recorded, in 24-hour format
#OWNER       : PIXL Flight Model       (PIXL will use this to indicate which instrument took the data.)
#NPOINTS     : 4096     Number of data points in the spectrum (This can be zero for configuration only files)
#NCOLUMNS    : 2     Number of data columns in the spectrum (This can be zero for configuration only files)
#XUNITS      : eV
#YUNITS      : COUNTS
#DATATYPE    : YY
#XPERCHAN    : 7.862, 7.881   eV per channel (separate by commas if more than one detector)
#OFFSET      : 18.5, -22.4         eV of first channel  (separate by commas if more than one detector
#SIGNALTYPE  : XRF
#YP_TEMP     : 3.165
#LIVETIME    : 9.16005, 9.16932   seconds (separate by commas if more than one detector)
#REALTIME    : 10, 10.0   seconds (separate by commas if more than one detector)
#SPECTRUM    : start of spectrum data
0, 0
0, 0
0, 0
0, 0
0, 0
0, 0
0, 0
0, 0
0, 0
3, 2
6, 5
13, 14
14, 17
57, 39
86, 87
148, 132
918, 935
166, 152
5, 15
3, 3
5, 4
8, 6
3, 1
14, 15
63, 73
52, 72
31, 40
17, 14
7, 6
17, 14
125, 133
63, 53
20, 15
40, 58
47, 42
9, 5
13, 5
10, 5
4, 7
2, 4
10, 7
29, 23
14, 24
12, 12
11, 8
11, 23
6, 26
3, 17
15, 20
71, 75
40, 51
24, 23
15, 11
24, 30
40, 47
23, 19
19, 28
266, 283
1294, 1332
790, 726
75, 36
13, 10
24, 21
78, 81
204, 243
121, 118
19, 21
7, 9
7, 7
11, 8
8, 7
9, 4
9, 6
12, 6
4, 16
6, 4
4, 7
3, 3
8, 4
7, 4
6, 5
10, 7
5, 6
6, 6
6, 6
10, 9
9, 6
6, 5
4, 4
5, 7
6, 6
7, 2
2, 8
5, 4
4, 5
2, 2
9, 2
3, 3
4, 3
3, 2
3, 5
3, 3
4, 1
3, 4
1, 3
0, 5
5, 2
2, 1
2, 3
5, 1
2, 2
2, 1
3, 3
1, 1
1, 0
2, 2
2, 1
2, 1
4, 4
2, 1
2, 0
1, 3
0, 0
3, 1
0, 2
0, 0
0, 2
1, 0
0, 1
0, 0
0, 0
1, 0
0, 1
0, 2
1, 0
0, 2
0, 0
1, 0
0, 0
0, 0
0, 1
0, 0
1, 1
0, 0
0, 0
0, 1
1, 0
0, 0
0, 1
0, 0
0, 0
0, 1
1, 0
0, 0
0, 1
0, 2
0, 2
0, 2
0, 0
0, 0
0, 0
1, 0
0, 1
1, 0
0, 1
0, 0
0, 0
0, 0
0, 0
0, 0
2, 0
0, 2
0, 0
0, 0
0, 0
1, 1
0, 0
0, 0
1, 0
0, 0
0, 0
0, 0
0, 0
0, 0
0, 0
0, 0
0, 0
0, 0
0, 0
0, 0
0, 0
0, 0
0, 1
0, 0
0, 0
0, 0
0, 0
0, 0
0, 0
0, 0
0, 0
0, 0
0, 0
0, 0
0, 0
0, 0
0, 0
0, 0
0, 0
0, 0
0, 0
0, 0
0, 0
0, 0
0, 0
0, 0
0, 0
0, 0
0, 0
0, 0
0, 0
0, 0
0, 0
0, 0
0, 0
0, 0
0, 0
0, 0
0, 0
0, 0
0, 0
0, 0
0, 0
0, 0
0, 0
0, 0
0, 0
0, 0
0, 0
0, 0
0, 0
0, 0
0, 0
0, 0
0, 0
0, 0
0, 0
0, 0
0, 0
0, 0
0, 0
0, 0
0, 0
0, 0
0, 0
0, 0
0, 0
0, 0
0, 0
0, 0
0, 0
0, 0
0, 0
0, 0
0, 0
0, 0
0, 0
0, 0
0, 0
0, 0
0, 0
0, 0
0, 0
0, 0
0, 0
0, 0
0, 0
0, 0
0, 0
0, 0
0, 0
0, 0
0, 0
0, 0
0, 0
0, 0
0, 0
0, 0
0, 0
0, 0
0, 0
0, 0
0, 0
0, 0
#ENDOFDATA     end of spectrum data

File: ps__0257_0689790785_000rfs_shot_3195.msa
#FORMAT      : EMSA/MAS spectral data file
#VERSION     : TC202v2.0 PIXL
#TITLE       : N/A
#DATE        :       Date in the format DD-MMM-YYYY, for example 07-JUL-2010
#TIME        :             The time of day at which the spectrum was recorded, in 24-hour format
#OWNER       : PIXL Flight Model       (PIXL will use this to indicate which instrument took the data.)
#NPOINTS     : 4096     Number of data points in the spectrum (This can be zero for configuration only files)
#NCOLUMNS    : 2     Number of data columns in the spectrum (This can be zero for configuration only files)
#XUNITS      : eV
#YUNITS      : COUNTS
#DATATYPE    : YY
#XPERCHAN    : 7.862, 7.881   eV per channel (separate by commas if more than one detector)
#OFFSET      : 18.5, -22.4         eV of first channel  (separate by commas if more than one detector
#SIGNALTYPE  : XRF
#YP_TEMP     : 2.877
#LIVETIME    : 9.11203, 9.11585   seconds (separate by commas if more than one detector)
#REALTIME    : 10, 10.0   seconds (separate by commas if more than one detector)
#SPECTRUM    : start of spectrum data
0, 0
0, 0
0, 0
0, 0
0, 0
0, 0
0, 0
0, 1
1, 2
3, 1
5, 3
13, 16
17, 17
25, 33
68, 63
126, 121
824, 832
125, 116
6, 6
3, 4
4, 0
5, 5
2, 4
18, 20
61, 76
29, 48
30, 29
18, 21
6, 8
14, 13
72, 82
39, 29
12, 12
66, 73
110, 75
9, 52
16, 47
13, 21
6, 4
8, 5
63, 59
255, 218
111, 58
16, 25
20, 24
45, 57
18, 33
4, 65
27, 56
198, 186
144, 88
17, 11
12, 13
36, 38
113, 82
62, 27
22, 37
288, 341
1658, 1695
1100, 853
94, 68
11, 9
22, 20
74, 79
278, 255
162, 110
18, 16
6, 10
12, 10
12, 4
4, 7
7, 7
5, 8
3, 13
8, 8
4, 2
8, 8
4, 2
6, 8
8, 6
8, 3
5, 3
2, 3
6, 2
7, 5
9, 5
5, 4
5, 5
2, 3
6, 2
8, 1
5, 2
3, 5
5, 4
5, 10
5, 5
4, 3
7, 3
7, 5
1, 0
3, 5
2, 4
5, 5
2, 3
3, 1
1, 0
4, 2
3, 4
4, 2
3, 1
2, 4
1, 0
2, 2
2, 3
0, 1
1, 2
3, 2
1, 2
4, 1
0, 2
4, 1
4, 2
1, 1
1, 0
1, 2
1, 0
1, 2
0, 1
3, 3
1, 1
2, 1
0, 1
1, 1
2, 2
0, 1
2, 0
1, 1
2, 2
1, 2
4, 0
0, 0
1, 1
1, 0
1, 0
0, 2
1, 0
1, 0
1, 0
2, 0
1, 0
0, 0
0, 0
0, 0
0, 0
0, 0
0, 0
0, 0
1, 0
0, 0
1, 1
0, 0
0, 0
1, 0
0, 0
0, 0
0, 0
0, 0
0, 0
1, 0
1, 0
0, 1
0, 0
0, 0
0, 0
0, 0
0, 0
0, 0
0, 0
0, 0
0, 0
0, 1
1, 0
0, 0
0, 0
0, 0
0, 0
0, 0
0, 0
0, 0
0, 0
0, 0
0, 0
0, 0
0, 0
0, 0
0, 0
1, 0
0, 0
0, 0
0, 0
0, 0
0, 0
0, 0
0, 0
0, 0
0, 0
0, 0
0, 0
0, 0
0, 0
0, 0
0, 0
0, 0
0, 0
0, 0
0, 0
0, 0
0, 0
0, 0
0, 0
0, 0
0, 0
0, 0
0, 0
0, 0
0, 0
0, 0
0, 0
0, 0
0, 0
0, 0
0, 0
0, 0
0, 0
0, 0
0, 0
0, 0
0, 0
0, 0
0, 0
0, 0
0, 0
0, 0
0, 0
0, 0
0, 0
0, 0
0, 0
0, 0
0, 0
0, 0
0, 0
0, 0
0, 0
0, 0
0, 0
0, 0
0, 0
0, 0
0, 0
0, 0
0, 0
0, 0
0, 0
0, 0
0, 0
0, 0
0, 0
0, 0
0, 0
0, 0
0, 0
0, 0
0, 0
0, 0
0, 0
0, 0
0, 0
0, 0
0, 0
0, 0
0, 0
0, 0
0, 0
0, 0
0, 0
0, 0
0, 0
0, 0
0, 0
0, 0
0, 0
0, 0
0, 0
#ENDOFDATA     end of spectrum data

File: ps__0257_0689790785_000rfs_shot_3197.msa
#FORMAT      : EMSA/MAS spectral data file
#VERSION     : TC202v2.0 PIXL
#TITLE       : N/A
#DATE        :       Date in the format DD-MMM-YYYY, for example 07-JUL-2010
#TIME        :             The time of day at which the spectrum was recorded, in 24-hour format
#OWNER       : PIXL Flight Model       (PIXL will use this to indicate which instrument took the data.)
#NPOINTS     : 4096     Number of data points in the spectrum (This can be zero for configuration only files)
#NCOLUMNS    : 2     Number of data columns in the spectrum (This can be zero for configuration only files)
#XUNITS      : eV
#YUNITS      : COUNTS
#DATATYPE    : YY
#XPERCHAN    : 7.862, 7.881   eV per channel (separate by commas if more than one detector)
#OFFSET      : 18.5, -22.4         eV of first channel  (separate by commas if more than one detector
#SIGNALTYPE  : XRF
#YP_TEMP     : 3.005
#LIVETIME    : 8.89992, 8.8879   seconds (separate by commas if more than one detector)
#REALTIME    : 10, 10.0   seconds (separate by commas if more than one detector)
#SPECTRUM    : start of spectrum data
0, 0
0, 0
0, 0
0, 0
0, 0
0, 0
0, 0
0, 0
1, 1
2, 1
1, 1
12, 11
8, 8
7, 6
16, 11
19, 23
128, 147
22, 20
3, 2
1, 6
1, 6
5, 4
2, 5
6, 24
26, 49
33, 41
29, 18
12, 13
6, 2
4, 10
12, 14
9, 5
3, 4
11, 13
15, 23
8, 94
3, 62
6, 10
8, 12
8, 14
233, 297
1217, 1377
485, 387
28, 33
77, 103
240, 238
75, 74
16, 121
153, 258
1222, 1404
789, 663
55, 45
21, 20
79, 85
255, 249
108, 76
23, 35
548, 640
2897, 3087
1841, 1634
131, 118
12, 13
9, 21
124, 150
437, 458
260, 225
28, 12
1, 3
8, 5
10, 5
3, 10
1, 10
3, 5
2, 1
7, 6
3, 3
1, 4
2, 3
5, 3
7, 8
7, 3
6, 3
5, 2
2, 0
2, 2
3, 1
2, 3
4, 3
1, 1
4, 1
1, 4
2, 3
0, 3
1, 5
2, 8
3, 7
2, 1
0, 4
2, 3
3, 9
4, 2
3, 2
1, 2
2, 2
2, 1
1, 1
1, 1
2, 4
4, 2
2, 3
0, 1
1, 1
0, 2
1, 0
0, 1
1, 2
0, 6
12, 4
1, 0
4, 0
1, 0
4, 1
3, 0
2, 2
1, 1
1, 1
0, 0
0, 0
1, 0
0, 0
0, 1
0, 0
0, 0
1, 0
1, 0
0, 1
0, 1
0, 0
0, 0
0, 0
1, 0
0, 0
1, 0
1, 0
0, 0
1, 0
0, 0
0, 0
1, 0
1, 1
0, 0
0, 0
0, 1
0, 1
0, 1
0, 0
0, 0
0, 0
0, 0
0, 0
0, 0
0, 0
0, 0
0, 1
0, 0
1, 0
0, 1
0, 0
0, 0
0, 0
0, 0
0, 0
0, 0
0, 0
0, 0
0, 0
0, 0
0, 0
0, 0
1, 0
0, 0
0, 0
0, 0
0, 1
0, 0
0, 0
0, 0
0, 0
0, 0
0, 0
0, 0
0, 0
0, 0
0, 0
0, 0
0, 0
0, 0
0, 0
0, 0
0, 0
0, 0
0, 0
0, 0
0, 0
0, 0
0, 0
0, 0
0, 0
0, 0
0, 0
0, 0
0, 0
0, 0
0, 0
0, 0
0, 0
0, 0
0, 0
0, 0
0, 0
0, 0
0, 0
0, 0
0, 0
0, 0
0, 0
0, 0
0, 0
0, 0
0, 0
0, 0
0, 0
0, 0
0, 0
0, 0
0, 0
0, 0
0, 0
0, 0
0, 0
0, 0
0, 0
0, 0
0, 0
0, 0
0, 0
0, 0
0, 0
0, 0
0, 0
0, 0
0, 0
0, 0
0, 0
0, 0
0, 0
0, 0
0, 0
0, 0
0, 0
0, 0
0, 0
0, 0
0, 0
0, 0
0, 0
0, 0
0, 0
0, 0
0, 0
0, 0
0, 0
0, 0
0, 0
0, 0
0, 0
0, 0
0, 0
0, 0
0, 0
0, 0
0, 0
0, 0
0, 0
0, 0
0, 0
0, 0
0, 0
0, 0
0, 0
0, 0
0, 0
0, 0
0, 0
#ENDOFDATA     end of spectrum data

File: ps__0257_0689790785_000rfs_shot_3198.msa
#FORMAT      : EMSA/MAS spectral data file
#VERSION     : TC202v2.0 PIXL
#TITLE       : N/A
#DATE        :       Date in the format DD-MMM-YYYY, for example 07-JUL-2010
#TIME        :             The time of day at which the spectrum was recorded, in 24-hour format
#OWNER       : PIXL Flight Model       (PIXL will use this to indicate which instrument took the data.)
#NPOINTS     : 4096     Number of data points in the spectrum (This can be zero for configuration only files)
#NCOLUMNS    : 2     Number of data columns in the spectrum (This can be zero for configuration only files)
#XUNITS      : eV
#YUNITS      : COUNTS
#DATATYPE    : YY
#XPERCHAN    : 7.862, 7.881   eV per channel (separate by commas if more than one detector)
#OFFSET      : 18.5, -22.4         eV of first channel  (separate by commas if more than one detector
#SIGNALTYPE  : XRF
#YP_TEMP     : 3.165
#LIVETIME    : 9.02058, 9.00419   seconds (separate by commas if more than one detector)
#REALTIME    : 10, 10.0   seconds (separate by commas if more than one detector)
#SPECTRUM    : start of spectrum data
0, 0
0, 0
0, 0
0, 0
0, 0
0, 0
0, 0
0, 0
0, 0
2, 1
2, 3
22, 13
39, 34
6, 11
15, 23
78, 63
490, 471
78, 82
7, 4
2, 3
2, 6
11, 14
6, 5
8, 8
56, 56
58, 52
28, 33
17, 14
2, 4
7, 9
19, 24
15, 17
9, 11
27, 36
51, 34
13, 24
12, 11
7, 9
8, 7
13, 8
93, 101
381, 401
153, 120
21, 15
20, 27
69, 55
32, 24
9, 30
51, 77
356, 401
232, 199
27, 23
10, 21
51, 74
117, 125
44, 37
27, 30
511, 615
2793, 3025
1746, 1477
112, 86
16, 23
29, 25
126, 162
443, 437
215, 228
19, 19
7, 5
9, 5
9, 7
4, 5
6, 5
5, 6
3, 6
11, 2
4, 7
0, 5
1, 7
4, 3
4, 6
8, 7
3, 2
3, 5
4, 4
2, 6
3, 4
2, 2
6, 3
7, 7
4, 5
4, 3
2, 2
7, 4
2, 4
2, 4
1, 4
6, 3
6, 1
2, 1
1, 4
2, 2
1, 3
0, 1
3, 0
5, 4
4, 3
5, 2
7, 3
2, 2
2, 1
2, 3
3, 2
1, 2
1, 1
2, 6
4, 5
0, 0
3, 3
1, 3
3, 2
2, 2
1, 1
3, 2
4, 1
1, 0
0, 0
3, 1
0, 2
1, 0
2, 0
0, 0
0, 1
1, 2
0, 0
0, 0
0, 1
0, 2
1, 0
2, 2
0, 1
1, 0
0, 1
0, 0
0, 0
1, 0
0, 1
0, 1
0, 0
0, 0
0, 0
0, 1
0, 0
1, 1
0, 0
1, 0
0, 1
0, 0
0, 1
0, 0
0, 0
0, 1
0, 0
0, 0
1, 0
0, 0
0, 0
0, 0
1, 1
0, 1
0, 0
0, 0
0, 0
0, 0
0, 0
0, 0
0, 0
2, 1
1, 1
0, 1
0, 0
0, 0
0, 0
0, 0
0, 0
0, 0
0, 0
0, 1
0, 0
0, 0
0, 0
0, 0
0, 0
0, 0
0, 0
0, 0
0, 0
0, 0
0, 0
0, 0
0, 0
0, 0
0, 0
0, 0
1, 0
0, 0
0, 0
0, 0
0, 0
0, 0
0, 0
0, 1
0, 0
1, 0
0, 0
0, 0
0, 0
0, 0
0, 0
0, 0
0, 0
0, 0
0, 0
0, 0
0, 0
0, 0
0, 0
0, 0
0, 0
0, 0
0, 0
0, 0
0, 0
0, 0
0, 0
0, 0
0, 0
0, 0
0, 0
0, 0
0, 0
0, 0
0, 0
0, 0
0, 0
0, 0
0, 0
0, 0
0, 0
0, 0
0, 0
0, 0
0, 0
0, 0
0, 0
0, 0
0, 0
0, 0
0, 0
0, 0
0, 0
0, 0
0, 0
0, 0
0, 0
0, 0
0, 0
0, 0
0, 0
0, 0
0, 0
0, 0
0, 0
0, 0
0, 0
0, 0
0, 0
0, 0
0, 0
0, 0
0, 0
0, 0
0, 0
0, 0
0, 0
0, 0
0, 0
0, 0
0, 0
0, 0
0, 0
0, 0
0, 0
0, 0
0, 0
#ENDOFDATA     end of spectrum data