Folder: data-repository/host_upload/12-01-2023/Dourbes (shot-by-shot)/upload_4 (part 6)

File: ps__0257_0689790785_000rfs_shot_3088.msa
#FORMAT      : EMSA/MAS spectral data file
#VERSION     : TC202v2.0 PIXL
#TITLE       : N/A
#DATE        :       Date in the format DD-MMM-YYYY, for example 07-JUL-2010
#TIME        :             The time of day at which the spectrum was recorded, in 24-hour format
#OWNER       : PIXL Flight Model       (PIXL will use this to indicate which instrument took the data.)
#NPOINTS     : 4096     Number of data points in the spectrum (This can be zero for configuration only files)
#NCOLUMNS    : 2     Number of data columns in the spectrum (This can be zero for configuration only files)
#XUNITS      : eV
#YUNITS      : COUNTS
#DATATYPE    : YY
#XPERCHAN    : 7.862, 7.881   eV per channel (separate by commas if more than one detector)
#OFFSET      : 18.5, -22.4         eV of first channel  (separate by commas if more than one detector
#SIGNALTYPE  : XRF
#YP_TEMP     : 3.069
#LIVETIME    : 9.00037, 9.01399   seconds (separate by commas if more than one detector)
#REALTIME    : 10, 10.0   seconds (separate by commas if more than one detector)
#SPECTRUM    : start of spectrum data
0, 0
0, 0
0, 0
0, 0
0, 0
0, 0
0, 0
0, 1
0, 1
0, 0
1, 1
26, 23
39, 45
7, 6
5, 8
82, 74
519, 478
101, 61
17, 14
14, 8
6, 3
8, 0
3, 4
11, 7
46, 49
40, 27
18, 27
7, 13
3, 2
5, 4
1, 5
2, 5
3, 1
47, 30
51, 50
20, 27
57, 37
43, 18
9, 2
4, 2
6, 6
20, 20
25, 24
16, 22
18, 11
7, 24
9, 8
2, 9
9, 11
15, 21
9, 15
11, 5
18, 7
43, 61
93, 81
32, 21
40, 42
615, 781
3540, 3583
2269, 1820
175, 128
13, 17
22, 27
123, 173
513, 547
295, 262
33, 27
6, 4
6, 6
7, 2
3, 3
3, 12
7, 7
6, 6
2, 6
6, 7
3, 2
0, 4
9, 3
6, 2
0, 5
3, 8
3, 7
4, 3
0, 5
3, 2
8, 0
3, 1
0, 1
7, 5
2, 3
4, 2
3, 2
5, 0
11, 3
3, 1
0, 0
1, 2
0, 6
2, 3
1, 1
5, 3
4, 1
2, 1
2, 3
1, 0
3, 1
3, 1
3, 1
1, 3
1, 1
2, 4
2, 5
0, 2
2, 2
3, 4
5, 2
1, 7
0, 0
0, 0
3, 2
2, 1
3, 0
0, 5
1, 0
1, 2
2, 2
2, 1
1, 1
1, 1
3, 1
2, 2
2, 0
1, 0
1, 1
0, 0
0, 1
1, 0
0, 2
1, 0
0, 3
0, 1
0, 0
0, 0
2, 1
0, 1
1, 0
1, 1
1, 0
0, 0
0, 0
0, 0
0, 0
0, 1
0, 0
0, 0
0, 0
0, 0
0, 0
0, 1
0, 1
0, 0
1, 0
0, 1
0, 0
0, 0
0, 1
0, 0
1, 0
0, 0
0, 0
0, 2
1, 0
0, 0
0, 0
0, 0
1, 0
0, 0
0, 0
0, 0
0, 0
0, 0
0, 0
0, 1
0, 0
0, 0
0, 0
0, 0
0, 1
0, 0
0, 1
0, 0
0, 0
0, 0
0, 0
0, 0
0, 0
0, 0
0, 0
0, 0
0, 0
0, 0
0, 0
0, 0
0, 0
0, 0
0, 0
0, 0
0, 0
0, 0
0, 0
0, 0
0, 0
0, 0
0, 0
0, 0
0, 0
0, 0
0, 0
0, 0
0, 0
0, 0
0, 0
0, 0
0, 0
0, 0
0, 0
0, 0
0, 0
0, 0
0, 0
0, 0
0, 0
0, 0
0, 0
0, 0
0, 0
0, 0
0, 0
0, 0
0, 0
0, 0
0, 0
0, 0
0, 0
0, 0
0, 0
0, 0
0, 0
0, 0
0, 0
0, 0
0, 0
0, 0
0, 0
0, 0
0, 0
0, 0
0, 0
0, 0
0, 0
0, 0
0, 0
0, 0
0, 0
0, 0
0, 0
0, 0
0, 0
0, 0
0, 0
0, 0
0, 0
0, 0
0, 0
0, 0
0, 0
0, 0
0, 0
0, 0
0, 0
0, 0
0, 0
0, 0
0, 0
0, 0
0, 0
0, 0
0, 0
0, 0
0, 0
0, 0
0, 0
0, 0
#ENDOFDATA     end of spectrum data

File: ps__0257_0689790785_000rfs_shot_3090.msa
#FORMAT      : EMSA/MAS spectral data file
#VERSION     : TC202v2.0 PIXL
#TITLE       : N/A
#DATE        :       Date in the format DD-MMM-YYYY, for example 07-JUL-2010
#TIME        :             The time of day at which the spectrum was recorded, in 24-hour format
#OWNER       : PIXL Flight Model       (PIXL will use this to indicate which instrument took the data.)
#NPOINTS     : 4096     Number of data points in the spectrum (This can be zero for configuration only files)
#NCOLUMNS    : 2     Number of data columns in the spectrum (This can be zero for configuration only files)
#XUNITS      : eV
#YUNITS      : COUNTS
#DATATYPE    : YY
#XPERCHAN    : 7.862, 7.881   eV per channel (separate by commas if more than one detector)
#OFFSET      : 18.5, -22.4         eV of first channel  (separate by commas if more than one detector
#SIGNALTYPE  : XRF
#YP_TEMP     : 3.294
#LIVETIME    : 9.00462, 8.98879   seconds (separate by commas if more than one detector)
#REALTIME    : 10, 10.0   seconds (separate by commas if more than one detector)
#SPECTRUM    : start of spectrum data
0, 0
0, 0
0, 0
0, 0
0, 0
0, 0
0, 0
0, 1
0, 0
0, 0
1, 1
28, 31
41, 37
6, 2
4, 2
71, 66
445, 462
89, 77
3, 6
2, 1
4, 3
6, 7
1, 0
3, 8
38, 31
37, 27
16, 17
7, 11
4, 4
0, 2
1, 3
3, 2
1, 6
23, 17
27, 44
23, 15
68, 23
44, 13
5, 8
7, 4
12, 3
5, 12
18, 11
15, 15
7, 11
5, 19
3, 17
3, 7
3, 7
10, 10
18, 11
18, 10
18, 11
57, 69
110, 91
36, 26
43, 49
596, 806
3451, 4052
2265, 1965
188, 133
15, 28
22, 20
139, 218
543, 587
302, 284
23, 19
4, 7
4, 4
5, 8
2, 6
4, 12
7, 11
1, 4
6, 8
5, 5
4, 7
2, 5
3, 2
3, 6
3, 10
3, 13
5, 7
4, 2
3, 4
3, 3
4, 4
6, 4
6, 2
4, 2
0, 5
2, 11
3, 3
6, 1
12, 2
4, 0
0, 3
1, 1
2, 6
4, 4
3, 3
2, 1
5, 0
3, 2
2, 0
3, 3
2, 2
1, 1
5, 0
4, 2
0, 2
1, 3
2, 2
4, 4
1, 0
4, 5
5, 6
6, 9
1, 2
1, 2
1, 2
5, 3
6, 3
1, 2
0, 1
1, 1
1, 1
0, 3
0, 1
2, 1
1, 0
1, 1
2, 1
1, 0
0, 1
0, 1
1, 2
0, 0
0, 0
1, 1
0, 0
1, 1
1, 1
0, 1
1, 1
2, 1
0, 0
1, 0
1, 0
0, 0
1, 0
0, 1
0, 0
0, 0
0, 1
0, 0
0, 0
1, 0
0, 0
0, 0
0, 0
0, 0
0, 0
0, 0
0, 0
1, 0
0, 1
0, 1
0, 0
0, 0
0, 0
0, 0
0, 0
0, 0
0, 0
0, 0
0, 0
0, 1
0, 0
0, 0
0, 0
0, 0
0, 0
0, 0
0, 0
0, 0
0, 0
0, 0
0, 0
0, 0
0, 0
0, 0
0, 0
0, 0
0, 0
0, 0
0, 0
0, 0
0, 0
0, 0
0, 0
0, 0
0, 0
0, 0
0, 0
0, 0
0, 0
0, 0
0, 0
0, 0
0, 0
0, 0
0, 0
0, 0
0, 0
0, 0
0, 0
0, 0
0, 0
0, 0
0, 0
0, 0
0, 0
0, 0
0, 0
0, 0
0, 0
0, 0
0, 0
0, 0
0, 0
0, 0
0, 0
0, 0
0, 0
0, 0
0, 0
0, 0
0, 0
0, 0
0, 0
0, 0
0, 0
0, 0
0, 0
0, 0
0, 0
0, 0
0, 0
0, 0
0, 0
0, 0
0, 0
0, 0
0, 0
0, 0
0, 0
0, 0
0, 0
0, 0
0, 0
0, 0
0, 0
0, 0
0, 0
0, 0
0, 0
0, 0
0, 0
0, 0
0, 0
0, 0
0, 0
0, 0
0, 0
0, 0
0, 0
0, 0
0, 0
0, 0
0, 0
0, 0
0, 0
0, 0
0, 0
0, 0
0, 0
0, 0
0, 0
0, 0
0, 0
0, 0
0, 0
0, 0
#ENDOFDATA     end of spectrum data

File: ps__0257_0689790785_000rfs_shot_3092.msa
#FORMAT      : EMSA/MAS spectral data file
#VERSION     : TC202v2.0 PIXL
#TITLE       : N/A
#DATE        :       Date in the format DD-MMM-YYYY, for example 07-JUL-2010
#TIME        :             The time of day at which the spectrum was recorded, in 24-hour format
#OWNER       : PIXL Flight Model       (PIXL will use this to indicate which instrument took the data.)
#NPOINTS     : 4096     Number of data points in the spectrum (This can be zero for configuration only files)
#NCOLUMNS    : 2     Number of data columns in the spectrum (This can be zero for configuration only files)
#XUNITS      : eV
#YUNITS      : COUNTS
#DATATYPE    : YY
#XPERCHAN    : 7.862, 7.881   eV per channel (separate by commas if more than one detector)
#OFFSET      : 18.5, -22.4         eV of first channel  (separate by commas if more than one detector
#SIGNALTYPE  : XRF
#YP_TEMP     : 2.941
#LIVETIME    : 9.00764, 9.00591   seconds (separate by commas if more than one detector)
#REALTIME    : 10, 10.0   seconds (separate by commas if more than one detector)
#SPECTRUM    : start of spectrum data
0, 0
0, 0
0, 0
0, 0
0, 0
0, 0
0, 0
0, 0
1, 0
3, 2
0, 1
30, 19
40, 37
4, 2
4, 4
78, 81
498, 486
84, 81
8, 8
2, 1
0, 1
8, 3
1, 5
7, 8
20, 19
22, 23
27, 18
15, 11
2, 5
2, 1
3, 2
1, 1
5, 3
13, 18
26, 30
13, 24
62, 28
32, 13
2, 5
2, 2
5, 6
12, 14
22, 16
11, 12
11, 12
5, 25
10, 14
11, 9
8, 10
10, 11
18, 10
10, 6
13, 10
52, 59
99, 85
29, 14
27, 33
693, 733
3514, 3748
2238, 1891
157, 127
7, 14
14, 29
155, 163
531, 558
286, 260
19, 17
4, 7
6, 9
2, 4
4, 4
2, 14
6, 6
6, 5
2, 7
4, 3
2, 4
3, 8
3, 5
6, 4
6, 8
0, 7
3, 5
1, 4
2, 4
3, 5
7, 3
4, 2
5, 4
6, 3
0, 5
2, 6
2, 3
14, 1
8, 1
3, 1
4, 3
2, 3
1, 4
3, 3
6, 4
2, 5
4, 0
0, 2
1, 0
2, 0
2, 2
3, 2
1, 1
6, 1
0, 0
1, 4
3, 2
0, 1
3, 2
4, 3
6, 6
4, 10
1, 1
2, 0
0, 0
1, 2
3, 1
0, 0
0, 2
0, 1
1, 1
3, 0
3, 0
4, 1
2, 0
1, 0
1, 2
0, 0
0, 1
0, 1
0, 1
0, 1
1, 2
0, 1
1, 0
0, 2
1, 0
0, 1
1, 0
0, 2
1, 1
0, 1
1, 1
1, 0
1, 0
0, 0
1, 0
0, 0
0, 0
0, 0
0, 0
0, 0
0, 0
0, 0
0, 0
0, 1
0, 0
0, 1
0, 0
1, 0
0, 0
0, 0
0, 1
0, 0
0, 0
1, 0
0, 0
0, 0
1, 0
0, 0
0, 0
0, 0
1, 1
0, 0
0, 0
0, 1
0, 0
0, 0
0, 0
0, 0
0, 0
0, 0
0, 0
0, 0
0, 0
0, 0
0, 0
0, 0
0, 0
0, 0
0, 0
0, 0
0, 0
0, 0
0, 0
0, 0
0, 0
0, 0
0, 1
0, 0
0, 0
0, 0
0, 0
0, 0
0, 0
0, 0
0, 0
0, 0
0, 0
0, 0
0, 0
0, 0
0, 0
0, 0
0, 0
0, 0
0, 0
0, 0
0, 0
0, 0
0, 0
0, 0
0, 0
0, 0
0, 0
0, 0
0, 0
0, 0
0, 0
0, 0
0, 0
0, 0
0, 0
0, 0
0, 0
0, 0
0, 0
0, 0
0, 0
0, 0
0, 0
0, 0
0, 0
0, 0
0, 0
0, 0
0, 0
0, 0
0, 0
0, 0
0, 0
0, 0
0, 0
0, 0
0, 0
0, 0
0, 0
0, 0
0, 0
0, 0
0, 0
0, 0
0, 0
0, 0
0, 0
0, 0
0, 0
0, 0
0, 0
0, 0
0, 0
0, 0
0, 0
0, 0
0, 0
0, 0
0, 0
0, 0
0, 0
0, 0
0, 0
0, 0
0, 0
0, 0
0, 0
0, 0
0, 0
0, 0
#ENDOFDATA     end of spectrum data

File: ps__0257_0689790785_000rfs_shot_3093.msa
#FORMAT      : EMSA/MAS spectral data file
#VERSION     : TC202v2.0 PIXL
#TITLE       : N/A
#DATE        :       Date in the format DD-MMM-YYYY, for example 07-JUL-2010
#TIME        :             The time of day at which the spectrum was recorded, in 24-hour format
#OWNER       : PIXL Flight Model       (PIXL will use this to indicate which instrument took the data.)
#NPOINTS     : 4096     Number of data points in the spectrum (This can be zero for configuration only files)
#NCOLUMNS    : 2     Number of data columns in the spectrum (This can be zero for configuration only files)
#XUNITS      : eV
#YUNITS      : COUNTS
#DATATYPE    : YY
#XPERCHAN    : 7.862, 7.881   eV per channel (separate by commas if more than one detector)
#OFFSET      : 18.5, -22.4         eV of first channel  (separate by commas if more than one detector
#SIGNALTYPE  : XRF
#YP_TEMP     : 3.165
#LIVETIME    : 8.99746, 8.98895   seconds (separate by commas if more than one detector)
#REALTIME    : 10, 10.0   seconds (separate by commas if more than one detector)
#SPECTRUM    : start of spectrum data
0, 0
0, 0
0, 0
0, 0
0, 0
0, 0
0, 0
0, 0
0, 0
1, 0
1, 0
25, 30
34, 46
3, 1
12, 6
76, 52
475, 491
78, 79
7, 2
1, 6
3, 4
6, 3
4, 7
3, 14
19, 27
44, 31
24, 23
10, 12
6, 4
2, 2
5, 5
5, 2
7, 1
21, 30
43, 43
9, 14
41, 40
22, 19
7, 7
3, 3
4, 8
10, 21
18, 21
18, 14
7, 6
7, 17
12, 5
5, 4
11, 12
21, 16
30, 17
25, 17
19, 9
52, 77
79, 97
25, 25
33, 41
602, 813
3421, 3724
2167, 1861
187, 136
25, 20
30, 25
133, 197
511, 585
315, 280
34, 12
4, 11
6, 10
6, 3
2, 4
4, 17
6, 15
6, 8
5, 6
3, 6
5, 4
6, 3
7, 6
5, 1
6, 3
3, 10
4, 3
2, 1
3, 4
2, 2
3, 2
6, 3
4, 4
2, 4
2, 1
0, 4
2, 3
4, 1
6, 2
6, 5
4, 2
0, 1
5, 7
1, 8
1, 5
1, 2
3, 1
2, 7
1, 3
2, 6
1, 0
3, 1
5, 0
2, 3
1, 2
3, 3
1, 2
0, 0
3, 1
5, 4
7, 12
4, 10
0, 2
1, 1
0, 4
1, 0
3, 2
3, 2
1, 0
0, 1
0, 2
2, 1
0, 2
4, 2
4, 1
4, 1
1, 0
0, 1
0, 3
0, 1
0, 0
2, 2
2, 0
4, 0
1, 3
0, 0
0, 0
0, 3
0, 0
0, 0
1, 1
0, 1
0, 0
0, 0
1, 0
0, 0
0, 1
0, 0
0, 0
0, 0
0, 0
0, 2
1, 0
0, 1
0, 0
0, 0
0, 0
1, 0
0, 0
0, 0
0, 0
0, 0
0, 0
0, 0
0, 0
0, 0
1, 0
0, 0
0, 0
0, 0
0, 0
0, 0
0, 0
0, 1
0, 0
0, 0
0, 0
0, 0
0, 0
0, 1
0, 0
0, 0
0, 0
0, 0
0, 0
0, 0
0, 0
0, 0
0, 0
0, 0
0, 0
0, 0
0, 0
0, 0
0, 0
0, 0
0, 1
0, 0
0, 0
0, 0
0, 0
0, 0
0, 0
1, 0
0, 0
0, 0
0, 0
0, 0
0, 0
0, 0
0, 0
0, 0
0, 0
0, 0
0, 0
0, 0
0, 0
0, 0
0, 0
0, 0
0, 0
0, 0
0, 0
0, 0
0, 0
0, 0
0, 0
0, 0
0, 0
0, 0
0, 0
0, 0
0, 0
0, 0
0, 0
0, 0
0, 0
0, 0
0, 0
0, 0
0, 0
0, 0
0, 0
0, 0
0, 0
0, 0
0, 0
0, 0
0, 0
0, 0
0, 0
0, 0
0, 0
0, 0
0, 0
0, 0
0, 0
0, 0
0, 0
0, 0
0, 0
0, 0
0, 0
0, 0
0, 0
0, 0
0, 0
0, 0
0, 0
0, 0
0, 0
0, 0
0, 0
0, 0
0, 0
0, 0
0, 0
0, 0
0, 0
0, 0
0, 0
0, 0
0, 0
0, 0
0, 0
0, 0
0, 0
0, 0
#ENDOFDATA     end of spectrum data

File: ps__0257_0689790785_000rfs_shot_3094.msa
#FORMAT      : EMSA/MAS spectral data file
#VERSION     : TC202v2.0 PIXL
#TITLE       : N/A
#DATE        :       Date in the format DD-MMM-YYYY, for example 07-JUL-2010
#TIME        :             The time of day at which the spectrum was recorded, in 24-hour format
#OWNER       : PIXL Flight Model       (PIXL will use this to indicate which instrument took the data.)
#NPOINTS     : 4096     Number of data points in the spectrum (This can be zero for configuration only files)
#NCOLUMNS    : 2     Number of data columns in the spectrum (This can be zero for configuration only files)
#XUNITS      : eV
#YUNITS      : COUNTS
#DATATYPE    : YY
#XPERCHAN    : 7.862, 7.881   eV per channel (separate by commas if more than one detector)
#OFFSET      : 18.5, -22.4         eV of first channel  (separate by commas if more than one detector
#SIGNALTYPE  : XRF
#YP_TEMP     : 3.198
#LIVETIME    : 9.00301, 8.99361   seconds (separate by commas if more than one detector)
#REALTIME    : 10, 10.0   seconds (separate by commas if more than one detector)
#SPECTRUM    : start of spectrum data
0, 0
0, 0
0, 0
0, 0
0, 0
0, 0
0, 0
0, 0
0, 2
0, 1
1, 0
33, 31
57, 41
7, 5
2, 7
70, 59
461, 495
82, 69
5, 7
1, 1
1, 2
3, 2
1, 1
3, 2
15, 15
27, 15
20, 15
13, 9
6, 4
1, 2
2, 4
3, 7
4, 7
16, 22
23, 24
9, 22
59, 34
30, 15
6, 2
2, 4
9, 1
16, 9
13, 9
10, 13
8, 8
5, 15
8, 8
5, 4
10, 11
7, 9
7, 14
21, 9
10, 12
66, 63
82, 94
20, 20
34, 46
666, 807
3636, 3788
2345, 1823
165, 127
20, 13
11, 36
132, 206
551, 591
327, 277
36, 18
2, 12
6, 14
5, 5
3, 5
8, 14
4, 7
4, 3
6, 5
6, 4
1, 4
4, 10
8, 3
2, 4
4, 9
2, 4
3, 5
6, 3
3, 2
1, 3
6, 2
9, 4
1, 1
2, 2
3, 2
6, 3
6, 3
9, 2
4, 2
3, 3
4, 2
3, 1
2, 6
1, 8
1, 8
3, 2
3, 6
1, 6
1, 7
1, 2
3, 2
2, 2
2, 2
5, 1
1, 0
2, 1
0, 3
4, 2
1, 1
2, 4
9, 5
5, 4
2, 1
2, 2
1, 3
2, 1
2, 0
2, 2
3, 2
0, 2
0, 0
1, 1
0, 2
3, 2
5, 3
3, 0
1, 1
1, 0
1, 0
2, 2
2, 1
1, 0
0, 0
1, 0
0, 0
0, 0
0, 0
1, 1
0, 2
0, 0
0, 0
0, 0
0, 0
1, 0
0, 1
1, 0
0, 0
0, 0
0, 0
0, 0
0, 0
0, 0
2, 2
0, 1
0, 0
0, 0
0, 1
0, 0
0, 0
0, 1
0, 0
1, 1
0, 0
0, 0
1, 0
0, 0
0, 0
0, 0
0, 1
0, 0
0, 0
0, 0
0, 0
0, 0
0, 0
0, 0
0, 0
0, 0
0, 0
1, 0
0, 0
0, 1
0, 0
0, 0
0, 0
0, 0
0, 0
0, 0
0, 0
0, 0
0, 0
0, 0
0, 0
0, 0
0, 0
0, 0
0, 0
0, 0
0, 0
0, 0
0, 0
0, 0
0, 0
0, 0
1, 0
0, 0
0, 0
0, 0
0, 0
0, 0
0, 0
0, 0
0, 0
0, 0
0, 0
0, 0
0, 0
0, 0
0, 0
0, 0
0, 0
0, 0
0, 0
0, 0
0, 0
0, 0
0, 0
0, 0
0, 0
0, 0
0, 0
0, 0
0, 0
0, 0
0, 0
0, 0
0, 0
0, 0
0, 0
0, 0
0, 0
0, 0
0, 0
0, 0
0, 0
0, 0
0, 0
0, 0
0, 0
0, 0
0, 0
0, 0
0, 0
0, 0
0, 0
0, 0
0, 0
0, 0
0, 0
0, 0
0, 0
0, 0
0, 0
0, 0
0, 0
0, 0
0, 0
0, 0
0, 0
0, 0
0, 0
0, 0
0, 0
0, 0
0, 0
0, 0
0, 0
0, 0
0, 0
0, 0
0, 0
0, 0
0, 0
0, 0
0, 0
0, 0
0, 0
0, 0
#ENDOFDATA     end of spectrum data

File: ps__0257_0689790785_000rfs_shot_3096.msa
#FORMAT      : EMSA/MAS spectral data file
#VERSION     : TC202v2.0 PIXL
#TITLE       : N/A
#DATE        :       Date in the format DD-MMM-YYYY, for example 07-JUL-2010
#TIME        :             The time of day at which the spectrum was recorded, in 24-hour format
#OWNER       : PIXL Flight Model       (PIXL will use this to indicate which instrument took the data.)
#NPOINTS     : 4096     Number of data points in the spectrum (This can be zero for configuration only files)
#NCOLUMNS    : 2     Number of data columns in the spectrum (This can be zero for configuration only files)
#XUNITS      : eV
#YUNITS      : COUNTS
#DATATYPE    : YY
#XPERCHAN    : 7.862, 7.881   eV per channel (separate by commas if more than one detector)
#OFFSET      : 18.5, -22.4         eV of first channel  (separate by commas if more than one detector
#SIGNALTYPE  : XRF
#YP_TEMP     : 3.037
#LIVETIME    : 9.00709, 9.00384   seconds (separate by commas if more than one detector)
#REALTIME    : 10, 10.0   seconds (separate by commas if more than one detector)
#SPECTRUM    : start of spectrum data
0, 0
0, 0
0, 0
0, 0
0, 0
0, 0
0, 0
1, 0
2, 2
2, 1
2, 0
30, 31
26, 28
7, 5
11, 9
77, 92
556, 554
78, 74
6, 5
2, 1
1, 1
6, 5
6, 4
12, 12
66, 61
57, 52
19, 21
14, 19
5, 5
8, 5
11, 8
2, 7
4, 3
31, 43
67, 49
22, 15
80, 16
56, 20
9, 1
3, 1
8, 7
21, 20
20, 18
13, 23
10, 4
15, 27
2, 13
7, 15
10, 10
20, 20
21, 10
19, 8
14, 13
43, 64
94, 105
18, 27
34, 41
597, 753
3393, 3556
2123, 1819
161, 112
24, 22
20, 28
142, 181
491, 529
287, 242
34, 18
11, 8
9, 10
10, 3
4, 3
3, 8
10, 4
7, 3
11, 6
6, 3
2, 8
3, 6
3, 5
4, 3
3, 7
2, 9
1, 2
4, 4
2, 2
4, 0
4, 2
5, 3
4, 2
3, 3
2, 8
5, 5
5, 3
5, 3
4, 3
7, 5
1, 4
3, 3
1, 0
3, 7
4, 2
3, 2
1, 4
3, 3
2, 2
1, 1
0, 6
2, 1
5, 4
1, 1
1, 1
3, 2
5, 4
3, 2
3, 4
1, 1
7, 4
4, 6
2, 4
0, 1
1, 0
5, 1
2, 1
2, 1
0, 1
1, 3
0, 1
1, 0
2, 4
1, 1
2, 1
1, 0
0, 0
2, 1
2, 0
0, 0
2, 1
3, 1
0, 1
0, 1
0, 1
0, 1
1, 0
1, 1
0, 1
0, 0
0, 1
0, 0
0, 0
1, 0
0, 1
1, 0
0, 1
1, 0
0, 0
0, 1
0, 0
1, 0
0, 0
0, 0
0, 1
0, 0
0, 0
0, 0
0, 0
0, 1
1, 0
0, 0
0, 0
1, 0
1, 0
0, 1
0, 0
2, 0
1, 0
0, 0
0, 0
0, 0
0, 0
0, 0
1, 0
0, 1
0, 0
0, 1
0, 0
0, 0
0, 0
0, 0
0, 0
0, 0
0, 0
0, 0
0, 0
0, 0
0, 0
1, 0
0, 0
0, 0
0, 0
0, 0
0, 0
0, 0
0, 0
0, 0
0, 0
0, 0
0, 0
0, 0
0, 0
0, 0
0, 0
0, 0
0, 0
0, 0
0, 0
0, 0
0, 0
0, 0
0, 0
0, 0
0, 0
0, 0
0, 0
0, 0
0, 0
0, 0
0, 0
0, 0
0, 0
0, 0
0, 0
0, 0
0, 0
0, 0
0, 0
0, 0
0, 0
0, 0
0, 0
0, 0
0, 0
0, 0
0, 0
0, 0
0, 0
0, 0
0, 0
0, 0
0, 0
0, 0
0, 0
0, 0
0, 0
0, 0
0, 0
0, 0
0, 0
0, 0
0, 0
0, 0
0, 0
0, 0
0, 0
0, 0
0, 0
0, 0
0, 0
0, 0
0, 0
0, 0
0, 0
0, 0
0, 0
0, 0
0, 0
0, 0
0, 0
0, 0
0, 0
0, 0
0, 0
0, 0
0, 0
0, 0
0, 0
0, 0
0, 0
0, 0
0, 0
0, 0
0, 0
0, 0
0, 0
0, 0
#ENDOFDATA     end of spectrum data

File: ps__0257_0689790785_000rfs_shot_3101.msa
#FORMAT      : EMSA/MAS spectral data file
#VERSION     : TC202v2.0 PIXL
#TITLE       : N/A
#DATE        :       Date in the format DD-MMM-YYYY, for example 07-JUL-2010
#TIME        :             The time of day at which the spectrum was recorded, in 24-hour format
#OWNER       : PIXL Flight Model       (PIXL will use this to indicate which instrument took the data.)
#NPOINTS     : 4096     Number of data points in the spectrum (This can be zero for configuration only files)
#NCOLUMNS    : 2     Number of data columns in the spectrum (This can be zero for configuration only files)
#XUNITS      : eV
#YUNITS      : COUNTS
#DATATYPE    : YY
#XPERCHAN    : 7.862, 7.881   eV per channel (separate by commas if more than one detector)
#OFFSET      : 18.5, -22.4         eV of first channel  (separate by commas if more than one detector
#SIGNALTYPE  : XRF
#YP_TEMP     : 3.101
#LIVETIME    : 8.99691, 8.99725   seconds (separate by commas if more than one detector)
#REALTIME    : 10, 10.0   seconds (separate by commas if more than one detector)
#SPECTRUM    : start of spectrum data
0, 0
0, 0
0, 0
0, 0
0, 0
0, 0
0, 0
0, 0
1, 0
2, 2
2, 2
28, 17
39, 34
5, 4
5, 3
72, 65
496, 418
94, 77
6, 6
2, 4
2, 2
8, 3
4, 5
18, 16
86, 67
66, 49
28, 28
16, 15
11, 1
6, 4
2, 2
5, 4
3, 4
15, 10
17, 22
5, 8
6, 2
10, 4
2, 5
5, 5
5, 35
11, 66
27, 39
14, 12
4, 5
11, 4
7, 7
10, 5
5, 11
10, 15
10, 6
9, 11
10, 14
46, 67
88, 72
32, 27
45, 55
671, 784
3617, 3783
2339, 1846
187, 124
16, 16
21, 29
141, 154
570, 550
292, 263
25, 26
1, 1
11, 8
5, 4
7, 3
6, 24
5, 17
8, 7
10, 4
5, 4
3, 1
0, 5
3, 2
4, 6
4, 2
2, 2
3, 3
1, 2
4, 1
0, 4
1, 13
3, 16
2, 4
1, 4
3, 2
4, 3
2, 3
0, 3
1, 2
6, 4
4, 5
1, 2
5, 2
13, 1
4, 1
4, 3
2, 3
5, 2
1, 3
1, 0
1, 0
1, 0
1, 0
0, 1
2, 0
4, 5
2, 3
1, 4
2, 0
5, 5
8, 6
4, 4
2, 0
0, 2
2, 1
0, 1
3, 1
2, 2
2, 0
0, 0
2, 2
1, 0
2, 0
1, 0
2, 1
0, 0
2, 1
1, 0
0, 0
0, 0
2, 0
0, 0
0, 2
0, 0
2, 0
0, 2
0, 0
1, 1
1, 1
0, 0
1, 1
0, 0
0, 1
0, 1
2, 2
0, 1
0, 0
1, 0
0, 1
1, 0
1, 0
1, 0
0, 1
0, 0
1, 1
0, 0
0, 0
0, 0
1, 0
0, 0
0, 0
0, 0
0, 0
0, 0
0, 0
1, 0
0, 0
0, 0
0, 0
0, 0
0, 0
0, 0
0, 0
0, 0
0, 0
0, 0
0, 0
0, 0
0, 0
0, 0
0, 0
1, 0
0, 0
0, 0
0, 0
0, 0
0, 0
0, 0
0, 0
0, 0
0, 0
0, 0
0, 0
1, 0
0, 0
0, 0
0, 0
0, 0
0, 0
0, 0
1, 0
0, 0
0, 0
0, 0
0, 0
0, 0
0, 0
0, 0
0, 0
0, 0
0, 0
0, 0
0, 0
0, 0
0, 0
0, 0
0, 0
0, 0
0, 0
0, 0
0, 0
0, 0
0, 0
0, 0
0, 0
0, 0
0, 0
0, 0
0, 0
0, 0
0, 0
0, 0
0, 0
0, 0
0, 0
0, 0
0, 0
0, 0
0, 0
0, 0
0, 0
0, 0
0, 0
0, 0
0, 0
0, 0
0, 0
0, 0
0, 0
0, 0
0, 0
0, 0
0, 0
0, 0
0, 0
0, 0
0, 0
0, 0
0, 0
0, 0
0, 0
0, 0
0, 0
0, 0
0, 0
0, 0
0, 0
0, 0
0, 0
0, 0
0, 0
0, 0
0, 0
0, 0
0, 0
0, 0
0, 0
0, 0
0, 0
0, 0
0, 0
0, 0
0, 0
0, 0
0, 0
0, 0
0, 0
0, 0
#ENDOFDATA     end of spectrum data

File: ps__0257_0689790785_000rfs_shot_3105.msa
#FORMAT      : EMSA/MAS spectral data file
#VERSION     : TC202v2.0 PIXL
#TITLE       : N/A
#DATE        :       Date in the format DD-MMM-YYYY, for example 07-JUL-2010
#TIME        :             The time of day at which the spectrum was recorded, in 24-hour format
#OWNER       : PIXL Flight Model       (PIXL will use this to indicate which instrument took the data.)
#NPOINTS     : 4096     Number of data points in the spectrum (This can be zero for configuration only files)
#NCOLUMNS    : 2     Number of data columns in the spectrum (This can be zero for configuration only files)
#XUNITS      : eV
#YUNITS      : COUNTS
#DATATYPE    : YY
#XPERCHAN    : 7.862, 7.881   eV per channel (separate by commas if more than one detector)
#OFFSET      : 18.5, -22.4         eV of first channel  (separate by commas if more than one detector
#SIGNALTYPE  : XRF
#YP_TEMP     : 3.037
#LIVETIME    : 9.00889, 9.01075   seconds (separate by commas if more than one detector)
#REALTIME    : 10, 10.0   seconds (separate by commas if more than one detector)
#SPECTRUM    : start of spectrum data
0, 0
0, 0
0, 0
0, 0
0, 0
0, 0
0, 0
0, 0
0, 1
0, 0
0, 1
24, 31
38, 41
1, 3
1, 5
73, 65
498, 505
76, 61
4, 4
1, 0
2, 2
6, 2
4, 5
4, 5
22, 21
33, 28
24, 17
20, 11
7, 4
4, 1
3, 2
4, 3
10, 2
33, 21
26, 31
7, 3
11, 8
7, 4
1, 5
3, 3
9, 17
25, 55
34, 34
15, 10
9, 3
8, 11
7, 10
9, 9
9, 9
9, 12
9, 11
12, 15
16, 21
66, 73
79, 108
31, 25
45, 54
628, 775
3552, 3813
2249, 1939
168, 136
14, 37
21, 43
165, 164
506, 597
337, 273
20, 17
15, 3
11, 7
6, 6
4, 2
5, 5
7, 7
2, 5
2, 9
5, 5
3, 6
4, 3
4, 7
3, 5
4, 0
4, 1
2, 4
3, 4
4, 4
3, 1
4, 3
8, 6
2, 6
5, 4
5, 3
3, 5
1, 6
2, 2
5, 1
3, 3
2, 1
5, 4
3, 0
4, 2
3, 0
2, 4
2, 0
1, 1
1, 3
3, 2
2, 1
2, 1
1, 3
1, 0
1, 3
3, 2
1, 6
2, 4
1, 4
5, 3
9, 4
7, 3
1, 1
0, 3
1, 1
5, 4
3, 3
0, 2
2, 0
1, 1
2, 0
0, 2
1, 1
2, 1
0, 1
0, 0
2, 1
1, 0
0, 1
1, 0
0, 2
0, 0
0, 0
1, 0
1, 0
2, 1
0, 0
1, 0
1, 1
0, 0
0, 0
0, 0
0, 1
0, 0
0, 0
0, 0
0, 1
1, 1
1, 1
0, 0
1, 0
0, 0
0, 1
0, 2
0, 0
0, 0
0, 0
1, 0
1, 1
0, 0
0, 0
0, 0
0, 0
1, 0
0, 0
0, 0
0, 0
0, 0
0, 1
0, 0
0, 0
0, 0
1, 0
0, 0
1, 0
0, 0
0, 1
0, 0
0, 0
0, 0
0, 0
0, 0
0, 0
0, 0
0, 0
0, 0
0, 0
0, 0
0, 0
0, 0
0, 0
0, 0
0, 0
0, 0
0, 0
0, 0
0, 0
0, 0
0, 0
0, 0
0, 0
0, 0
0, 0
0, 0
0, 0
0, 0
0, 0
0, 0
0, 0
0, 0
0, 0
0, 0
0, 0
0, 0
0, 0
0, 0
0, 0
0, 0
0, 0
0, 0
0, 0
0, 0
0, 0
0, 0
0, 0
0, 0
0, 0
0, 0
0, 0
0, 0
0, 0
0, 0
0, 0
0, 0
0, 0
0, 0
0, 0
0, 0
0, 0
0, 0
0, 0
0, 0
0, 0
0, 0
0, 0
0, 0
0, 0
0, 0
0, 0
0, 0
0, 0
0, 0
0, 0
0, 0
0, 0
0, 0
0, 0
0, 0
0, 0
0, 0
0, 0
0, 0
0, 0
0, 0
0, 0
0, 0
0, 0
0, 0
0, 0
0, 0
0, 0
0, 0
0, 0
0, 0
0, 0
0, 0
0, 0
0, 0
0, 0
0, 0
0, 0
0, 0
0, 0
0, 0
0, 0
0, 0
0, 0
0, 0
#ENDOFDATA     end of spectrum data

File: ps__0257_0689790785_000rfs_shot_3110.msa
#FORMAT      : EMSA/MAS spectral data file
#VERSION     : TC202v2.0 PIXL
#TITLE       : N/A
#DATE        :       Date in the format DD-MMM-YYYY, for example 07-JUL-2010
#TIME        :             The time of day at which the spectrum was recorded, in 24-hour format
#OWNER       : PIXL Flight Model       (PIXL will use this to indicate which instrument took the data.)
#NPOINTS     : 4096     Number of data points in the spectrum (This can be zero for configuration only files)
#NCOLUMNS    : 2     Number of data columns in the spectrum (This can be zero for configuration only files)
#XUNITS      : eV
#YUNITS      : COUNTS
#DATATYPE    : YY
#XPERCHAN    : 7.862, 7.881   eV per channel (separate by commas if more than one detector)
#OFFSET      : 18.5, -22.4         eV of first channel  (separate by commas if more than one detector
#SIGNALTYPE  : XRF
#YP_TEMP     : 2.909
#LIVETIME    : 9.12455, 9.14824   seconds (separate by commas if more than one detector)
#REALTIME    : 10, 10.0   seconds (separate by commas if more than one detector)
#SPECTRUM    : start of spectrum data
0, 0
0, 0
0, 0
0, 0
0, 0
0, 0
0, 0
0, 0
0, 0
2, 2
3, 5
28, 18
27, 25
4, 6
18, 13
126, 94
888, 637
127, 111
17, 12
6, 3
1, 4
6, 7
5, 3
9, 11
31, 36
41, 49
33, 28
17, 12
8, 4
5, 3
6, 5
5, 2
23, 27
591, 513
1005, 732
101, 71
104, 89
134, 96
8, 17
4, 8
15, 12
54, 26
25, 19
15, 9
9, 7
11, 20
11, 8
12, 4
15, 8
50, 43
30, 32
15, 9
5, 4
37, 41
65, 50
25, 22
28, 18
270, 267
1424, 1260
865, 602
77, 49
10, 13
10, 10
60, 77
221, 185
121, 82
12, 9
13, 7
4, 7
7, 3
4, 10
11, 10
7, 9
6, 8
13, 10
11, 7
11, 2
10, 5
11, 4
4, 3
5, 6
9, 5
5, 2
5, 4
9, 2
3, 3
3, 1
4, 2
4, 10
6, 6
9, 6
3, 9
3, 1
6, 1
5, 4
2, 3
4, 3
3, 3
3, 4
6, 4
7, 2
7, 5
3, 2
5, 4
1, 2
2, 2
1, 2
2, 2
2, 5
2, 7
5, 1
10, 1
2, 10
3, 2
2, 1
4, 4
3, 0
3, 5
3, 2
1, 2
1, 0
1, 0
1, 2
0, 1
1, 2
1, 0
2, 1
2, 1
0, 2
2, 0
2, 1
1, 3
0, 0
0, 1
1, 0
0, 1
2, 2
1, 2
1, 2
0, 0
0, 1
1, 1
1, 0
1, 0
0, 1
0, 1
2, 0
0, 0
0, 0
0, 0
0, 0
2, 0
1, 2
0, 0
0, 0
0, 2
0, 0
1, 0
0, 0
0, 0
0, 1
0, 0
0, 0
1, 1
0, 0
0, 1
1, 0
0, 1
1, 0
0, 0
1, 1
0, 0
0, 0
0, 0
0, 0
0, 0
0, 0
0, 0
1, 0
1, 0
0, 0
0, 0
0, 0
1, 1
0, 0
0, 1
1, 0
0, 0
0, 0
0, 0
0, 1
1, 0
0, 0
0, 0
0, 0
0, 0
0, 0
0, 0
0, 0
0, 0
0, 0
0, 0
0, 0
0, 0
0, 0
0, 0
0, 0
0, 0
0, 0
0, 0
0, 0
0, 0
0, 0
0, 0
0, 0
0, 0
0, 0
0, 0
0, 0
0, 0
0, 0
0, 0
0, 0
0, 0
0, 0
0, 0
0, 0
0, 0
0, 0
0, 0
0, 0
0, 0
0, 0
0, 0
0, 0
0, 0
0, 0
0, 0
0, 0
0, 0
0, 0
0, 0
0, 0
0, 0
0, 0
0, 0
0, 0
0, 0
0, 0
0, 0
0, 0
0, 0
0, 0
0, 0
0, 0
0, 0
0, 0
0, 0
0, 0
0, 0
0, 0
0, 0
0, 0
0, 0
0, 0
0, 0
0, 0
0, 0
0, 0
0, 0
0, 0
0, 0
0, 0
0, 0
0, 0
0, 0
0, 0
0, 0
0, 0
0, 0
0, 0
0, 0
0, 0
0, 0
0, 0
0, 0
0, 0
0, 0
0, 0
0, 0
0, 0
0, 0
0, 0
0, 0
#ENDOFDATA     end of spectrum data