Folder: data-repository/host_upload/12-01-2023/Dourbes (shot-by-shot)/upload_4 (part 15)

File: ps__0257_0689790785_000rfs_shot_3257.msa
#FORMAT      : EMSA/MAS spectral data file
#VERSION     : TC202v2.0 PIXL
#TITLE       : N/A
#DATE        :       Date in the format DD-MMM-YYYY, for example 07-JUL-2010
#TIME        :             The time of day at which the spectrum was recorded, in 24-hour format
#OWNER       : PIXL Flight Model       (PIXL will use this to indicate which instrument took the data.)
#NPOINTS     : 4096     Number of data points in the spectrum (This can be zero for configuration only files)
#NCOLUMNS    : 2     Number of data columns in the spectrum (This can be zero for configuration only files)
#XUNITS      : eV
#YUNITS      : COUNTS
#DATATYPE    : YY
#XPERCHAN    : 7.862, 7.881   eV per channel (separate by commas if more than one detector)
#OFFSET      : 18.5, -22.4         eV of first channel  (separate by commas if more than one detector
#SIGNALTYPE  : XRF
#YP_TEMP     : 3.005
#LIVETIME    : 8.81282, 8.9501   seconds (separate by commas if more than one detector)
#REALTIME    : 10, 10.0   seconds (separate by commas if more than one detector)
#SPECTRUM    : start of spectrum data
0, 0
0, 0
0, 0
0, 0
0, 0
0, 0
0, 0
0, 0
19, 2
84, 2
11, 3
24, 24
40, 30
6, 6
5, 7
69, 65
410, 404
68, 60
6, 4
9, 1
28, 23
178, 180
55, 53
99, 26
2895, 132
4469, 95
318, 30
24, 16
11, 5
0, 3
11, 3
4, 2
6, 5
22, 41
39, 37
4, 5
9, 9
9, 3
8, 11
4, 7
9, 5
9, 37
29, 98
11, 51
8, 15
8, 9
6, 10
10, 11
13, 10
33, 15
12, 7
11, 8
7, 15
49, 65
107, 104
22, 41
40, 42
660, 807
3518, 3711
2096, 1871
145, 97
60, 12
74, 20
135, 171
520, 568
287, 233
26, 27
9, 4
9, 4
6, 7
8, 3
5, 14
5, 10
4, 2
5, 6
2, 2
6, 2
2, 3
6, 3
7, 8
4, 3
9, 6
16, 4
14, 5
8, 11
7, 13
7, 5
5, 4
10, 4
5, 3
3, 4
1, 2
3, 1
1, 1
3, 2
1, 3
2, 3
10, 2
9, 0
10, 1
4, 2
2, 1
2, 1
2, 4
0, 1
1, 0
3, 4
1, 3
1, 0
2, 2
1, 3
0, 0
4, 2
0, 2
0, 0
2, 3
4, 3
6, 5
0, 1
3, 0
2, 2
2, 1
1, 4
2, 2
0, 2
0, 0
0, 1
0, 1
0, 1
0, 1
0, 1
0, 0
1, 0
0, 1
0, 1
2, 0
0, 1
3, 1
0, 0
0, 0
0, 1
0, 3
1, 0
1, 0
1, 0
0, 1
0, 0
0, 0
0, 1
0, 0
0, 0
0, 0
0, 0
0, 0
0, 0
1, 0
0, 1
1, 0
1, 0
0, 1
0, 0
0, 0
0, 0
0, 0
0, 0
0, 0
0, 0
0, 0
0, 1
1, 0
0, 1
1, 0
0, 0
0, 0
0, 0
0, 0
1, 0
0, 0
0, 0
0, 0
0, 0
0, 0
0, 2
0, 1
0, 0
0, 0
0, 0
0, 1
1, 0
0, 0
0, 0
0, 1
0, 0
0, 0
0, 0
0, 0
0, 0
0, 0
0, 0
0, 0
0, 0
0, 0
0, 0
0, 0
0, 0
0, 0
0, 0
0, 0
0, 0
0, 1
0, 0
0, 0
0, 0
0, 0
0, 1
0, 0
0, 0
0, 0
0, 0
0, 0
0, 0
0, 0
0, 0
0, 0
0, 0
0, 0
0, 0
0, 0
0, 0
0, 0
0, 0
0, 0
0, 0
0, 0
0, 0
0, 0
0, 0
0, 0
0, 0
0, 0
0, 0
0, 0
0, 0
0, 0
0, 0
0, 0
0, 0
0, 0
0, 0
0, 0
0, 0
0, 0
0, 0
0, 0
0, 0
0, 0
0, 0
0, 0
0, 0
0, 0
0, 0
0, 0
0, 0
0, 0
0, 0
0, 0
0, 0
0, 0
0, 0
0, 0
0, 0
0, 0
0, 0
0, 0
0, 0
0, 0
0, 0
0, 0
0, 0
0, 0
0, 0
0, 0
0, 0
0, 0
0, 0
0, 0
0, 0
0, 0
0, 0
0, 0
0, 0
0, 0
0, 0
0, 0
#ENDOFDATA     end of spectrum data

File: ps__0257_0689790785_000rfs_shot_3261.msa
#FORMAT      : EMSA/MAS spectral data file
#VERSION     : TC202v2.0 PIXL
#TITLE       : N/A
#DATE        :       Date in the format DD-MMM-YYYY, for example 07-JUL-2010
#TIME        :             The time of day at which the spectrum was recorded, in 24-hour format
#OWNER       : PIXL Flight Model       (PIXL will use this to indicate which instrument took the data.)
#NPOINTS     : 4096     Number of data points in the spectrum (This can be zero for configuration only files)
#NCOLUMNS    : 2     Number of data columns in the spectrum (This can be zero for configuration only files)
#XUNITS      : eV
#YUNITS      : COUNTS
#DATATYPE    : YY
#XPERCHAN    : 7.862, 7.881   eV per channel (separate by commas if more than one detector)
#OFFSET      : 18.5, -22.4         eV of first channel  (separate by commas if more than one detector
#SIGNALTYPE  : XRF
#YP_TEMP     : 3.23
#LIVETIME    : 9.02984, 8.99832   seconds (separate by commas if more than one detector)
#REALTIME    : 10, 10.0   seconds (separate by commas if more than one detector)
#SPECTRUM    : start of spectrum data
0, 0
0, 0
0, 0
0, 0
0, 0
0, 0
0, 0
0, 0
0, 1
2, 0
1, 0
24, 34
35, 47
9, 1
3, 5
78, 96
440, 567
72, 91
2, 7
2, 3
4, 1
24, 16
7, 10
7, 5
43, 46
33, 27
21, 19
15, 12
5, 3
5, 3
2, 6
2, 3
1, 1
17, 33
18, 25
3, 4
8, 11
3, 3
4, 1
0, 5
5, 5
14, 30
17, 38
17, 18
5, 5
9, 8
7, 12
11, 9
10, 8
18, 17
9, 17
8, 3
9, 15
51, 75
89, 93
27, 29
37, 44
594, 828
3212, 3977
1952, 2009
135, 130
16, 18
40, 25
144, 177
465, 609
229, 269
21, 20
6, 2
8, 14
4, 5
4, 3
4, 3
2, 3
3, 11
9, 2
2, 5
2, 6
0, 2
7, 3
4, 7
3, 4
1, 2
2, 0
1, 5
4, 2
1, 5
3, 4
2, 0
2, 7
6, 5
2, 5
3, 2
2, 3
3, 4
2, 6
1, 3
1, 5
3, 5
1, 2
3, 1
0, 3
2, 1
1, 0
1, 3
3, 0
1, 1
2, 1
2, 0
3, 2
1, 1
1, 1
0, 3
1, 1
0, 0
3, 2
6, 6
7, 3
2, 3
2, 1
1, 1
1, 1
1, 3
4, 6
1, 5
0, 0
0, 1
2, 1
3, 2
1, 2
1, 3
0, 3
0, 0
1, 0
1, 1
1, 0
0, 1
1, 2
0, 0
0, 2
0, 1
0, 0
0, 0
0, 0
1, 0
2, 1
1, 0
1, 0
0, 0
0, 2
0, 1
1, 1
0, 0
1, 1
0, 1
0, 2
0, 0
0, 2
0, 0
0, 0
0, 1
0, 0
0, 0
1, 0
0, 0
0, 0
0, 1
1, 1
0, 1
0, 0
0, 1
0, 0
0, 0
0, 0
0, 1
0, 0
0, 0
1, 1
0, 0
0, 1
0, 1
0, 0
0, 0
0, 0
0, 0
0, 0
0, 0
1, 0
0, 0
0, 0
0, 0
0, 0
0, 0
0, 0
0, 0
0, 0
0, 0
0, 0
0, 0
0, 0
0, 0
0, 0
0, 0
0, 0
1, 0
0, 0
0, 0
0, 0
0, 0
0, 0
0, 0
0, 0
0, 0
0, 0
0, 0
0, 0
0, 0
0, 0
0, 0
0, 0
0, 0
0, 0
0, 0
0, 0
0, 0
0, 0
0, 0
0, 0
0, 0
0, 0
0, 0
0, 0
0, 0
0, 0
0, 0
0, 0
0, 0
0, 0
0, 0
0, 0
0, 0
0, 0
0, 0
0, 0
0, 0
0, 0
0, 0
0, 0
0, 0
0, 0
0, 0
0, 0
0, 0
0, 0
0, 0
0, 0
0, 0
0, 0
0, 0
0, 0
0, 0
0, 0
0, 0
0, 0
0, 0
0, 0
0, 0
0, 0
0, 0
0, 0
0, 0
0, 0
0, 0
0, 0
0, 0
0, 0
0, 0
0, 0
0, 0
0, 0
0, 0
0, 0
0, 0
0, 0
0, 0
0, 0
0, 0
0, 0
0, 0
0, 0
0, 0
0, 0
0, 0
0, 0
0, 0
#ENDOFDATA     end of spectrum data

File: ps__0257_0689790785_000rfs_shot_3263.msa
#FORMAT      : EMSA/MAS spectral data file
#VERSION     : TC202v2.0 PIXL
#TITLE       : N/A
#DATE        :       Date in the format DD-MMM-YYYY, for example 07-JUL-2010
#TIME        :             The time of day at which the spectrum was recorded, in 24-hour format
#OWNER       : PIXL Flight Model       (PIXL will use this to indicate which instrument took the data.)
#NPOINTS     : 4096     Number of data points in the spectrum (This can be zero for configuration only files)
#NCOLUMNS    : 2     Number of data columns in the spectrum (This can be zero for configuration only files)
#XUNITS      : eV
#YUNITS      : COUNTS
#DATATYPE    : YY
#XPERCHAN    : 7.862, 7.881   eV per channel (separate by commas if more than one detector)
#OFFSET      : 18.5, -22.4         eV of first channel  (separate by commas if more than one detector
#SIGNALTYPE  : XRF
#YP_TEMP     : 3.037
#LIVETIME    : 9.01112, 9.011   seconds (separate by commas if more than one detector)
#REALTIME    : 10, 10.0   seconds (separate by commas if more than one detector)
#SPECTRUM    : start of spectrum data
0, 0
0, 0
0, 0
0, 0
0, 0
0, 0
0, 0
0, 0
1, 0
2, 0
4, 2
42, 33
39, 34
1, 2
3, 4
88, 98
528, 542
81, 84
4, 2
2, 0
0, 1
2, 4
2, 0
3, 10
32, 37
32, 32
23, 28
14, 15
6, 5
5, 3
1, 0
1, 2
4, 1
22, 19
28, 28
5, 3
3, 6
6, 5
6, 5
3, 1
2, 3
9, 16
24, 30
12, 17
11, 5
4, 3
4, 11
5, 7
10, 8
16, 16
8, 13
15, 7
15, 10
63, 65
87, 84
19, 29
40, 34
636, 827
3546, 3812
2182, 1823
155, 120
18, 15
41, 24
137, 206
524, 523
285, 235
20, 21
7, 2
8, 4
6, 4
2, 2
4, 3
3, 4
9, 7
9, 8
2, 5
3, 2
4, 4
3, 3
4, 9
1, 2
2, 3
3, 3
1, 2
3, 4
3, 1
2, 5
4, 7
3, 7
0, 3
3, 1
2, 4
2, 5
3, 7
2, 1
5, 3
1, 2
2, 3
0, 2
1, 3
1, 2
3, 2
0, 2
2, 2
3, 2
1, 2
3, 1
1, 1
0, 1
2, 1
1, 2
2, 1
0, 2
0, 2
1, 3
4, 8
7, 3
3, 5
1, 3
2, 2
2, 1
4, 0
3, 2
4, 0
1, 0
0, 2
1, 2
1, 1
1, 1
0, 3
1, 1
2, 0
2, 2
0, 0
0, 0
1, 1
0, 1
0, 1
0, 0
0, 0
1, 2
2, 0
0, 0
0, 0
1, 0
1, 0
0, 1
0, 1
0, 0
0, 0
0, 0
1, 0
0, 0
0, 0
0, 1
0, 0
0, 0
0, 0
0, 0
0, 1
0, 0
0, 0
0, 0
1, 0
1, 0
1, 1
0, 0
0, 0
0, 0
0, 0
0, 0
1, 0
1, 0
0, 0
0, 0
0, 0
0, 0
0, 0
0, 0
0, 0
0, 1
1, 0
0, 0
1, 0
0, 1
1, 0
0, 0
0, 0
0, 0
0, 1
0, 0
0, 0
1, 0
0, 0
0, 0
0, 0
0, 0
0, 0
0, 0
0, 0
0, 0
0, 0
0, 0
0, 0
0, 0
0, 0
0, 0
0, 0
0, 0
0, 0
0, 0
0, 0
0, 0
0, 0
0, 0
0, 0
0, 0
0, 0
0, 0
0, 0
0, 0
0, 0
0, 0
0, 0
0, 0
0, 0
0, 0
0, 0
0, 0
0, 0
0, 0
0, 0
0, 0
0, 0
0, 0
0, 0
0, 0
0, 0
0, 0
0, 0
0, 0
0, 0
0, 0
0, 0
0, 0
0, 0
0, 0
0, 0
0, 0
0, 0
0, 0
0, 0
0, 0
0, 0
0, 0
0, 0
0, 0
0, 0
0, 0
0, 0
0, 0
0, 0
0, 0
0, 0
0, 0
0, 0
0, 0
0, 0
0, 0
0, 0
0, 0
0, 0
0, 0
0, 0
0, 0
0, 0
0, 0
0, 0
0, 0
0, 0
0, 0
0, 0
0, 0
0, 0
0, 0
0, 0
0, 0
0, 0
0, 0
0, 0
0, 0
0, 0
0, 0
0, 0
#ENDOFDATA     end of spectrum data

File: ps__0257_0689790785_000rfs_shot_3266.msa
#FORMAT      : EMSA/MAS spectral data file
#VERSION     : TC202v2.0 PIXL
#TITLE       : N/A
#DATE        :       Date in the format DD-MMM-YYYY, for example 07-JUL-2010
#TIME        :             The time of day at which the spectrum was recorded, in 24-hour format
#OWNER       : PIXL Flight Model       (PIXL will use this to indicate which instrument took the data.)
#NPOINTS     : 4096     Number of data points in the spectrum (This can be zero for configuration only files)
#NCOLUMNS    : 2     Number of data columns in the spectrum (This can be zero for configuration only files)
#XUNITS      : eV
#YUNITS      : COUNTS
#DATATYPE    : YY
#XPERCHAN    : 7.862, 7.881   eV per channel (separate by commas if more than one detector)
#OFFSET      : 18.5, -22.4         eV of first channel  (separate by commas if more than one detector
#SIGNALTYPE  : XRF
#YP_TEMP     : 3.037
#LIVETIME    : 9.00262, 9.00246   seconds (separate by commas if more than one detector)
#REALTIME    : 10, 10.0   seconds (separate by commas if more than one detector)
#SPECTRUM    : start of spectrum data
0, 0
0, 0
0, 0
0, 0
0, 0
0, 0
0, 0
0, 0
0, 1
1, 0
4, 0
24, 12
35, 32
11, 8
12, 11
75, 79
521, 486
82, 72
8, 5
1, 4
1, 2
2, 6
2, 3
5, 8
38, 39
44, 45
23, 23
18, 18
5, 4
9, 5
10, 12
7, 3
5, 11
23, 22
34, 33
3, 18
5, 14
4, 11
5, 6
7, 4
34, 38
176, 157
58, 63
22, 27
14, 20
40, 30
18, 23
4, 22
24, 29
109, 141
85, 87
23, 13
15, 21
64, 62
93, 97
28, 61
41, 50
636, 722
3409, 3560
2103, 1763
152, 129
25, 24
26, 33
146, 151
531, 514
315, 231
31, 13
4, 5
8, 8
5, 7
3, 5
5, 5
1, 4
11, 11
6, 11
9, 1
2, 4
2, 5
4, 3
9, 7
9, 8
0, 4
5, 3
5, 4
1, 3
2, 3
4, 1
4, 2
4, 4
1, 3
1, 1
4, 4
2, 4
3, 4
4, 3
1, 5
1, 3
1, 4
2, 3
3, 1
2, 0
2, 2
1, 0
3, 2
5, 2
2, 0
1, 2
2, 3
2, 2
3, 2
2, 0
2, 2
1, 1
1, 3
2, 1
2, 5
9, 14
7, 3
1, 2
0, 5
4, 1
3, 1
4, 5
1, 0
5, 0
0, 0
1, 2
1, 1
2, 0
1, 0
0, 2
0, 0
0, 1
0, 1
0, 1
0, 2
2, 1
1, 0
0, 0
0, 0
0, 0
1, 0
1, 0
0, 1
0, 1
1, 0
0, 1
0, 1
0, 0
1, 1
0, 0
0, 1
1, 0
0, 0
0, 0
1, 0
0, 1
0, 0
1, 0
0, 1
1, 0
0, 0
1, 0
0, 0
0, 0
0, 0
0, 0
1, 0
0, 0
0, 0
0, 0
0, 0
0, 0
1, 0
1, 1
1, 0
0, 0
0, 0
0, 0
0, 1
1, 0
0, 0
0, 0
0, 1
1, 0
0, 0
0, 0
0, 0
0, 0
0, 0
0, 0
0, 0
1, 0
0, 0
0, 0
0, 0
0, 0
0, 0
0, 0
0, 0
0, 0
0, 0
0, 0
0, 0
0, 0
0, 0
0, 0
0, 0
0, 0
0, 0
0, 0
0, 0
0, 0
0, 0
0, 0
0, 0
0, 0
0, 0
0, 0
0, 0
0, 0
0, 0
0, 0
0, 0
0, 0
0, 0
0, 0
0, 0
0, 0
0, 0
0, 0
0, 0
0, 0
0, 0
0, 0
0, 0
0, 0
0, 0
0, 0
0, 0
0, 0
0, 0
0, 0
0, 0
0, 0
0, 0
0, 0
0, 0
0, 0
0, 0
0, 0
0, 0
0, 0
0, 0
0, 0
0, 0
0, 0
0, 0
0, 0
0, 0
0, 0
0, 0
0, 0
0, 0
0, 0
0, 0
0, 0
0, 0
0, 0
0, 0
0, 0
0, 0
0, 0
0, 0
0, 0
0, 0
0, 0
0, 0
0, 0
0, 0
0, 0
0, 0
0, 0
0, 0
0, 0
0, 0
0, 0
0, 0
0, 0
0, 0
0, 0
0, 0
0, 0
0, 0
#ENDOFDATA     end of spectrum data

File: ps__0257_0689790785_000rfs_shot_3267.msa
#FORMAT      : EMSA/MAS spectral data file
#VERSION     : TC202v2.0 PIXL
#TITLE       : N/A
#DATE        :       Date in the format DD-MMM-YYYY, for example 07-JUL-2010
#TIME        :             The time of day at which the spectrum was recorded, in 24-hour format
#OWNER       : PIXL Flight Model       (PIXL will use this to indicate which instrument took the data.)
#NPOINTS     : 4096     Number of data points in the spectrum (This can be zero for configuration only files)
#NCOLUMNS    : 2     Number of data columns in the spectrum (This can be zero for configuration only files)
#XUNITS      : eV
#YUNITS      : COUNTS
#DATATYPE    : YY
#XPERCHAN    : 7.862, 7.881   eV per channel (separate by commas if more than one detector)
#OFFSET      : 18.5, -22.4         eV of first channel  (separate by commas if more than one detector
#SIGNALTYPE  : XRF
#YP_TEMP     : 2.909
#LIVETIME    : 9.00679, 8.98981   seconds (separate by commas if more than one detector)
#REALTIME    : 10, 10.0   seconds (separate by commas if more than one detector)
#SPECTRUM    : start of spectrum data
0, 0
0, 0
0, 0
0, 0
0, 0
0, 0
0, 0
0, 0
3, 1
1, 2
2, 2
38, 25
32, 35
5, 7
5, 7
91, 65
480, 481
77, 66
6, 3
4, 3
3, 1
4, 4
1, 2
10, 13
40, 55
37, 32
18, 17
12, 12
6, 9
1, 0
6, 8
2, 3
4, 3
22, 26
37, 41
2, 30
6, 23
3, 13
7, 7
6, 8
67, 67
272, 301
110, 107
15, 29
22, 37
58, 70
21, 31
5, 46
37, 71
263, 266
149, 180
12, 21
19, 21
48, 64
128, 194
48, 200
40, 82
573, 720
3159, 3289
1962, 1666
159, 116
30, 22
44, 26
152, 161
452, 501
281, 231
23, 17
4, 6
7, 3
4, 7
5, 7
3, 3
2, 6
6, 6
4, 3
10, 2
5, 2
5, 2
1, 3
8, 6
7, 5
6, 5
6, 2
7, 3
5, 7
6, 2
4, 1
1, 1
4, 4
4, 3
4, 4
6, 4
1, 3
3, 9
3, 5
1, 3
2, 0
1, 1
6, 3
1, 0
3, 2
1, 2
5, 0
6, 5
5, 5
3, 3
2, 3
2, 4
1, 1
0, 0
2, 3
2, 1
2, 4
2, 3
4, 3
4, 2
3, 5
7, 5
1, 1
1, 1
4, 1
3, 0
4, 2
2, 2
2, 0
1, 1
1, 0
1, 0
2, 2
2, 0
0, 0
0, 1
1, 0
0, 0
0, 0
2, 1
1, 0
0, 1
0, 1
0, 1
0, 0
0, 0
0, 0
2, 0
0, 0
0, 0
0, 0
0, 1
1, 0
0, 0
2, 0
0, 0
0, 0
0, 0
1, 1
0, 0
1, 0
0, 0
0, 0
1, 0
1, 0
0, 0
0, 0
2, 1
2, 0
0, 0
0, 0
0, 0
1, 0
0, 0
0, 0
0, 0
1, 0
0, 0
1, 0
0, 0
1, 0
0, 1
0, 0
0, 0
0, 0
0, 0
1, 1
1, 0
1, 0
0, 0
0, 0
0, 0
0, 0
0, 0
0, 0
0, 0
0, 0
0, 0
0, 0
0, 0
0, 0
1, 0
0, 0
0, 0
0, 0
0, 0
0, 0
0, 0
0, 0
0, 0
0, 0
0, 0
0, 0
0, 0
0, 0
0, 0
0, 0
0, 0
0, 0
0, 0
0, 0
1, 0
0, 0
0, 0
0, 0
0, 0
0, 0
0, 0
0, 0
0, 0
0, 0
0, 0
0, 0
0, 0
0, 0
0, 0
0, 0
0, 0
0, 0
0, 0
0, 0
0, 0
0, 0
0, 0
0, 0
0, 0
0, 0
0, 0
0, 0
0, 0
0, 0
0, 0
0, 0
0, 0
0, 0
0, 0
0, 0
0, 0
0, 0
0, 0
0, 0
0, 0
0, 0
0, 0
0, 0
0, 0
0, 0
0, 0
0, 0
0, 0
0, 0
0, 0
0, 0
0, 0
0, 0
0, 0
0, 0
0, 0
0, 0
0, 0
0, 0
0, 0
0, 0
0, 0
0, 0
0, 0
0, 0
0, 0
0, 0
0, 0
0, 0
0, 0
0, 0
0, 0
0, 0
0, 0
0, 0
0, 0
#ENDOFDATA     end of spectrum data

File: ps__0257_0689790785_000rfs_shot_3271.msa
#FORMAT      : EMSA/MAS spectral data file
#VERSION     : TC202v2.0 PIXL
#TITLE       : N/A
#DATE        :       Date in the format DD-MMM-YYYY, for example 07-JUL-2010
#TIME        :             The time of day at which the spectrum was recorded, in 24-hour format
#OWNER       : PIXL Flight Model       (PIXL will use this to indicate which instrument took the data.)
#NPOINTS     : 4096     Number of data points in the spectrum (This can be zero for configuration only files)
#NCOLUMNS    : 2     Number of data columns in the spectrum (This can be zero for configuration only files)
#XUNITS      : eV
#YUNITS      : COUNTS
#DATATYPE    : YY
#XPERCHAN    : 7.862, 7.881   eV per channel (separate by commas if more than one detector)
#OFFSET      : 18.5, -22.4         eV of first channel  (separate by commas if more than one detector
#SIGNALTYPE  : XRF
#YP_TEMP     : 3.39
#LIVETIME    : 9.09022, 9.09474   seconds (separate by commas if more than one detector)
#REALTIME    : 10, 10.0   seconds (separate by commas if more than one detector)
#SPECTRUM    : start of spectrum data
0, 0
0, 0
0, 0
0, 0
0, 0
0, 0
0, 0
0, 0
1, 2
1, 3
3, 4
20, 17
29, 23
14, 12
28, 26
98, 124
687, 751
102, 109
4, 9
2, 5
3, 11
6, 15
4, 2
12, 15
36, 119
44, 156
22, 52
16, 14
8, 5
5, 11
45, 40
22, 13
22, 16
160, 178
258, 270
35, 22
27, 34
39, 49
12, 10
4, 5
6, 10
29, 29
20, 15
12, 7
11, 3
11, 19
4, 27
6, 18
11, 13
30, 33
28, 50
19, 44
20, 13
38, 53
77, 46
21, 25
56, 39
429, 541
2035, 2344
1325, 1171
106, 73
16, 17
24, 28
92, 98
323, 361
179, 139
8, 20
10, 7
9, 8
10, 4
3, 4
3, 14
3, 9
4, 2
5, 8
11, 5
10, 2
4, 6
6, 8
5, 3
3, 5
5, 6
3, 1
8, 6
7, 4
5, 10
4, 16
7, 12
1, 7
7, 4
1, 6
7, 8
6, 12
7, 3
6, 4
6, 2
4, 5
3, 3
3, 2
5, 5
2, 4
3, 4
2, 2
3, 4
3, 5
7, 3
8, 2
5, 5
2, 1
1, 2
3, 0
0, 2
1, 1
2, 1
2, 4
4, 2
3, 4
2, 3
0, 2
1, 1
3, 0
0, 2
1, 0
2, 3
1, 2
1, 5
0, 2
1, 2
1, 2
1, 1
1, 0
0, 1
1, 1
0, 2
0, 0
0, 1
0, 1
0, 0
1, 0
0, 0
3, 2
0, 0
0, 2
0, 0
0, 0
1, 0
0, 0
0, 1
1, 0
0, 0
0, 0
0, 0
0, 0
0, 0
0, 0
0, 0
0, 0
0, 0
0, 0
0, 0
1, 0
0, 1
0, 0
0, 0
0, 0
0, 0
0, 0
1, 0
0, 0
0, 0
0, 1
1, 1
0, 0
0, 0
0, 1
0, 0
0, 0
0, 0
0, 0
0, 0
0, 0
0, 0
0, 0
1, 0
1, 0
2, 0
0, 0
0, 1
1, 0
0, 0
0, 0
0, 0
0, 0
0, 0
0, 0
0, 0
0, 0
1, 0
1, 0
0, 0
0, 0
0, 0
0, 0
0, 0
0, 0
0, 0
0, 0
0, 0
0, 0
0, 0
0, 0
0, 0
0, 0
0, 0
0, 0
0, 0
0, 0
0, 0
0, 0
0, 0
0, 0
0, 0
0, 0
0, 0
0, 0
0, 0
0, 0
0, 0
0, 0
0, 0
0, 0
0, 0
0, 0
0, 0
0, 0
0, 0
0, 0
0, 0
0, 0
0, 0
0, 0
0, 0
0, 0
0, 0
0, 0
0, 0
0, 0
0, 0
0, 0
0, 0
0, 0
0, 0
0, 0
0, 0
0, 0
0, 0
0, 0
0, 0
0, 0
0, 0
0, 0
0, 0
0, 0
0, 0
0, 0
0, 0
0, 0
0, 0
0, 0
0, 0
0, 0
0, 0
0, 0
0, 0
0, 0
0, 0
0, 0
0, 0
0, 0
0, 0
0, 0
0, 0
0, 0
0, 0
0, 0
0, 0
0, 0
0, 0
0, 0
0, 0
0, 0
0, 0
0, 0
0, 0
#ENDOFDATA     end of spectrum data

File: ps__0257_0689790785_000rfs_shot_3272.msa
#FORMAT      : EMSA/MAS spectral data file
#VERSION     : TC202v2.0 PIXL
#TITLE       : N/A
#DATE        :       Date in the format DD-MMM-YYYY, for example 07-JUL-2010
#TIME        :             The time of day at which the spectrum was recorded, in 24-hour format
#OWNER       : PIXL Flight Model       (PIXL will use this to indicate which instrument took the data.)
#NPOINTS     : 4096     Number of data points in the spectrum (This can be zero for configuration only files)
#NCOLUMNS    : 2     Number of data columns in the spectrum (This can be zero for configuration only files)
#XUNITS      : eV
#YUNITS      : COUNTS
#DATATYPE    : YY
#XPERCHAN    : 7.862, 7.881   eV per channel (separate by commas if more than one detector)
#OFFSET      : 18.5, -22.4         eV of first channel  (separate by commas if more than one detector
#SIGNALTYPE  : XRF
#YP_TEMP     : 3.39
#LIVETIME    : 9.075, 9.06155   seconds (separate by commas if more than one detector)
#REALTIME    : 10, 10.0   seconds (separate by commas if more than one detector)
#SPECTRUM    : start of spectrum data
0, 0
0, 0
0, 0
0, 0
0, 0
0, 0
0, 0
0, 0
0, 1
2, 4
2, 0
26, 16
38, 32
10, 12
20, 22
121, 115
727, 767
111, 104
8, 8
3, 9
1, 27
8, 13
6, 4
9, 6
25, 40
24, 199
21, 84
6, 11
2, 5
4, 3
17, 13
18, 12
31, 14
291, 331
475, 477
37, 45
54, 59
68, 61
8, 12
5, 18
9, 19
23, 28
16, 13
12, 7
9, 9
7, 17
4, 26
1, 13
10, 10
40, 43
36, 138
9, 72
10, 14
51, 47
75, 73
31, 13
67, 33
479, 507
2238, 2428
1365, 1205
101, 146
18, 18
25, 20
86, 126
363, 324
170, 159
23, 21
5, 7
10, 9
8, 6
4, 9
4, 18
4, 8
5, 3
8, 8
6, 7
4, 2
6, 6
4, 7
1, 7
3, 12
5, 1
8, 3
4, 4
6, 7
5, 11
7, 26
4, 6
4, 2
1, 2
6, 3
4, 14
6, 13
2, 7
2, 4
5, 2
2, 0
0, 1
0, 1
4, 3
3, 0
2, 5
4, 3
3, 2
4, 2
11, 3
6, 2
0, 2
3, 1
1, 1
2, 3
1, 1
2, 1
2, 1
3, 3
8, 1
1, 8
1, 0
1, 3
1, 0
1, 0
2, 0
2, 3
1, 0
1, 2
3, 1
1, 0
0, 1
1, 2
0, 1
0, 0
1, 0
0, 1
0, 0
0, 0
0, 0
0, 1
0, 1
0, 0
1, 0
0, 0
0, 1
0, 1
2, 1
0, 2
0, 1
0, 0
0, 1
3, 0
1, 0
1, 0
0, 0
0, 0
1, 0
1, 1
1, 0
0, 0
1, 0
0, 0
0, 1
0, 0
0, 0
1, 0
0, 0
0, 0
0, 0
0, 0
0, 1
0, 0
0, 0
0, 1
0, 0
0, 0
1, 0
0, 0
0, 0
0, 0
0, 0
1, 2
0, 0
0, 0
0, 1
0, 2
0, 0
0, 0
0, 0
0, 0
0, 0
1, 0
0, 0
0, 0
1, 0
0, 0
0, 0
0, 0
0, 0
0, 0
0, 0
0, 1
0, 0
1, 0
0, 0
0, 0
0, 0
0, 0
0, 0
0, 0
0, 0
0, 0
0, 0
0, 0
0, 0
0, 0
0, 0
0, 0
0, 0
0, 0
1, 0
0, 0
0, 0
0, 0
0, 0
0, 0
0, 0
0, 0
0, 0
0, 0
0, 0
0, 0
0, 0
0, 0
0, 0
0, 0
0, 0
0, 0
0, 0
0, 0
0, 0
0, 0
0, 0
0, 0
0, 0
0, 0
0, 0
0, 0
0, 0
0, 0
0, 0
0, 0
0, 0
0, 0
0, 0
0, 0
0, 0
0, 0
0, 0
0, 0
0, 0
0, 0
0, 0
0, 0
0, 0
0, 0
0, 0
0, 0
0, 0
0, 0
0, 0
0, 0
0, 0
0, 0
0, 0
0, 0
0, 0
0, 0
0, 0
0, 0
0, 0
0, 0
0, 0
0, 0
0, 0
0, 0
0, 0
0, 0
0, 0
0, 0
0, 0
0, 0
0, 0
0, 0
0, 0
0, 0
0, 0
#ENDOFDATA     end of spectrum data

File: ps__0257_0689790785_000rfs_shot_3274.msa
#FORMAT      : EMSA/MAS spectral data file
#VERSION     : TC202v2.0 PIXL
#TITLE       : N/A
#DATE        :       Date in the format DD-MMM-YYYY, for example 07-JUL-2010
#TIME        :             The time of day at which the spectrum was recorded, in 24-hour format
#OWNER       : PIXL Flight Model       (PIXL will use this to indicate which instrument took the data.)
#NPOINTS     : 4096     Number of data points in the spectrum (This can be zero for configuration only files)
#NCOLUMNS    : 2     Number of data columns in the spectrum (This can be zero for configuration only files)
#XUNITS      : eV
#YUNITS      : COUNTS
#DATATYPE    : YY
#XPERCHAN    : 7.862, 7.881   eV per channel (separate by commas if more than one detector)
#OFFSET      : 18.5, -22.4         eV of first channel  (separate by commas if more than one detector
#SIGNALTYPE  : XRF
#YP_TEMP     : 3.647
#LIVETIME    : 9.13553, 9.12124   seconds (separate by commas if more than one detector)
#REALTIME    : 10, 10.0   seconds (separate by commas if more than one detector)
#SPECTRUM    : start of spectrum data
0, 0
0, 0
0, 0
0, 0
0, 0
0, 0
0, 0
0, 0
1, 0
2, 1
2, 2
25, 22
27, 34
10, 6
17, 21
119, 105
716, 717
123, 131
18, 18
7, 9
5, 25
6, 14
5, 1
6, 15
36, 39
58, 43
15, 23
10, 27
3, 8
1, 2
1, 6
5, 6
23, 24
454, 533
799, 818
72, 60
93, 95
100, 113
17, 16
4, 19
5, 47
35, 29
20, 16
9, 13
5, 6
14, 12
7, 12
3, 11
41, 11
94, 65
40, 31
6, 11
5, 6
31, 38
50, 58
27, 22
88, 21
365, 324
1368, 1474
829, 851
69, 152
10, 20
11, 14
64, 72
197, 254
113, 111
8, 24
8, 10
21, 6
15, 8
7, 4
2, 1
9, 3
8, 6
3, 7
6, 5
4, 3
6, 4
3, 7
4, 10
1, 3
6, 1
6, 4
3, 5
6, 11
6, 26
7, 57
4, 31
1, 7
5, 2
5, 3
1, 6
2, 4
4, 7
6, 1
4, 3
3, 4
3, 3
2, 1
5, 3
3, 1
4, 2
2, 0
8, 3
4, 1
7, 1
11, 5
5, 2
2, 0
0, 3
1, 3
1, 2
1, 2
1, 2
2, 3
2, 2
0, 1
2, 2
1, 1
2, 1
1, 1
3, 0
4, 0
2, 0
1, 1
1, 1
1, 0
2, 1
1, 0
0, 2
1, 2
1, 0
0, 1
0, 0
0, 1
1, 0
0, 0
0, 2
1, 1
2, 0
0, 0
0, 0
2, 1
0, 1
0, 1
0, 0
1, 2
0, 0
1, 0
0, 0
1, 1
1, 1
0, 0
0, 0
0, 0
0, 0
2, 0
1, 0
0, 1
0, 0
1, 0
0, 0
1, 0
1, 1
1, 0
0, 0
2, 0
0, 0
0, 0
0, 0
0, 0
0, 0
0, 0
1, 0
0, 0
0, 0
0, 0
0, 0
0, 0
0, 0
0, 1
0, 0
1, 0
0, 0
0, 0
0, 0
0, 0
0, 0
0, 0
0, 0
0, 1
0, 0
0, 0
0, 0
0, 0
0, 0
0, 0
0, 0
0, 0
0, 0
0, 0
0, 0
0, 0
0, 0
0, 0
0, 0
0, 0
0, 0
0, 0
0, 0
0, 0
0, 0
0, 0
0, 0
0, 0
0, 0
0, 0
0, 0
0, 0
0, 0
0, 0
0, 0
0, 0
0, 0
0, 0
0, 0
0, 0
0, 0
0, 0
0, 0
0, 0
0, 0
0, 0
0, 0
0, 0
0, 0
0, 0
0, 0
0, 0
0, 0
0, 0
0, 0
0, 0
0, 0
0, 0
0, 0
0, 0
0, 0
0, 0
0, 0
0, 0
0, 0
0, 0
0, 0
0, 0
0, 0
0, 0
0, 0
0, 0
0, 0
0, 0
0, 0
0, 0
0, 0
0, 0
0, 0
0, 0
0, 0
0, 0
0, 0
0, 0
0, 0
0, 0
0, 0
0, 0
0, 0
0, 0
0, 0
0, 0
0, 0
0, 0
0, 0
0, 0
0, 0
0, 0
0, 0
0, 0
0, 0
0, 0
0, 0
0, 0
0, 0
0, 0
0, 0
#ENDOFDATA     end of spectrum data

File: ps__0257_0689790785_000rfs_shot_3278.msa
#FORMAT      : EMSA/MAS spectral data file
#VERSION     : TC202v2.0 PIXL
#TITLE       : N/A
#DATE        :       Date in the format DD-MMM-YYYY, for example 07-JUL-2010
#TIME        :             The time of day at which the spectrum was recorded, in 24-hour format
#OWNER       : PIXL Flight Model       (PIXL will use this to indicate which instrument took the data.)
#NPOINTS     : 4096     Number of data points in the spectrum (This can be zero for configuration only files)
#NCOLUMNS    : 2     Number of data columns in the spectrum (This can be zero for configuration only files)
#XUNITS      : eV
#YUNITS      : COUNTS
#DATATYPE    : YY
#XPERCHAN    : 7.862, 7.881   eV per channel (separate by commas if more than one detector)
#OFFSET      : 18.5, -22.4         eV of first channel  (separate by commas if more than one detector
#SIGNALTYPE  : XRF
#YP_TEMP     : 3.101
#LIVETIME    : 9.12328, 9.14106   seconds (separate by commas if more than one detector)
#REALTIME    : 10, 10.0   seconds (separate by commas if more than one detector)
#SPECTRUM    : start of spectrum data
0, 0
0, 0
0, 0
0, 0
0, 0
0, 0
0, 0
0, 0
0, 2
1, 0
1, 3
21, 16
37, 24
5, 4
11, 4
147, 129
918, 818
152, 133
24, 14
1, 4
3, 9
6, 5
1, 3
2, 4
17, 23
22, 23
12, 18
14, 16
8, 11
3, 3
3, 5
3, 3
27, 21
700, 701
1067, 1020
108, 67
120, 116
164, 122
13, 8
6, 9
12, 14
38, 33
12, 12
4, 7
4, 2
11, 13
7, 22
3, 14
13, 11
71, 46
36, 24
5, 3
11, 4
31, 36
53, 62
27, 12
168, 11
554, 252
1268, 1192
752, 562
64, 32
6, 12
10, 8
53, 50
190, 159
112, 95
18, 22
3, 8
8, 5
6, 5
3, 5
9, 5
5, 3
1, 4
6, 4
16, 2
9, 6
7, 8
3, 5
3, 3
5, 6
3, 1
4, 3
1, 3
4, 9
5, 36
5, 49
9, 17
3, 8
3, 4
2, 5
5, 2
5, 9
13, 13
9, 5
5, 3
2, 2
1, 4
1, 7
3, 2
3, 1
3, 3
2, 6
3, 4
3, 3
16, 3
14, 3
7, 5
3, 3
1, 4
1, 0
2, 7
0, 2
1, 2
0, 2
1, 4
0, 3
2, 3
0, 3
1, 1
3, 1
3, 3
2, 4
3, 1
2, 0
2, 2
0, 2
4, 1
2, 1
0, 2
0, 1
0, 0
0, 0
0, 1
0, 0
0, 0
0, 0
1, 1
0, 0
1, 0
1, 0
1, 1
1, 0
2, 0
1, 1
0, 0
2, 1
0, 0
0, 0
1, 1
0, 0
0, 1
0, 0
0, 1
0, 0
0, 0
0, 0
0, 1
1, 1
1, 1
0, 0
1, 0
0, 1
2, 1
1, 0
0, 0
0, 1
0, 1
0, 0
0, 0
0, 0
1, 0
1, 0
0, 0
0, 0
0, 0
0, 0
0, 0
0, 1
0, 0
0, 0
1, 0
0, 1
1, 0
0, 0
0, 0
1, 0
0, 0
0, 0
0, 0
0, 1
0, 0
0, 0
0, 0
0, 0
0, 0
0, 0
0, 0
0, 0
0, 0
0, 0
0, 0
0, 0
0, 0
0, 0
0, 0
0, 0
0, 0
0, 0
0, 0
0, 0
0, 0
0, 0
0, 0
0, 0
0, 0
0, 0
0, 0
0, 0
0, 0
0, 0
0, 0
0, 0
0, 0
0, 0
0, 0
0, 0
0, 0
0, 0
0, 0
0, 0
0, 0
0, 0
0, 0
0, 0
0, 0
0, 0
0, 0
0, 0
0, 0
0, 0
0, 0
0, 0
0, 0
0, 0
0, 0
0, 0
0, 0
0, 0
0, 0
0, 0
0, 0
0, 0
0, 0
0, 0
0, 0
0, 0
0, 0
0, 0
0, 0
0, 0
0, 0
0, 0
0, 0
0, 0
0, 0
0, 0
0, 0
0, 0
0, 0
0, 0
0, 0
0, 0
0, 0
0, 0
0, 0
0, 0
0, 0
0, 0
0, 0
0, 0
0, 0
0, 0
0, 0
0, 0
0, 0
0, 0
0, 0
0, 0
0, 0
0, 0
0, 0
0, 0
0, 0
#ENDOFDATA     end of spectrum data