Folder: data-repository/host_upload/12-01-2023/Dourbes (shot-by-shot)/upload_4 (part 3)

File: ps__0257_0689790785_000rfs_shot_3036.msa
#FORMAT      : EMSA/MAS spectral data file
#VERSION     : TC202v2.0 PIXL
#TITLE       : N/A
#DATE        :       Date in the format DD-MMM-YYYY, for example 07-JUL-2010
#TIME        :             The time of day at which the spectrum was recorded, in 24-hour format
#OWNER       : PIXL Flight Model       (PIXL will use this to indicate which instrument took the data.)
#NPOINTS     : 4096     Number of data points in the spectrum (This can be zero for configuration only files)
#NCOLUMNS    : 2     Number of data columns in the spectrum (This can be zero for configuration only files)
#XUNITS      : eV
#YUNITS      : COUNTS
#DATATYPE    : YY
#XPERCHAN    : 7.862, 7.881   eV per channel (separate by commas if more than one detector)
#OFFSET      : 18.5, -22.4         eV of first channel  (separate by commas if more than one detector
#SIGNALTYPE  : XRF
#YP_TEMP     : 3.133
#LIVETIME    : 8.97805, 8.95646   seconds (separate by commas if more than one detector)
#REALTIME    : 10, 10.0   seconds (separate by commas if more than one detector)
#SPECTRUM    : start of spectrum data
0, 0
0, 0
0, 0
0, 0
0, 0
0, 0
0, 0
0, 0
1, 3
4, 3
1, 5
21, 32
27, 18
4, 4
2, 4
40, 38
222, 254
41, 31
8, 13
4, 8
17, 25
138, 161
45, 60
40, 42
177, 173
119, 109
47, 43
37, 31
11, 14
6, 7
8, 8
4, 10
15, 16
162, 195
282, 245
32, 27
23, 36
31, 35
13, 7
5, 10
10, 10
13, 20
24, 27
20, 26
16, 17
18, 16
16, 15
23, 22
14, 16
18, 11
13, 15
13, 19
26, 24
74, 82
113, 107
32, 32
33, 37
637, 799
3446, 3935
2226, 1999
197, 130
36, 34
41, 59
146, 186
521, 560
313, 281
26, 17
5, 4
6, 10
3, 5
7, 6
5, 0
2, 2
4, 9
2, 6
2, 6
7, 3
3, 7
3, 4
4, 9
3, 6
4, 7
1, 8
6, 5
3, 2
5, 3
2, 6
4, 5
1, 2
1, 4
3, 2
3, 4
5, 1
2, 4
4, 4
2, 3
0, 0
6, 1
3, 3
2, 2
3, 7
0, 6
2, 1
3, 2
0, 3
2, 3
1, 1
1, 2
6, 3
3, 2
1, 4
1, 1
3, 4
3, 2
4, 1
1, 5
12, 7
6, 7
2, 2
1, 1
1, 1
4, 4
1, 4
3, 0
0, 0
1, 2
1, 2
3, 1
1, 0
2, 0
0, 1
0, 0
1, 0
1, 4
0, 2
0, 0
0, 0
3, 1
0, 0
0, 0
1, 0
0, 1
0, 1
1, 0
0, 0
0, 0
1, 1
0, 0
0, 0
0, 0
0, 1
0, 0
0, 1
0, 0
1, 0
0, 0
0, 0
0, 0
1, 1
1, 0
0, 0
1, 1
0, 0
0, 0
0, 0
0, 0
1, 0
0, 2
0, 0
0, 0
0, 0
0, 0
1, 0
0, 0
0, 0
0, 0
1, 0
0, 1
0, 0
0, 0
0, 0
0, 0
0, 0
0, 0
0, 0
0, 0
0, 0
0, 0
0, 0
0, 0
0, 0
0, 0
0, 0
0, 0
0, 0
0, 1
0, 0
0, 0
0, 1
0, 0
0, 0
0, 0
0, 0
0, 0
0, 0
0, 0
0, 0
0, 0
0, 0
0, 0
1, 0
0, 0
0, 0
0, 0
0, 0
0, 0
0, 0
0, 0
0, 0
0, 0
0, 0
0, 0
0, 0
0, 0
0, 0
0, 0
0, 0
0, 0
0, 0
0, 0
0, 0
0, 0
0, 0
0, 0
0, 0
0, 0
0, 0
0, 0
0, 0
0, 0
0, 0
0, 0
0, 0
0, 0
0, 0
0, 0
1, 0
0, 0
0, 0
0, 0
0, 0
0, 0
0, 0
0, 0
0, 0
0, 0
0, 0
0, 0
0, 0
0, 0
0, 0
0, 0
0, 0
0, 0
0, 0
0, 0
0, 0
0, 0
0, 0
0, 0
0, 0
0, 0
0, 0
0, 0
0, 0
0, 0
0, 0
0, 0
0, 0
0, 0
0, 0
0, 0
0, 0
0, 0
0, 0
0, 0
0, 0
0, 0
0, 0
0, 0
0, 0
0, 0
0, 0
0, 0
#ENDOFDATA     end of spectrum data

File: ps__0257_0689790785_000rfs_shot_3037.msa
#FORMAT      : EMSA/MAS spectral data file
#VERSION     : TC202v2.0 PIXL
#TITLE       : N/A
#DATE        :       Date in the format DD-MMM-YYYY, for example 07-JUL-2010
#TIME        :             The time of day at which the spectrum was recorded, in 24-hour format
#OWNER       : PIXL Flight Model       (PIXL will use this to indicate which instrument took the data.)
#NPOINTS     : 4096     Number of data points in the spectrum (This can be zero for configuration only files)
#NCOLUMNS    : 2     Number of data columns in the spectrum (This can be zero for configuration only files)
#XUNITS      : eV
#YUNITS      : COUNTS
#DATATYPE    : YY
#XPERCHAN    : 7.862, 7.881   eV per channel (separate by commas if more than one detector)
#OFFSET      : 18.5, -22.4         eV of first channel  (separate by commas if more than one detector
#SIGNALTYPE  : XRF
#YP_TEMP     : 3.422
#LIVETIME    : 9.01418, 8.9932   seconds (separate by commas if more than one detector)
#REALTIME    : 10, 10.0   seconds (separate by commas if more than one detector)
#SPECTRUM    : start of spectrum data
0, 0
0, 0
0, 0
0, 0
0, 0
0, 0
0, 0
0, 1
1, 2
1, 5
2, 1
17, 27
31, 30
1, 4
2, 4
46, 39
295, 284
47, 37
7, 5
0, 2
9, 17
42, 58
13, 20
18, 34
132, 116
127, 97
42, 43
22, 28
12, 8
5, 8
3, 7
5, 2
9, 12
90, 129
151, 171
15, 20
18, 18
27, 23
20, 14
10, 5
7, 11
18, 17
23, 45
23, 26
13, 9
29, 12
15, 8
11, 19
15, 19
14, 20
18, 18
15, 15
19, 24
62, 101
107, 125
27, 35
36, 47
565, 785
3192, 3656
2057, 1925
168, 134
32, 25
34, 50
141, 165
470, 526
271, 239
20, 23
7, 4
7, 11
4, 2
6, 14
6, 4
4, 5
10, 6
10, 4
7, 4
6, 13
11, 2
4, 3
5, 6
4, 8
3, 6
5, 4
3, 2
2, 10
3, 4
7, 3
3, 2
5, 5
1, 2
4, 3
4, 7
4, 6
3, 7
2, 3
1, 3
2, 4
1, 5
4, 2
1, 1
7, 6
4, 5
0, 3
2, 7
3, 0
2, 1
6, 3
1, 4
2, 4
3, 1
1, 1
1, 0
2, 2
5, 3
0, 1
2, 2
6, 6
2, 1
2, 4
2, 1
0, 5
6, 2
3, 3
1, 2
0, 1
3, 1
2, 1
1, 0
2, 0
1, 0
2, 0
0, 0
1, 1
0, 1
0, 2
1, 0
0, 1
0, 0
1, 1
2, 2
1, 0
0, 0
0, 0
0, 1
1, 0
0, 1
1, 1
0, 1
0, 0
1, 0
0, 1
0, 0
0, 0
0, 0
0, 0
0, 0
3, 0
1, 1
0, 0
1, 0
1, 1
1, 1
0, 0
0, 0
0, 2
0, 0
2, 0
0, 1
0, 0
0, 1
0, 0
0, 0
1, 0
0, 0
1, 0
1, 0
1, 0
0, 1
1, 0
1, 0
0, 0
0, 0
0, 0
0, 0
0, 0
0, 0
0, 0
0, 0
0, 1
0, 0
0, 0
0, 0
0, 0
0, 0
0, 0
1, 0
0, 0
0, 0
0, 0
0, 0
0, 0
0, 0
0, 0
0, 0
0, 0
0, 0
0, 0
0, 0
0, 0
0, 0
0, 0
0, 0
0, 0
0, 0
0, 0
0, 0
0, 0
0, 0
0, 0
0, 0
0, 0
0, 0
0, 0
0, 0
0, 0
0, 0
0, 0
0, 0
0, 0
0, 0
0, 0
0, 0
0, 0
0, 0
0, 0
0, 0
0, 0
0, 0
0, 0
0, 0
0, 0
0, 0
0, 0
0, 0
0, 0
0, 0
0, 0
0, 0
0, 0
0, 0
0, 0
0, 0
0, 0
0, 0
0, 0
0, 0
0, 0
0, 0
0, 0
0, 0
0, 0
0, 0
0, 0
0, 0
0, 0
0, 0
0, 0
0, 0
0, 0
0, 0
0, 0
0, 0
0, 0
0, 0
0, 0
0, 0
0, 0
0, 0
0, 0
0, 0
0, 0
0, 0
0, 0
0, 0
0, 0
0, 0
0, 0
0, 0
0, 0
0, 0
0, 0
0, 0
0, 0
0, 0
#ENDOFDATA     end of spectrum data

File: ps__0257_0689790785_000rfs_shot_3038.msa
#FORMAT      : EMSA/MAS spectral data file
#VERSION     : TC202v2.0 PIXL
#TITLE       : N/A
#DATE        :       Date in the format DD-MMM-YYYY, for example 07-JUL-2010
#TIME        :             The time of day at which the spectrum was recorded, in 24-hour format
#OWNER       : PIXL Flight Model       (PIXL will use this to indicate which instrument took the data.)
#NPOINTS     : 4096     Number of data points in the spectrum (This can be zero for configuration only files)
#NCOLUMNS    : 2     Number of data columns in the spectrum (This can be zero for configuration only files)
#XUNITS      : eV
#YUNITS      : COUNTS
#DATATYPE    : YY
#XPERCHAN    : 7.862, 7.881   eV per channel (separate by commas if more than one detector)
#OFFSET      : 18.5, -22.4         eV of first channel  (separate by commas if more than one detector
#SIGNALTYPE  : XRF
#YP_TEMP     : 3.165
#LIVETIME    : 9.00429, 9.0207   seconds (separate by commas if more than one detector)
#REALTIME    : 10, 10.0   seconds (separate by commas if more than one detector)
#SPECTRUM    : start of spectrum data
0, 0
0, 0
0, 0
0, 0
0, 0
0, 0
0, 0
0, 1
1, 3
0, 3
2, 3
32, 24
41, 26
4, 1
1, 0
29, 20
123, 146
26, 30
5, 3
3, 3
9, 14
97, 80
24, 21
20, 15
107, 100
101, 80
29, 32
42, 33
18, 13
2, 1
9, 7
7, 3
12, 8
141, 120
209, 213
18, 18
29, 13
27, 26
15, 8
10, 6
11, 9
23, 15
26, 37
23, 22
8, 13
26, 13
13, 11
13, 15
15, 15
16, 9
19, 13
18, 17
21, 14
91, 101
135, 103
40, 39
42, 41
625, 687
3319, 3362
2217, 1630
204, 128
34, 36
42, 43
145, 181
486, 477
309, 243
26, 15
8, 7
4, 12
2, 6
7, 6
7, 5
6, 6
9, 8
2, 8
1, 4
6, 4
7, 6
9, 6
9, 6
9, 5
4, 6
10, 1
2, 9
5, 6
5, 4
3, 5
3, 5
2, 3
7, 6
8, 3
7, 5
1, 5
2, 2
5, 3
7, 4
4, 5
7, 3
3, 3
5, 3
3, 1
3, 4
2, 9
4, 3
5, 3
6, 5
2, 1
2, 4
1, 3
4, 0
6, 2
4, 3
3, 5
1, 2
3, 1
3, 4
8, 4
7, 1
0, 0
2, 3
1, 0
4, 1
6, 2
3, 1
5, 1
0, 2
2, 0
1, 1
1, 3
1, 3
2, 1
2, 1
0, 1
0, 0
0, 2
1, 0
1, 0
1, 2
0, 0
1, 0
0, 0
0, 1
0, 0
0, 0
0, 0
0, 0
2, 1
0, 0
2, 2
2, 0
0, 1
0, 0
0, 1
0, 0
1, 0
1, 1
0, 0
0, 1
0, 0
1, 0
0, 0
1, 0
0, 0
0, 0
0, 0
0, 1
0, 1
0, 0
0, 0
0, 0
1, 0
0, 0
0, 1
0, 0
0, 0
0, 0
0, 1
0, 0
0, 0
0, 0
0, 0
0, 0
0, 0
0, 0
0, 0
0, 0
1, 0
0, 0
0, 0
0, 0
0, 0
0, 0
0, 0
0, 0
0, 0
0, 0
0, 0
0, 0
0, 0
0, 0
1, 0
0, 0
0, 1
0, 0
0, 0
0, 0
0, 0
1, 0
0, 0
0, 0
0, 0
0, 0
0, 0
0, 0
0, 0
0, 0
0, 0
0, 0
0, 0
0, 0
0, 0
0, 0
0, 0
0, 0
0, 0
0, 0
0, 0
0, 0
0, 0
0, 0
0, 0
0, 0
0, 0
0, 0
0, 0
0, 0
0, 0
0, 0
0, 0
0, 0
0, 0
0, 0
0, 0
0, 0
0, 0
0, 0
0, 0
0, 0
0, 0
0, 0
0, 0
0, 0
0, 0
0, 0
0, 0
0, 0
0, 0
0, 0
0, 0
0, 0
0, 0
0, 0
0, 0
0, 0
0, 0
0, 0
0, 0
0, 0
0, 0
0, 0
0, 0
0, 0
0, 0
0, 0
0, 0
0, 0
0, 0
0, 0
0, 0
0, 0
0, 0
0, 0
0, 0
0, 0
0, 0
0, 0
0, 0
0, 0
0, 0
0, 0
0, 0
0, 0
0, 0
0, 0
#ENDOFDATA     end of spectrum data

File: ps__0257_0689790785_000rfs_shot_3039.msa
#FORMAT      : EMSA/MAS spectral data file
#VERSION     : TC202v2.0 PIXL
#TITLE       : N/A
#DATE        :       Date in the format DD-MMM-YYYY, for example 07-JUL-2010
#TIME        :             The time of day at which the spectrum was recorded, in 24-hour format
#OWNER       : PIXL Flight Model       (PIXL will use this to indicate which instrument took the data.)
#NPOINTS     : 4096     Number of data points in the spectrum (This can be zero for configuration only files)
#NCOLUMNS    : 2     Number of data columns in the spectrum (This can be zero for configuration only files)
#XUNITS      : eV
#YUNITS      : COUNTS
#DATATYPE    : YY
#XPERCHAN    : 7.862, 7.881   eV per channel (separate by commas if more than one detector)
#OFFSET      : 18.5, -22.4         eV of first channel  (separate by commas if more than one detector
#SIGNALTYPE  : XRF
#YP_TEMP     : 3.198
#LIVETIME    : 9.00558, 9.00582   seconds (separate by commas if more than one detector)
#REALTIME    : 10, 10.0   seconds (separate by commas if more than one detector)
#SPECTRUM    : start of spectrum data
0, 0
0, 0
0, 0
0, 0
0, 0
0, 0
0, 0
0, 1
2, 2
2, 3
3, 2
27, 22
36, 26
1, 0
6, 2
74, 65
459, 446
70, 65
4, 4
6, 3
12, 8
58, 42
15, 18
21, 26
151, 136
122, 108
40, 50
39, 23
14, 12
5, 7
4, 9
1, 8
6, 7
66, 70
123, 127
9, 13
19, 19
20, 22
13, 9
4, 8
5, 4
15, 18
32, 13
11, 25
17, 10
20, 13
6, 13
15, 12
16, 16
16, 20
12, 26
15, 14
16, 32
69, 70
90, 102
41, 20
46, 39
556, 714
3294, 3371
2298, 1755
164, 134
35, 21
30, 38
137, 161
474, 507
287, 235
26, 20
6, 10
4, 8
12, 6
5, 3
6, 6
6, 8
6, 9
9, 7
8, 6
8, 6
5, 4
6, 2
9, 5
6, 4
7, 2
5, 3
3, 5
6, 4
6, 1
5, 5
9, 3
1, 7
2, 4
0, 4
3, 7
2, 0
4, 6
6, 5
5, 1
4, 4
1, 1
6, 0
5, 2
3, 6
1, 3
3, 5
1, 5
4, 2
3, 4
0, 3
1, 1
4, 2
5, 2
6, 2
2, 2
3, 1
3, 1
7, 2
4, 2
6, 7
6, 4
1, 2
3, 1
2, 1
3, 1
1, 3
1, 2
2, 1
1, 1
3, 0
1, 1
1, 0
1, 1
1, 2
3, 1
0, 1
0, 1
1, 1
1, 0
1, 0
0, 2
1, 0
0, 1
1, 0
1, 1
0, 2
0, 0
0, 2
0, 0
1, 1
0, 1
1, 1
0, 1
0, 0
0, 1
0, 0
1, 0
1, 1
0, 0
0, 0
0, 0
0, 1
0, 0
1, 1
2, 0
1, 0
0, 0
0, 0
1, 1
0, 2
0, 1
0, 0
0, 1
0, 0
1, 1
0, 0
0, 0
0, 0
0, 1
0, 0
0, 0
1, 0
0, 0
0, 0
0, 0
1, 1
0, 0
0, 0
0, 0
0, 0
0, 0
0, 0
0, 0
0, 0
0, 0
0, 0
0, 0
0, 0
0, 0
0, 0
0, 0
0, 0
0, 0
0, 0
0, 0
0, 0
0, 0
0, 0
0, 0
0, 0
0, 0
0, 0
0, 0
0, 0
0, 0
0, 0
0, 0
0, 0
0, 0
0, 0
0, 0
0, 0
0, 0
0, 0
0, 0
0, 0
0, 0
1, 0
0, 0
0, 0
0, 0
0, 0
0, 0
0, 0
0, 0
0, 0
0, 0
0, 0
0, 0
0, 0
0, 0
0, 0
0, 0
0, 0
0, 0
0, 0
0, 0
0, 0
0, 0
0, 0
0, 0
0, 0
0, 0
0, 0
0, 0
0, 0
0, 0
0, 0
0, 0
0, 0
0, 0
0, 0
0, 0
0, 0
0, 0
0, 0
0, 0
0, 0
0, 0
0, 0
0, 0
0, 0
0, 0
0, 0
0, 0
0, 0
0, 0
0, 0
0, 0
0, 0
0, 0
0, 0
0, 0
0, 0
0, 0
0, 0
0, 0
0, 0
0, 0
0, 0
0, 0
0, 0
0, 0
0, 0
0, 0
0, 0
0, 0
#ENDOFDATA     end of spectrum data

File: ps__0257_0689790785_000rfs_shot_3040.msa
#FORMAT      : EMSA/MAS spectral data file
#VERSION     : TC202v2.0 PIXL
#TITLE       : N/A
#DATE        :       Date in the format DD-MMM-YYYY, for example 07-JUL-2010
#TIME        :             The time of day at which the spectrum was recorded, in 24-hour format
#OWNER       : PIXL Flight Model       (PIXL will use this to indicate which instrument took the data.)
#NPOINTS     : 4096     Number of data points in the spectrum (This can be zero for configuration only files)
#NCOLUMNS    : 2     Number of data columns in the spectrum (This can be zero for configuration only files)
#XUNITS      : eV
#YUNITS      : COUNTS
#DATATYPE    : YY
#XPERCHAN    : 7.862, 7.881   eV per channel (separate by commas if more than one detector)
#OFFSET      : 18.5, -22.4         eV of first channel  (separate by commas if more than one detector
#SIGNALTYPE  : XRF
#YP_TEMP     : 3.294
#LIVETIME    : 9.03971, 9.0442   seconds (separate by commas if more than one detector)
#REALTIME    : 10, 10.0   seconds (separate by commas if more than one detector)
#SPECTRUM    : start of spectrum data
0, 0
0, 0
0, 0
0, 0
0, 0
0, 0
0, 0
0, 0
1, 0
2, 1
2, 2
20, 24
48, 34
0, 2
2, 4
97, 91
659, 600
117, 89
7, 2
2, 2
18, 5
46, 27
11, 8
16, 9
62, 71
61, 57
34, 21
14, 16
4, 3
4, 1
1, 4
4, 0
2, 1
22, 24
24, 68
6, 13
4, 5
5, 8
8, 3
6, 7
12, 6
15, 15
19, 13
14, 9
5, 7
9, 4
10, 6
11, 14
12, 13
12, 45
7, 113
14, 34
13, 16
64, 55
87, 73
25, 22
30, 38
546, 720
3042, 3294
2017, 1753
182, 118
24, 13
29, 27
129, 122
484, 494
287, 215
18, 14
8, 6
10, 9
6, 5
2, 9
5, 7
2, 3
6, 5
1, 2
3, 6
3, 9
1, 2
6, 10
5, 4
7, 9
7, 8
5, 5
8, 4
4, 3
3, 8
2, 9
3, 3
3, 2
2, 1
1, 4
4, 4
3, 4
6, 4
6, 4
2, 1
3, 3
1, 5
4, 2
1, 13
1, 4
2, 3
4, 3
0, 2
1, 1
3, 0
2, 3
2, 1
2, 0
1, 3
4, 1
4, 7
4, 4
1, 3
0, 0
2, 2
7, 5
8, 3
1, 1
1, 4
1, 1
2, 1
2, 4
5, 2
0, 3
2, 3
0, 2
1, 1
1, 1
0, 0
0, 1
0, 1
1, 0
0, 1
1, 1
1, 1
2, 1
0, 2
1, 1
2, 1
2, 0
0, 2
0, 0
1, 1
1, 0
0, 0
0, 0
0, 1
0, 0
0, 0
0, 0
0, 0
0, 1
0, 0
1, 0
0, 0
0, 3
0, 1
1, 1
0, 0
0, 0
0, 0
0, 2
1, 1
1, 1
0, 0
0, 0
1, 0
0, 0
0, 0
0, 0
0, 0
0, 0
0, 0
1, 1
0, 0
0, 0
0, 0
0, 1
0, 0
0, 1
0, 0
0, 0
0, 0
0, 0
0, 0
0, 0
0, 0
0, 0
0, 0
0, 0
0, 0
0, 0
1, 0
0, 0
0, 0
0, 0
0, 0
0, 0
0, 0
0, 0
0, 0
0, 0
0, 0
0, 0
0, 0
0, 0
0, 0
0, 0
0, 0
0, 0
0, 0
0, 0
0, 0
0, 0
0, 0
0, 0
0, 0
0, 0
0, 0
0, 0
0, 0
0, 0
0, 0
0, 0
0, 0
1, 0
0, 0
0, 0
0, 0
0, 0
0, 0
0, 0
0, 0
0, 0
0, 0
0, 0
0, 0
0, 0
0, 0
0, 0
0, 0
0, 0
0, 0
0, 0
0, 0
0, 0
0, 0
0, 0
0, 0
0, 0
0, 0
0, 0
0, 0
0, 0
0, 0
0, 0
0, 0
0, 0
0, 0
0, 0
0, 0
0, 0
0, 0
0, 0
0, 0
0, 0
0, 0
0, 0
0, 0
0, 0
0, 0
0, 0
0, 0
0, 0
0, 0
0, 0
0, 0
0, 0
0, 0
0, 0
0, 0
0, 0
0, 0
0, 0
0, 0
0, 0
0, 0
0, 0
0, 0
0, 0
0, 0
0, 0
0, 0
#ENDOFDATA     end of spectrum data

File: ps__0257_0689790785_000rfs_shot_3041.msa
#FORMAT      : EMSA/MAS spectral data file
#VERSION     : TC202v2.0 PIXL
#TITLE       : N/A
#DATE        :       Date in the format DD-MMM-YYYY, for example 07-JUL-2010
#TIME        :             The time of day at which the spectrum was recorded, in 24-hour format
#OWNER       : PIXL Flight Model       (PIXL will use this to indicate which instrument took the data.)
#NPOINTS     : 4096     Number of data points in the spectrum (This can be zero for configuration only files)
#NCOLUMNS    : 2     Number of data columns in the spectrum (This can be zero for configuration only files)
#XUNITS      : eV
#YUNITS      : COUNTS
#DATATYPE    : YY
#XPERCHAN    : 7.862, 7.881   eV per channel (separate by commas if more than one detector)
#OFFSET      : 18.5, -22.4         eV of first channel  (separate by commas if more than one detector
#SIGNALTYPE  : XRF
#YP_TEMP     : 3.005
#LIVETIME    : 9.00624, 8.99971   seconds (separate by commas if more than one detector)
#REALTIME    : 10, 10.0   seconds (separate by commas if more than one detector)
#SPECTRUM    : start of spectrum data
0, 0
0, 0
0, 0
0, 0
0, 0
0, 0
0, 0
0, 1
0, 0
0, 1
2, 1
34, 37
43, 23
1, 0
3, 3
69, 69
454, 487
90, 87
6, 4
5, 4
34, 0
39, 10
4, 0
2, 4
14, 19
25, 24
19, 11
12, 4
3, 6
5, 2
2, 2
2, 1
3, 0
15, 19
19, 65
1, 20
8, 2
1, 3
2, 2
1, 5
6, 6
6, 9
27, 18
18, 21
4, 4
6, 4
7, 4
9, 6
4, 12
7, 98
14, 152
15, 52
13, 16
56, 65
97, 97
27, 30
27, 45
648, 804
3489, 3874
2207, 1944
193, 131
29, 16
27, 30
145, 173
501, 542
295, 247
27, 15
3, 3
2, 6
1, 5
3, 4
2, 3
3, 6
4, 6
3, 4
2, 4
3, 2
2, 1
2, 4
6, 4
4, 18
6, 9
3, 3
1, 7
0, 6
1, 3
1, 6
5, 4
1, 3
2, 4
4, 0
2, 3
1, 4
2, 0
3, 1
1, 0
1, 3
0, 3
4, 4
3, 7
2, 13
2, 1
3, 1
7, 1
3, 3
2, 2
1, 1
0, 0
2, 1
4, 3
1, 1
2, 4
4, 5
4, 2
2, 1
5, 5
2, 7
10, 4
4, 0
1, 1
0, 2
4, 2
3, 5
5, 3
1, 1
1, 2
0, 0
0, 1
0, 2
0, 1
0, 0
0, 0
3, 2
0, 0
1, 1
0, 1
0, 1
0, 0
0, 2
1, 2
0, 0
0, 2
1, 0
0, 0
0, 1
0, 0
0, 0
0, 0
1, 1
0, 1
0, 0
1, 0
0, 1
1, 0
0, 1
0, 0
0, 0
0, 0
1, 0
0, 0
0, 0
0, 0
0, 2
0, 0
0, 0
0, 1
0, 0
0, 0
0, 0
0, 0
0, 0
0, 0
0, 0
0, 0
0, 0
0, 0
0, 0
0, 0
0, 0
0, 0
0, 0
0, 1
1, 0
1, 0
0, 0
0, 0
1, 0
0, 0
0, 0
0, 0
0, 0
1, 0
0, 0
0, 0
0, 1
0, 0
0, 0
0, 0
0, 0
0, 0
0, 0
0, 0
0, 0
0, 0
0, 0
0, 0
0, 0
0, 0
0, 0
0, 0
0, 0
0, 0
0, 0
0, 0
0, 0
0, 0
0, 0
0, 0
0, 0
0, 0
0, 0
0, 0
0, 0
0, 0
0, 0
0, 0
0, 0
0, 0
0, 0
0, 0
0, 0
0, 0
0, 0
0, 0
0, 0
0, 0
0, 0
0, 0
0, 0
0, 0
0, 0
0, 0
0, 0
0, 0
0, 0
0, 0
0, 0
0, 0
0, 0
0, 0
0, 0
0, 0
0, 0
0, 0
0, 0
0, 0
0, 0
0, 0
0, 0
0, 0
0, 0
0, 0
0, 0
0, 0
0, 0
0, 0
0, 0
0, 0
0, 0
0, 0
0, 0
0, 0
0, 0
0, 0
0, 0
0, 0
0, 0
0, 0
0, 0
0, 0
0, 0
0, 0
0, 0
0, 0
0, 0
0, 0
0, 0
0, 0
0, 0
0, 0
0, 0
0, 0
0, 0
0, 0
#ENDOFDATA     end of spectrum data

File: ps__0257_0689790785_000rfs_shot_3042.msa
#FORMAT      : EMSA/MAS spectral data file
#VERSION     : TC202v2.0 PIXL
#TITLE       : N/A
#DATE        :       Date in the format DD-MMM-YYYY, for example 07-JUL-2010
#TIME        :             The time of day at which the spectrum was recorded, in 24-hour format
#OWNER       : PIXL Flight Model       (PIXL will use this to indicate which instrument took the data.)
#NPOINTS     : 4096     Number of data points in the spectrum (This can be zero for configuration only files)
#NCOLUMNS    : 2     Number of data columns in the spectrum (This can be zero for configuration only files)
#XUNITS      : eV
#YUNITS      : COUNTS
#DATATYPE    : YY
#XPERCHAN    : 7.862, 7.881   eV per channel (separate by commas if more than one detector)
#OFFSET      : 18.5, -22.4         eV of first channel  (separate by commas if more than one detector
#SIGNALTYPE  : XRF
#YP_TEMP     : 2.973
#LIVETIME    : 8.99455, 8.99279   seconds (separate by commas if more than one detector)
#REALTIME    : 10, 10.0   seconds (separate by commas if more than one detector)
#SPECTRUM    : start of spectrum data
0, 0
0, 0
0, 0
0, 0
0, 0
0, 0
0, 0
1, 0
1, 0
0, 2
2, 1
27, 31
47, 45
1, 3
5, 3
70, 82
494, 461
77, 73
7, 3
2, 0
58, 0
43, 3
1, 4
5, 5
13, 18
22, 25
15, 18
11, 11
5, 3
2, 3
3, 1
1, 1
5, 0
12, 19
26, 60
2, 8
2, 2
8, 6
3, 3
2, 0
9, 2
7, 6
17, 17
10, 12
3, 4
5, 5
6, 3
7, 3
7, 6
16, 71
14, 150
11, 42
8, 23
51, 72
93, 101
31, 15
23, 34
685, 799
3730, 3781
2330, 1897
179, 145
28, 15
33, 26
138, 180
557, 555
332, 264
30, 20
7, 4
7, 8
11, 9
1, 1
2, 1
4, 6
3, 0
7, 7
2, 5
2, 1
1, 3
3, 3
3, 9
2, 13
6, 8
6, 2
8, 4
3, 6
2, 6
4, 3
2, 6
4, 5
3, 3
0, 0
2, 0
4, 3
2, 4
0, 2
2, 3
1, 9
0, 1
2, 1
3, 6
4, 12
5, 5
3, 1
3, 2
4, 2
2, 1
3, 2
1, 1
0, 4
3, 0
1, 2
5, 3
4, 4
2, 1
3, 1
2, 8
11, 9
7, 5
1, 3
0, 1
0, 1
0, 0
1, 3
1, 2
1, 1
0, 1
0, 0
1, 0
1, 2
2, 0
1, 2
0, 0
0, 2
2, 1
1, 0
0, 0
3, 1
0, 1
3, 0
0, 1
0, 0
0, 1
0, 0
0, 0
1, 0
1, 0
0, 0
0, 3
1, 0
1, 0
0, 1
0, 0
0, 2
1, 0
0, 0
0, 0
0, 0
0, 0
0, 0
0, 0
0, 0
0, 0
0, 0
0, 1
0, 0
0, 0
0, 0
0, 0
0, 1
0, 0
0, 0
0, 1
2, 0
0, 0
0, 0
0, 0
0, 0
1, 0
0, 0
0, 0
0, 0
0, 0
0, 0
0, 0
0, 0
0, 0
0, 0
0, 0
0, 0
0, 0
0, 0
0, 0
0, 0
0, 0
0, 0
0, 1
0, 0
0, 0
0, 0
0, 0
0, 0
0, 0
0, 0
0, 0
0, 0
0, 0
0, 0
0, 0
0, 0
0, 0
0, 0
0, 0
0, 0
0, 0
0, 0
0, 0
0, 0
0, 0
0, 0
0, 0
0, 0
0, 0
0, 0
0, 0
0, 0
0, 0
0, 0
0, 0
0, 0
0, 0
0, 0
0, 0
0, 0
0, 0
0, 0
0, 0
0, 0
0, 0
0, 0
0, 0
0, 0
0, 0
0, 0
0, 0
0, 0
0, 0
0, 0
0, 0
0, 0
0, 0
0, 0
0, 0
0, 0
0, 0
0, 0
0, 0
0, 0
0, 0
0, 0
0, 0
0, 0
0, 0
0, 0
0, 0
0, 0
0, 0
0, 0
0, 0
0, 0
0, 0
0, 0
0, 0
0, 0
0, 0
0, 0
0, 0
0, 0
0, 0
0, 0
0, 0
0, 0
0, 0
0, 0
0, 0
0, 0
0, 0
0, 0
0, 0
0, 0
0, 0
0, 0
0, 0
0, 0
0, 0
#ENDOFDATA     end of spectrum data

File: ps__0257_0689790785_000rfs_shot_3043.msa
#FORMAT      : EMSA/MAS spectral data file
#VERSION     : TC202v2.0 PIXL
#TITLE       : N/A
#DATE        :       Date in the format DD-MMM-YYYY, for example 07-JUL-2010
#TIME        :             The time of day at which the spectrum was recorded, in 24-hour format
#OWNER       : PIXL Flight Model       (PIXL will use this to indicate which instrument took the data.)
#NPOINTS     : 4096     Number of data points in the spectrum (This can be zero for configuration only files)
#NCOLUMNS    : 2     Number of data columns in the spectrum (This can be zero for configuration only files)
#XUNITS      : eV
#YUNITS      : COUNTS
#DATATYPE    : YY
#XPERCHAN    : 7.862, 7.881   eV per channel (separate by commas if more than one detector)
#OFFSET      : 18.5, -22.4         eV of first channel  (separate by commas if more than one detector
#SIGNALTYPE  : XRF
#YP_TEMP     : 3.454
#LIVETIME    : 9.001, 9.00839   seconds (separate by commas if more than one detector)
#REALTIME    : 10, 10.0   seconds (separate by commas if more than one detector)
#SPECTRUM    : start of spectrum data
0, 0
0, 0
0, 0
0, 0
0, 0
0, 0
0, 0
0, 0
1, 2
0, 1
2, 1
35, 30
33, 46
4, 1
4, 3
77, 63
517, 453
90, 55
8, 3
1, 1
34, 1
46, 8
4, 4
0, 4
19, 9
27, 18
16, 15
9, 10
4, 2
3, 1
4, 4
1, 3
2, 5
12, 22
25, 59
4, 16
4, 3
11, 7
2, 3
4, 4
5, 8
8, 13
20, 9
12, 16
4, 4
10, 5
10, 9
9, 11
11, 13
12, 84
6, 136
6, 52
10, 17
63, 63
109, 78
30, 20
35, 34
649, 776
3463, 3703
2330, 1841
184, 119
30, 17
27, 23
155, 159
522, 517
318, 265
26, 22
10, 7
3, 9
9, 7
1, 2
4, 3
1, 3
2, 3
4, 4
3, 2
5, 2
4, 3
5, 0
5, 5
6, 14
3, 17
8, 5
6, 5
2, 4
3, 4
2, 6
1, 4
3, 8
1, 3
1, 2
3, 1
2, 4
3, 2
0, 2
0, 4
3, 2
4, 5
2, 3
4, 8
0, 9
4, 3
4, 1
5, 0
3, 2
0, 2
1, 1
2, 1
0, 0
1, 1
2, 1
2, 3
3, 1
3, 1
0, 1
4, 3
6, 5
6, 6
6, 3
2, 1
0, 0
2, 3
3, 1
1, 0
0, 0
2, 0
0, 1
0, 1
0, 2
0, 0
2, 0
1, 2
0, 2
0, 0
1, 2
0, 0
1, 0
0, 0
0, 0
2, 0
0, 0
0, 1
0, 1
1, 0
0, 0
0, 1
0, 1
0, 0
0, 1
0, 0
0, 0
1, 0
0, 1
0, 0
0, 0
1, 0
0, 0
2, 1
0, 0
0, 0
1, 1
0, 0
0, 0
1, 0
0, 0
0, 0
0, 0
1, 0
1, 0
2, 1
1, 0
0, 0
0, 0
0, 0
0, 0
1, 0
0, 1
0, 0
0, 0
0, 0
2, 0
0, 0
0, 0
0, 0
0, 0
0, 0
0, 0
0, 0
1, 0
0, 0
0, 0
0, 0
0, 0
0, 0
0, 0
0, 0
0, 0
0, 0
0, 1
0, 0
0, 0
0, 0
0, 0
0, 0
0, 0
0, 0
0, 0
0, 0
0, 0
0, 0
0, 0
0, 0
0, 0
0, 1
0, 0
0, 0
0, 0
0, 0
0, 0
0, 0
0, 0
0, 0
0, 0
0, 0
0, 0
0, 0
0, 0
0, 0
0, 0
0, 0
0, 0
0, 0
0, 0
0, 0
0, 0
0, 0
0, 0
0, 0
0, 0
0, 0
0, 0
0, 0
0, 0
0, 0
0, 0
0, 0
0, 0
0, 0
0, 0
0, 0
0, 0
0, 0
0, 0
0, 0
0, 0
0, 0
0, 0
0, 0
0, 0
0, 0
0, 0
0, 0
0, 0
0, 0
0, 0
0, 0
0, 0
0, 0
0, 0
0, 0
0, 0
0, 0
0, 0
0, 0
0, 0
0, 0
0, 0
0, 0
0, 0
0, 0
0, 0
0, 0
0, 0
0, 0
0, 0
0, 0
0, 0
0, 0
0, 0
0, 0
0, 0
0, 0
0, 0
0, 0
#ENDOFDATA     end of spectrum data

File: ps__0257_0689790785_000rfs_shot_3045.msa
#FORMAT      : EMSA/MAS spectral data file
#VERSION     : TC202v2.0 PIXL
#TITLE       : N/A
#DATE        :       Date in the format DD-MMM-YYYY, for example 07-JUL-2010
#TIME        :             The time of day at which the spectrum was recorded, in 24-hour format
#OWNER       : PIXL Flight Model       (PIXL will use this to indicate which instrument took the data.)
#NPOINTS     : 4096     Number of data points in the spectrum (This can be zero for configuration only files)
#NCOLUMNS    : 2     Number of data columns in the spectrum (This can be zero for configuration only files)
#XUNITS      : eV
#YUNITS      : COUNTS
#DATATYPE    : YY
#XPERCHAN    : 7.862, 7.881   eV per channel (separate by commas if more than one detector)
#OFFSET      : 18.5, -22.4         eV of first channel  (separate by commas if more than one detector
#SIGNALTYPE  : XRF
#YP_TEMP     : 3.294
#LIVETIME    : 9.00173, 8.99273   seconds (separate by commas if more than one detector)
#REALTIME    : 10, 10.0   seconds (separate by commas if more than one detector)
#SPECTRUM    : start of spectrum data
0, 0
0, 0
0, 0
0, 0
0, 0
0, 0
0, 0
0, 0
1, 1
1, 0
0, 3
29, 31
37, 38
4, 3
4, 1
70, 65
414, 490
82, 79
1, 6
8, 0
63, 5
51, 6
5, 5
2, 8
23, 25
40, 32
14, 13
12, 8
5, 3
2, 3
0, 5
0, 5
1, 6
16, 23
19, 75
3, 27
3, 6
8, 13
3, 6
1, 2
3, 10
10, 10
18, 20
14, 13
7, 4
5, 6
14, 9
8, 4
11, 11
10, 72
7, 148
7, 52
8, 11
55, 71
101, 86
24, 35
28, 33
604, 739
3490, 3729
2170, 2005
210, 135
28, 15
37, 22
135, 154
488, 518
311, 294
26, 20
2, 8
12, 13
3, 10
6, 3
2, 3
3, 3
2, 4
2, 4
5, 6
1, 2
2, 4
10, 0
4, 5
5, 17
4, 18
4, 6
6, 2
0, 4
3, 3
0, 3
2, 2
1, 4
0, 3
4, 3
2, 3
5, 2
2, 5
3, 2
0, 4
2, 5
4, 2
3, 3
1, 12
1, 13
4, 4
1, 2
4, 3
0, 2
2, 3
4, 0
3, 2
1, 0
3, 1
1, 1
0, 1
5, 1
4, 2
1, 2
5, 2
6, 8
2, 4
3, 2
2, 1
0, 1
2, 2
1, 3
3, 2
1, 0
0, 1
0, 2
0, 1
0, 0
2, 1
0, 1
1, 1
2, 1
0, 3
1, 0
1, 2
1, 1
0, 1
4, 0
0, 0
2, 0
0, 0
1, 0
1, 0
1, 0
1, 1
2, 2
0, 0
0, 1
0, 0
0, 0
0, 1
1, 0
0, 1
0, 1
1, 1
0, 0
0, 0
0, 0
1, 0
0, 0
1, 1
1, 0
1, 0
1, 0
0, 0
1, 0
0, 2
0, 0
0, 0
0, 0
0, 0
1, 0
2, 0
0, 0
0, 1
0, 0
0, 0
0, 0
0, 0
0, 0
0, 0
1, 0
0, 0
0, 0
0, 0
0, 1
0, 0
0, 0
0, 0
0, 0
0, 0
0, 0
0, 0
0, 0
0, 0
0, 1
0, 0
0, 1
0, 0
1, 0
0, 0
0, 0
0, 0
0, 0
1, 0
0, 0
0, 0
0, 0
0, 0
0, 0
0, 0
0, 0
0, 0
0, 0
0, 0
0, 0
0, 0
0, 0
0, 0
0, 0
0, 0
0, 0
0, 0
0, 0
0, 0
0, 0
0, 0
0, 0
0, 0
0, 0
0, 0
0, 0
0, 0
0, 0
0, 0
0, 0
0, 0
0, 0
0, 0
0, 0
0, 0
0, 0
0, 0
0, 0
0, 0
0, 0
0, 0
0, 0
0, 0
0, 0
0, 0
0, 0
0, 0
0, 0
0, 0
0, 0
0, 0
0, 0
0, 0
0, 0
0, 0
0, 0
0, 0
0, 0
0, 0
0, 0
0, 0
0, 0
0, 0
0, 0
0, 0
0, 0
0, 0
0, 0
0, 0
0, 0
0, 0
0, 0
0, 0
0, 0
0, 0
0, 0
0, 0
0, 0
0, 0
0, 0
0, 0
0, 0
0, 0
0, 0
0, 0
0, 0
0, 0
#ENDOFDATA     end of spectrum data