Folder: data-repository/host_upload/12-01-2023/Dourbes (shot-by-shot)/upload_4 (part 8)

File: ps__0257_0689790785_000rfs_shot_3142.msa
#FORMAT      : EMSA/MAS spectral data file
#VERSION     : TC202v2.0 PIXL
#TITLE       : N/A
#DATE        :       Date in the format DD-MMM-YYYY, for example 07-JUL-2010
#TIME        :             The time of day at which the spectrum was recorded, in 24-hour format
#OWNER       : PIXL Flight Model       (PIXL will use this to indicate which instrument took the data.)
#NPOINTS     : 4096     Number of data points in the spectrum (This can be zero for configuration only files)
#NCOLUMNS    : 2     Number of data columns in the spectrum (This can be zero for configuration only files)
#XUNITS      : eV
#YUNITS      : COUNTS
#DATATYPE    : YY
#XPERCHAN    : 7.862, 7.881   eV per channel (separate by commas if more than one detector)
#OFFSET      : 18.5, -22.4         eV of first channel  (separate by commas if more than one detector
#SIGNALTYPE  : XRF
#YP_TEMP     : 3.23
#LIVETIME    : 9.14379, 9.13566   seconds (separate by commas if more than one detector)
#REALTIME    : 10, 10.0   seconds (separate by commas if more than one detector)
#SPECTRUM    : start of spectrum data
0, 0
0, 0
0, 0
0, 0
0, 0
0, 0
0, 0
0, 0
0, 3
1, 1
1, 1
20, 30
34, 29
3, 5
3, 9
114, 137
831, 844
145, 147
13, 17
2, 0
3, 1
2, 5
6, 3
7, 7
27, 25
41, 30
31, 23
18, 13
7, 9
7, 9
6, 3
4, 9
32, 31
535, 652
952, 972
91, 67
113, 112
136, 104
13, 11
2, 3
3, 5
29, 35
12, 14
3, 6
6, 6
8, 11
9, 5
4, 9
7, 13
49, 55
22, 32
6, 13
13, 9
28, 38
45, 53
18, 21
13, 31
217, 291
1220, 1323
800, 643
84, 44
11, 13
14, 14
49, 64
179, 229
104, 115
15, 14
14, 4
52, 7
16, 7
5, 5
6, 3
2, 3
6, 8
6, 5
6, 4
8, 12
9, 12
5, 3
9, 5
5, 4
7, 0
2, 9
4, 2
10, 10
11, 13
4, 3
4, 4
4, 6
2, 4
4, 2
6, 4
10, 5
4, 3
8, 3
3, 6
1, 4
6, 1
8, 3
4, 2
6, 2
2, 2
3, 4
2, 5
1, 2
2, 10
5, 6
4, 2
2, 2
1, 2
2, 0
4, 3
1, 1
2, 0
2, 1
2, 3
4, 3
0, 4
4, 1
1, 4
3, 2
1, 0
0, 3
1, 1
2, 1
4, 0
3, 0
1, 3
1, 2
0, 2
0, 0
1, 2
0, 0
3, 1
1, 1
2, 1
2, 0
0, 0
1, 0
0, 0
0, 1
0, 1
0, 0
0, 0
0, 0
0, 0
0, 0
0, 1
1, 2
0, 0
0, 0
0, 0
0, 0
0, 0
1, 0
0, 1
0, 0
0, 0
0, 0
0, 1
0, 2
0, 0
0, 0
1, 0
0, 1
0, 0
1, 0
0, 0
0, 0
0, 0
1, 0
0, 1
0, 0
0, 1
0, 0
0, 0
0, 1
0, 0
0, 2
0, 0
0, 0
0, 0
0, 0
0, 1
1, 0
0, 0
0, 1
0, 0
0, 1
0, 0
0, 0
0, 0
0, 0
0, 0
0, 0
0, 0
0, 0
0, 0
0, 0
0, 0
0, 0
0, 0
0, 0
0, 0
0, 0
0, 0
0, 0
0, 0
0, 0
0, 0
0, 0
0, 0
0, 1
0, 0
0, 0
0, 0
0, 0
0, 0
1, 0
0, 0
0, 0
0, 0
0, 0
0, 0
0, 0
0, 0
0, 0
0, 0
0, 0
0, 0
0, 0
0, 0
0, 0
0, 0
0, 0
0, 0
0, 0
0, 0
0, 0
0, 0
0, 0
0, 0
0, 0
0, 0
0, 0
0, 0
0, 0
0, 0
0, 0
0, 0
0, 0
0, 0
0, 0
0, 0
0, 0
0, 0
0, 0
0, 0
0, 0
0, 0
0, 0
0, 0
0, 0
0, 0
0, 0
0, 0
0, 0
0, 0
0, 0
0, 0
0, 0
0, 0
0, 0
0, 0
0, 0
0, 0
0, 0
0, 0
0, 0
0, 0
0, 0
0, 0
0, 0
0, 0
0, 0
0, 0
0, 0
0, 0
0, 0
0, 0
0, 0
0, 0
0, 0
0, 0
#ENDOFDATA     end of spectrum data

File: ps__0257_0689790785_000rfs_shot_3144.msa
#FORMAT      : EMSA/MAS spectral data file
#VERSION     : TC202v2.0 PIXL
#TITLE       : N/A
#DATE        :       Date in the format DD-MMM-YYYY, for example 07-JUL-2010
#TIME        :             The time of day at which the spectrum was recorded, in 24-hour format
#OWNER       : PIXL Flight Model       (PIXL will use this to indicate which instrument took the data.)
#NPOINTS     : 4096     Number of data points in the spectrum (This can be zero for configuration only files)
#NCOLUMNS    : 2     Number of data columns in the spectrum (This can be zero for configuration only files)
#XUNITS      : eV
#YUNITS      : COUNTS
#DATATYPE    : YY
#XPERCHAN    : 7.862, 7.881   eV per channel (separate by commas if more than one detector)
#OFFSET      : 18.5, -22.4         eV of first channel  (separate by commas if more than one detector
#SIGNALTYPE  : XRF
#YP_TEMP     : 3.39
#LIVETIME    : 9.15848, 9.14735   seconds (separate by commas if more than one detector)
#REALTIME    : 10, 10.0   seconds (separate by commas if more than one detector)
#SPECTRUM    : start of spectrum data
0, 0
0, 0
0, 0
0, 0
0, 0
0, 0
0, 0
0, 0
1, 2
3, 2
1, 2
25, 19
23, 31
4, 4
7, 14
138, 132
825, 905
141, 159
21, 18
1, 2
3, 5
4, 7
1, 3
4, 3
23, 20
24, 23
18, 25
10, 8
4, 5
2, 4
1, 4
8, 4
25, 29
599, 750
947, 1056
112, 69
112, 115
130, 135
17, 19
1, 2
5, 9
22, 27
18, 14
8, 7
4, 3
9, 10
5, 3
3, 3
7, 14
50, 57
36, 23
3, 6
4, 6
29, 30
48, 43
6, 19
10, 10
187, 261
1069, 1274
591, 622
69, 33
13, 7
8, 17
39, 78
145, 181
66, 114
11, 16
17, 6
28, 10
16, 7
6, 5
2, 4
3, 2
3, 5
3, 3
3, 5
5, 8
5, 4
6, 1
10, 1
2, 7
5, 7
2, 9
1, 10
3, 2
5, 8
9, 3
8, 13
3, 15
1, 9
4, 1
6, 4
3, 4
2, 7
5, 3
0, 0
1, 3
2, 2
3, 2
3, 4
0, 1
4, 1
1, 4
3, 2
0, 2
3, 7
1, 7
2, 2
2, 2
1, 1
4, 2
2, 0
3, 2
4, 1
1, 2
5, 0
6, 7
2, 3
0, 3
2, 2
0, 0
2, 2
1, 4
1, 2
3, 0
0, 1
1, 2
3, 0
2, 0
1, 1
1, 2
0, 1
0, 1
0, 2
0, 0
0, 0
1, 3
1, 0
0, 1
1, 1
1, 0
1, 0
0, 0
0, 2
1, 1
1, 0
2, 2
0, 0
0, 0
1, 2
0, 1
0, 1
0, 1
0, 1
1, 0
1, 1
0, 0
1, 0
0, 0
0, 1
0, 0
1, 1
0, 0
0, 0
0, 1
0, 0
0, 1
0, 0
0, 0
0, 0
0, 0
0, 0
0, 0
0, 0
0, 0
0, 0
0, 0
0, 0
0, 0
0, 0
1, 0
0, 0
0, 0
0, 0
0, 0
0, 0
0, 1
0, 0
0, 0
1, 0
0, 0
0, 0
0, 0
0, 0
0, 0
0, 0
0, 0
0, 0
0, 0
0, 0
0, 0
0, 0
0, 0
0, 0
0, 0
0, 0
0, 0
0, 0
0, 0
0, 0
0, 0
0, 1
0, 0
0, 0
0, 0
0, 0
0, 0
0, 0
0, 0
0, 0
0, 0
0, 0
0, 0
0, 0
0, 0
0, 0
0, 0
0, 0
0, 0
1, 0
0, 0
0, 0
0, 0
0, 0
0, 0
0, 0
0, 0
0, 0
0, 0
0, 0
0, 0
0, 0
0, 0
0, 0
0, 0
0, 0
0, 0
0, 0
0, 0
0, 0
0, 0
0, 0
0, 0
0, 0
0, 0
0, 0
0, 0
0, 0
0, 0
0, 0
0, 0
0, 0
0, 0
0, 0
0, 0
0, 0
0, 0
0, 0
0, 0
0, 0
0, 0
0, 0
0, 0
0, 0
0, 0
0, 0
0, 0
0, 0
0, 0
0, 0
0, 0
0, 0
0, 0
0, 0
0, 0
0, 0
0, 0
0, 0
0, 0
0, 0
0, 0
0, 0
0, 0
0, 0
#ENDOFDATA     end of spectrum data

File: ps__0257_0689790785_000rfs_shot_3146.msa
#FORMAT      : EMSA/MAS spectral data file
#VERSION     : TC202v2.0 PIXL
#TITLE       : N/A
#DATE        :       Date in the format DD-MMM-YYYY, for example 07-JUL-2010
#TIME        :             The time of day at which the spectrum was recorded, in 24-hour format
#OWNER       : PIXL Flight Model       (PIXL will use this to indicate which instrument took the data.)
#NPOINTS     : 4096     Number of data points in the spectrum (This can be zero for configuration only files)
#NCOLUMNS    : 2     Number of data columns in the spectrum (This can be zero for configuration only files)
#XUNITS      : eV
#YUNITS      : COUNTS
#DATATYPE    : YY
#XPERCHAN    : 7.862, 7.881   eV per channel (separate by commas if more than one detector)
#OFFSET      : 18.5, -22.4         eV of first channel  (separate by commas if more than one detector
#SIGNALTYPE  : XRF
#YP_TEMP     : 3.262
#LIVETIME    : 9.13077, 9.1488   seconds (separate by commas if more than one detector)
#REALTIME    : 10, 10.0   seconds (separate by commas if more than one detector)
#SPECTRUM    : start of spectrum data
0, 0
0, 0
0, 0
0, 0
0, 0
0, 0
0, 0
0, 0
0, 0
0, 2
3, 3
23, 15
30, 34
4, 5
10, 8
151, 114
907, 807
144, 140
22, 19
4, 1
3, 3
3, 0
4, 3
5, 5
21, 32
27, 23
25, 20
16, 16
5, 6
9, 5
4, 3
4, 1
19, 34
647, 632
1059, 921
102, 82
102, 98
158, 123
15, 15
2, 4
5, 10
16, 24
14, 12
9, 9
7, 9
10, 4
9, 4
3, 7
10, 16
51, 51
39, 22
7, 5
9, 9
30, 34
56, 43
19, 14
14, 30
210, 228
1167, 1087
723, 629
95, 45
3, 11
6, 10
50, 81
198, 218
112, 106
12, 23
24, 6
56, 7
23, 5
7, 4
4, 6
4, 3
5, 4
9, 6
9, 5
8, 12
2, 12
6, 6
9, 6
7, 7
5, 6
5, 4
5, 10
5, 7
3, 2
2, 5
2, 11
6, 8
6, 10
4, 9
7, 7
2, 4
4, 7
5, 1
1, 2
5, 5
6, 2
3, 3
5, 0
4, 4
2, 4
3, 5
0, 4
1, 5
1, 6
2, 9
1, 2
2, 3
1, 1
2, 3
5, 3
2, 1
3, 4
1, 1
3, 2
0, 4
2, 1
0, 1
0, 3
2, 1
3, 1
2, 0
1, 3
0, 1
5, 2
1, 0
2, 1
0, 0
1, 2
1, 2
0, 1
1, 0
1, 0
0, 3
2, 2
3, 0
0, 1
1, 0
2, 1
0, 0
0, 0
1, 0
1, 1
0, 0
1, 0
0, 0
1, 0
1, 1
0, 0
1, 1
1, 0
0, 0
0, 0
1, 0
0, 1
0, 0
0, 1
0, 0
0, 0
0, 1
0, 0
0, 0
0, 0
0, 0
0, 1
0, 1
0, 0
0, 0
0, 2
0, 0
1, 0
0, 1
0, 1
0, 0
0, 0
0, 0
0, 0
0, 0
0, 0
0, 0
0, 0
0, 0
0, 0
0, 0
0, 0
0, 0
0, 0
0, 0
0, 0
0, 0
0, 0
0, 0
0, 0
0, 0
0, 0
0, 0
1, 0
0, 0
0, 0
0, 0
0, 0
0, 0
0, 0
0, 0
0, 0
0, 0
0, 0
0, 0
0, 0
0, 0
0, 0
0, 0
0, 0
0, 0
0, 0
0, 0
0, 0
0, 0
0, 0
0, 0
0, 0
0, 0
0, 0
0, 0
0, 0
0, 0
0, 0
0, 0
0, 0
0, 0
0, 0
0, 0
0, 0
0, 0
0, 0
0, 0
0, 0
0, 0
0, 0
0, 0
0, 0
0, 0
0, 0
0, 0
0, 0
0, 0
0, 0
0, 0
0, 0
0, 0
0, 0
0, 0
0, 0
0, 0
0, 0
0, 0
0, 0
0, 0
0, 0
0, 0
0, 0
0, 0
0, 0
0, 0
0, 0
0, 0
0, 0
0, 0
0, 0
0, 0
0, 0
0, 0
0, 0
0, 0
0, 0
0, 0
0, 0
0, 0
0, 0
0, 0
0, 0
0, 0
0, 0
0, 0
0, 0
0, 0
0, 0
0, 0
0, 0
0, 0
0, 0
0, 0
0, 0
#ENDOFDATA     end of spectrum data

File: ps__0257_0689790785_000rfs_shot_3147.msa
#FORMAT      : EMSA/MAS spectral data file
#VERSION     : TC202v2.0 PIXL
#TITLE       : N/A
#DATE        :       Date in the format DD-MMM-YYYY, for example 07-JUL-2010
#TIME        :             The time of day at which the spectrum was recorded, in 24-hour format
#OWNER       : PIXL Flight Model       (PIXL will use this to indicate which instrument took the data.)
#NPOINTS     : 4096     Number of data points in the spectrum (This can be zero for configuration only files)
#NCOLUMNS    : 2     Number of data columns in the spectrum (This can be zero for configuration only files)
#XUNITS      : eV
#YUNITS      : COUNTS
#DATATYPE    : YY
#XPERCHAN    : 7.862, 7.881   eV per channel (separate by commas if more than one detector)
#OFFSET      : 18.5, -22.4         eV of first channel  (separate by commas if more than one detector
#SIGNALTYPE  : XRF
#YP_TEMP     : 3.037
#LIVETIME    : 9.14121, 9.14539   seconds (separate by commas if more than one detector)
#REALTIME    : 10, 10.0   seconds (separate by commas if more than one detector)
#SPECTRUM    : start of spectrum data
0, 0
0, 0
0, 0
0, 0
0, 0
0, 0
0, 0
1, 0
1, 0
0, 3
2, 3
19, 18
23, 27
9, 4
10, 7
167, 133
833, 885
138, 124
16, 20
2, 2
3, 3
5, 4
6, 5
5, 7
38, 29
25, 24
17, 27
10, 14
3, 1
4, 6
4, 3
4, 4
19, 24
589, 641
1066, 992
115, 73
104, 109
142, 141
23, 10
5, 3
4, 11
34, 38
14, 12
8, 1
4, 10
11, 7
4, 6
4, 4
11, 10
33, 43
38, 28
6, 6
6, 13
33, 40
42, 57
20, 13
11, 16
200, 238
1186, 1171
721, 583
76, 48
18, 5
13, 13
45, 58
174, 199
109, 97
18, 3
15, 5
22, 8
10, 6
4, 3
1, 7
4, 5
7, 8
13, 2
12, 7
11, 5
9, 9
4, 7
0, 5
11, 3
2, 1
6, 6
5, 3
9, 8
2, 6
2, 2
4, 6
4, 18
1, 15
8, 11
7, 4
7, 6
7, 5
4, 1
4, 1
1, 5
3, 2
4, 4
4, 3
5, 1
5, 3
2, 4
1, 3
1, 4
5, 4
2, 1
0, 7
2, 0
5, 2
5, 4
5, 1
2, 3
2, 3
0, 1
2, 2
1, 3
4, 2
2, 7
0, 2
1, 2
1, 3
2, 2
4, 1
4, 1
1, 3
2, 1
1, 2
1, 1
1, 2
0, 1
1, 1
1, 1
2, 1
2, 2
0, 1
1, 0
1, 3
0, 1
1, 0
0, 0
3, 0
0, 2
0, 2
2, 1
0, 1
0, 0
0, 0
0, 0
1, 1
1, 0
0, 0
2, 1
1, 1
0, 0
0, 2
0, 0
0, 1
0, 0
0, 0
0, 0
1, 0
0, 0
0, 1
1, 0
0, 1
0, 0
0, 2
0, 3
0, 0
1, 2
1, 0
0, 0
0, 0
0, 0
0, 0
1, 0
0, 0
0, 0
0, 0
0, 0
1, 0
1, 0
0, 1
0, 0
0, 0
0, 0
0, 0
0, 0
0, 0
0, 0
1, 0
0, 0
0, 0
0, 0
0, 0
0, 0
0, 0
0, 0
0, 0
0, 0
0, 0
0, 0
0, 0
0, 0
0, 0
0, 0
0, 0
0, 0
0, 0
0, 0
0, 0
0, 0
0, 0
0, 0
0, 0
0, 0
0, 0
0, 0
0, 0
0, 0
0, 0
0, 0
0, 0
0, 0
0, 0
0, 0
0, 0
0, 0
0, 0
0, 0
0, 0
0, 0
0, 0
0, 0
0, 0
0, 0
0, 0
0, 0
0, 0
0, 0
0, 0
0, 0
0, 0
0, 0
0, 0
0, 0
0, 0
0, 0
0, 0
0, 0
0, 0
0, 0
0, 0
0, 0
0, 0
0, 0
0, 0
0, 0
0, 0
0, 0
0, 0
0, 0
0, 0
0, 0
0, 0
0, 0
0, 0
0, 0
0, 0
0, 0
0, 0
0, 0
0, 0
0, 0
0, 0
0, 0
0, 0
0, 0
0, 0
0, 0
0, 0
0, 0
0, 0
0, 0
0, 0
0, 0
0, 0
0, 0
0, 0
0, 0
0, 0
0, 0
0, 0
#ENDOFDATA     end of spectrum data

File: ps__0257_0689790785_000rfs_shot_3150.msa
#FORMAT      : EMSA/MAS spectral data file
#VERSION     : TC202v2.0 PIXL
#TITLE       : N/A
#DATE        :       Date in the format DD-MMM-YYYY, for example 07-JUL-2010
#TIME        :             The time of day at which the spectrum was recorded, in 24-hour format
#OWNER       : PIXL Flight Model       (PIXL will use this to indicate which instrument took the data.)
#NPOINTS     : 4096     Number of data points in the spectrum (This can be zero for configuration only files)
#NCOLUMNS    : 2     Number of data columns in the spectrum (This can be zero for configuration only files)
#XUNITS      : eV
#YUNITS      : COUNTS
#DATATYPE    : YY
#XPERCHAN    : 7.862, 7.881   eV per channel (separate by commas if more than one detector)
#OFFSET      : 18.5, -22.4         eV of first channel  (separate by commas if more than one detector
#SIGNALTYPE  : XRF
#YP_TEMP     : 3.198
#LIVETIME    : 9.12995, 9.13941   seconds (separate by commas if more than one detector)
#REALTIME    : 10, 10.0   seconds (separate by commas if more than one detector)
#SPECTRUM    : start of spectrum data
0, 0
0, 0
0, 0
0, 0
0, 0
0, 0
0, 0
1, 0
0, 0
1, 0
1, 0
27, 19
26, 25
10, 3
11, 8
158, 103
901, 712
135, 106
22, 12
3, 0
3, 6
7, 11
4, 12
5, 6
30, 15
37, 41
20, 10
17, 16
4, 3
6, 7
4, 0
3, 2
25, 25
598, 579
1038, 833
106, 85
106, 127
174, 119
16, 11
3, 3
16, 9
31, 25
15, 11
9, 6
6, 1
12, 12
9, 4
9, 5
11, 18
43, 34
30, 27
8, 4
9, 7
44, 60
55, 71
20, 15
15, 12
217, 252
1160, 1194
808, 592
85, 42
4, 9
16, 10
46, 59
205, 175
108, 71
13, 19
10, 4
15, 4
5, 4
6, 5
9, 6
9, 5
5, 2
12, 7
8, 6
5, 9
6, 15
4, 3
4, 6
8, 6
3, 5
5, 1
2, 2
5, 7
5, 5
4, 4
5, 11
3, 11
5, 14
12, 2
6, 3
8, 2
4, 3
3, 1
4, 1
4, 3
4, 2
4, 3
3, 8
2, 0
6, 3
3, 1
1, 1
4, 2
3, 2
2, 4
1, 2
3, 5
2, 0
6, 2
2, 2
2, 5
1, 3
1, 6
1, 3
1, 1
2, 3
2, 0
4, 1
0, 1
1, 2
1, 1
1, 2
1, 0
1, 0
2, 2
1, 3
0, 2
0, 1
2, 1
2, 1
3, 0
1, 1
0, 1
1, 1
1, 0
1, 0
1, 1
1, 0
1, 0
1, 1
0, 0
0, 0
0, 0
1, 0
0, 0
0, 0
0, 0
1, 0
1, 0
0, 0
1, 0
1, 0
1, 0
1, 1
0, 0
0, 1
0, 0
0, 0
0, 0
0, 0
0, 0
1, 0
1, 0
0, 0
0, 0
0, 0
0, 1
0, 1
1, 0
0, 1
0, 0
0, 0
0, 0
1, 0
1, 0
0, 0
1, 0
0, 0
0, 0
0, 0
0, 1
0, 0
1, 0
0, 0
0, 0
0, 0
0, 0
0, 0
0, 1
0, 0
0, 0
0, 0
0, 0
0, 0
0, 0
0, 0
0, 0
0, 0
0, 0
0, 0
0, 0
0, 0
0, 0
0, 0
0, 0
0, 0
0, 0
0, 0
0, 0
0, 0
0, 0
0, 0
0, 0
0, 0
0, 0
0, 0
0, 0
0, 0
0, 0
0, 0
0, 0
0, 0
0, 0
0, 0
0, 0
0, 0
0, 0
0, 0
0, 0
0, 0
0, 0
0, 0
0, 0
0, 0
0, 0
0, 0
0, 0
0, 0
0, 0
0, 0
0, 0
0, 0
0, 0
0, 0
0, 0
0, 0
0, 0
0, 0
0, 0
0, 0
0, 0
0, 0
0, 0
0, 0
0, 0
0, 0
0, 0
0, 0
0, 0
0, 0
0, 0
0, 0
0, 0
0, 0
0, 0
0, 0
0, 0
0, 0
0, 0
0, 0
0, 0
0, 0
0, 0
0, 0
0, 0
0, 0
0, 0
0, 0
0, 0
0, 0
0, 0
0, 0
0, 0
0, 0
0, 0
0, 0
0, 0
0, 0
0, 0
0, 0
0, 0
0, 0
#ENDOFDATA     end of spectrum data

File: ps__0257_0689790785_000rfs_shot_3152.msa
#FORMAT      : EMSA/MAS spectral data file
#VERSION     : TC202v2.0 PIXL
#TITLE       : N/A
#DATE        :       Date in the format DD-MMM-YYYY, for example 07-JUL-2010
#TIME        :             The time of day at which the spectrum was recorded, in 24-hour format
#OWNER       : PIXL Flight Model       (PIXL will use this to indicate which instrument took the data.)
#NPOINTS     : 4096     Number of data points in the spectrum (This can be zero for configuration only files)
#NCOLUMNS    : 2     Number of data columns in the spectrum (This can be zero for configuration only files)
#XUNITS      : eV
#YUNITS      : COUNTS
#DATATYPE    : YY
#XPERCHAN    : 7.862, 7.881   eV per channel (separate by commas if more than one detector)
#OFFSET      : 18.5, -22.4         eV of first channel  (separate by commas if more than one detector
#SIGNALTYPE  : XRF
#YP_TEMP     : 3.165
#LIVETIME    : 9.1301, 9.13433   seconds (separate by commas if more than one detector)
#REALTIME    : 10, 10.0   seconds (separate by commas if more than one detector)
#SPECTRUM    : start of spectrum data
0, 0
0, 0
0, 0
0, 0
0, 0
0, 0
0, 0
0, 0
0, 1
2, 3
4, 2
27, 19
17, 26
9, 7
8, 15
123, 100
676, 715
117, 113
20, 17
6, 2
6, 1
7, 4
3, 7
9, 13
33, 48
63, 58
26, 32
26, 26
11, 13
6, 8
4, 6
4, 3
21, 31
521, 566
845, 790
95, 56
106, 106
136, 116
8, 13
3, 3
10, 8
47, 42
18, 20
8, 7
8, 5
13, 16
15, 11
6, 8
18, 15
41, 43
38, 31
10, 5
11, 17
38, 48
88, 62
22, 22
17, 20
268, 345
1429, 1480
904, 731
73, 62
13, 13
12, 12
64, 81
236, 248
117, 114
24, 11
13, 6
10, 11
7, 6
5, 6
7, 8
6, 5
10, 4
12, 6
10, 5
4, 10
6, 7
3, 10
8, 7
2, 7
4, 8
7, 5
4, 5
7, 3
2, 4
3, 4
6, 5
2, 9
6, 13
4, 11
7, 4
5, 4
2, 1
3, 4
1, 4
8, 4
2, 2
4, 5
6, 0
7, 2
3, 5
5, 2
5, 2
1, 1
5, 7
4, 1
3, 0
1, 1
1, 1
4, 1
8, 2
6, 0
0, 1
1, 3
1, 1
4, 3
1, 1
1, 2
3, 4
2, 2
2, 2
5, 3
0, 1
2, 3
1, 1
1, 0
0, 0
2, 0
3, 0
2, 1
2, 2
1, 2
0, 0
1, 0
0, 1
0, 0
0, 0
1, 0
1, 1
2, 0
0, 0
1, 1
1, 0
0, 0
0, 2
0, 0
0, 1
0, 1
1, 0
0, 1
0, 0
2, 0
0, 0
0, 0
0, 0
0, 1
0, 0
0, 0
0, 0
1, 2
1, 0
0, 0
0, 0
0, 2
1, 0
0, 0
0, 2
0, 1
0, 0
1, 2
0, 0
1, 0
0, 1
0, 0
2, 0
0, 0
0, 0
0, 0
0, 0
0, 0
0, 0
0, 0
0, 1
0, 0
0, 0
0, 0
0, 1
0, 0
0, 0
0, 0
0, 0
0, 0
1, 0
0, 0
0, 0
0, 0
0, 0
0, 0
0, 0
0, 0
0, 0
0, 0
0, 0
0, 0
0, 0
0, 0
0, 0
0, 0
0, 0
0, 0
0, 0
0, 0
0, 0
0, 0
0, 0
0, 0
0, 0
0, 0
0, 0
0, 0
0, 0
0, 0
0, 0
0, 0
0, 0
0, 0
0, 0
0, 0
0, 0
0, 0
0, 0
0, 0
0, 0
0, 0
0, 0
0, 0
0, 0
0, 0
0, 0
0, 0
0, 0
0, 0
0, 0
0, 0
0, 0
0, 0
0, 0
0, 0
0, 0
0, 0
0, 0
0, 0
0, 0
0, 0
0, 0
0, 0
0, 0
0, 0
0, 0
0, 0
0, 0
0, 0
0, 0
0, 0
0, 0
0, 0
0, 0
0, 0
0, 0
0, 0
0, 0
0, 0
0, 0
0, 0
0, 0
0, 0
0, 0
0, 0
0, 0
0, 0
0, 0
0, 0
0, 0
0, 0
0, 0
0, 0
0, 0
0, 0
0, 0
0, 0
0, 0
0, 0
0, 0
#ENDOFDATA     end of spectrum data

File: ps__0257_0689790785_000rfs_shot_3154.msa
#FORMAT      : EMSA/MAS spectral data file
#VERSION     : TC202v2.0 PIXL
#TITLE       : N/A
#DATE        :       Date in the format DD-MMM-YYYY, for example 07-JUL-2010
#TIME        :             The time of day at which the spectrum was recorded, in 24-hour format
#OWNER       : PIXL Flight Model       (PIXL will use this to indicate which instrument took the data.)
#NPOINTS     : 4096     Number of data points in the spectrum (This can be zero for configuration only files)
#NCOLUMNS    : 2     Number of data columns in the spectrum (This can be zero for configuration only files)
#XUNITS      : eV
#YUNITS      : COUNTS
#DATATYPE    : YY
#XPERCHAN    : 7.862, 7.881   eV per channel (separate by commas if more than one detector)
#OFFSET      : 18.5, -22.4         eV of first channel  (separate by commas if more than one detector
#SIGNALTYPE  : XRF
#YP_TEMP     : 3.005
#LIVETIME    : 9.14935, 9.14286   seconds (separate by commas if more than one detector)
#REALTIME    : 10, 10.0   seconds (separate by commas if more than one detector)
#SPECTRUM    : start of spectrum data
0, 0
0, 0
0, 0
0, 0
0, 0
0, 0
0, 0
0, 0
2, 1
1, 2
0, 2
25, 30
40, 24
8, 3
7, 12
140, 153
879, 874
134, 157
8, 15
4, 3
6, 4
4, 3
3, 3
10, 12
37, 45
30, 28
20, 19
12, 10
4, 6
6, 1
3, 2
4, 2
18, 29
550, 618
917, 1001
96, 87
112, 124
143, 125
21, 11
2, 3
18, 8
46, 33
20, 11
5, 7
3, 3
5, 15
5, 6
4, 4
3, 21
40, 64
42, 27
1, 7
7, 5
31, 30
51, 51
13, 18
14, 22
200, 292
1148, 1337
737, 621
68, 47
10, 12
11, 19
56, 83
193, 185
113, 98
10, 5
11, 7
14, 10
4, 8
5, 5
3, 2
6, 3
3, 6
8, 2
8, 7
3, 7
3, 5
5, 4
3, 1
3, 5
6, 3
9, 9
5, 6
4, 2
4, 14
2, 6
1, 7
1, 12
4, 13
6, 3
9, 5
2, 2
4, 1
4, 6
5, 5
2, 2
1, 2
4, 4
6, 5
5, 3
2, 0
1, 1
1, 2
3, 5
5, 4
0, 2
3, 3
2, 3
6, 2
2, 5
5, 2
4, 4
2, 2
0, 3
1, 0
2, 1
2, 1
0, 1
7, 1
2, 2
2, 0
2, 3
2, 1
4, 1
1, 2
1, 2
3, 1
1, 3
4, 1
0, 1
0, 1
2, 1
1, 0
1, 2
0, 2
1, 3
0, 1
1, 1
3, 0
0, 0
3, 0
0, 0
0, 0
0, 1
1, 1
0, 0
2, 2
1, 0
0, 1
1, 0
2, 0
0, 2
0, 0
1, 0
1, 0
0, 0
0, 0
1, 0
1, 0
0, 1
1, 0
0, 0
0, 0
1, 0
1, 1
0, 0
0, 0
1, 0
1, 0
0, 0
0, 0
0, 0
0, 0
0, 0
0, 0
2, 0
1, 0
0, 0
0, 0
0, 0
0, 0
0, 0
1, 0
0, 1
0, 0
0, 0
0, 0
0, 0
0, 0
0, 0
0, 0
0, 1
0, 0
0, 0
0, 0
0, 0
0, 0
0, 0
0, 0
0, 0
0, 0
0, 0
0, 0
0, 0
0, 0
0, 0
0, 0
0, 0
0, 0
0, 0
0, 0
0, 0
0, 0
0, 0
0, 0
0, 0
0, 0
0, 0
0, 0
0, 0
0, 0
0, 0
0, 0
0, 0
0, 0
0, 0
0, 0
0, 0
0, 0
0, 0
0, 0
0, 0
0, 0
0, 0
0, 0
0, 0
0, 0
0, 0
0, 0
0, 0
0, 0
0, 0
0, 0
0, 0
0, 0
0, 0
0, 0
0, 0
0, 0
0, 0
0, 0
0, 0
0, 0
0, 0
0, 0
0, 0
0, 0
0, 0
0, 0
0, 0
0, 0
0, 0
0, 0
0, 0
0, 0
0, 0
0, 0
0, 0
0, 0
0, 0
0, 0
0, 0
0, 0
0, 0
0, 0
0, 0
0, 0
0, 0
0, 0
0, 0
0, 0
0, 0
0, 0
0, 0
0, 0
0, 0
0, 0
0, 0
0, 0
0, 0
0, 0
0, 0
0, 0
#ENDOFDATA     end of spectrum data

File: ps__0257_0689790785_000rfs_shot_3155.msa
#FORMAT      : EMSA/MAS spectral data file
#VERSION     : TC202v2.0 PIXL
#TITLE       : N/A
#DATE        :       Date in the format DD-MMM-YYYY, for example 07-JUL-2010
#TIME        :             The time of day at which the spectrum was recorded, in 24-hour format
#OWNER       : PIXL Flight Model       (PIXL will use this to indicate which instrument took the data.)
#NPOINTS     : 4096     Number of data points in the spectrum (This can be zero for configuration only files)
#NCOLUMNS    : 2     Number of data columns in the spectrum (This can be zero for configuration only files)
#XUNITS      : eV
#YUNITS      : COUNTS
#DATATYPE    : YY
#XPERCHAN    : 7.862, 7.881   eV per channel (separate by commas if more than one detector)
#OFFSET      : 18.5, -22.4         eV of first channel  (separate by commas if more than one detector
#SIGNALTYPE  : XRF
#YP_TEMP     : 3.262
#LIVETIME    : 9.11251, 9.10988   seconds (separate by commas if more than one detector)
#REALTIME    : 10, 10.0   seconds (separate by commas if more than one detector)
#SPECTRUM    : start of spectrum data
0, 0
0, 0
0, 0
0, 0
0, 0
0, 0
0, 0
0, 0
0, 0
2, 3
3, 2
30, 25
35, 45
10, 4
8, 12
119, 120
751, 846
129, 130
22, 6
4, 4
2, 3
10, 5
4, 1
9, 9
41, 54
51, 38
19, 23
13, 12
5, 3
3, 4
2, 2
2, 7
27, 24
477, 500
730, 731
73, 61
84, 77
117, 95
10, 9
2, 1
13, 11
47, 48
35, 21
13, 12
9, 9
7, 13
7, 6
2, 4
7, 8
32, 35
29, 25
8, 9
7, 12
36, 39
50, 61
11, 22
15, 21
310, 381
1570, 1801
1015, 908
84, 49
10, 17
13, 12
69, 93
257, 279
135, 123
17, 17
25, 7
22, 11
10, 5
10, 5
8, 2
2, 8
9, 5
8, 8
6, 8
9, 8
3, 9
9, 10
9, 3
4, 5
7, 8
9, 7
3, 3
5, 4
3, 8
5, 8
5, 2
3, 7
2, 6
2, 4
5, 0
5, 6
1, 5
3, 4
5, 3
1, 5
4, 2
4, 5
11, 2
5, 2
2, 1
3, 4
4, 1
2, 5
1, 6
1, 2
1, 4
3, 2
4, 1
5, 1
3, 4
1, 2
1, 0
3, 1
1, 3
1, 5
3, 4
3, 2
0, 2
0, 1
1, 2
3, 2
3, 1
0, 2
0, 1
2, 0
1, 0
0, 1
2, 0
0, 0
3, 1
0, 0
1, 0
0, 0
1, 1
0, 1
2, 0
1, 1
0, 0
1, 0
3, 0
1, 0
0, 0
1, 0
1, 0
0, 0
0, 0
0, 0
1, 1
0, 0
0, 0
0, 0
0, 1
1, 0
0, 0
0, 1
0, 0
0, 1
0, 0
0, 1
0, 0
1, 1
0, 0
0, 0
0, 0
0, 0
0, 0
1, 1
0, 1
1, 0
0, 0
1, 0
0, 0
0, 0
0, 0
0, 0
0, 0
0, 0
0, 0
0, 0
1, 0
0, 0
0, 0
0, 1
0, 0
0, 0
0, 0
0, 0
1, 1
0, 0
0, 0
0, 1
0, 0
0, 1
0, 0
0, 0
0, 0
0, 0
0, 0
0, 0
0, 0
0, 0
0, 0
0, 0
0, 0
0, 0
0, 0
0, 0
0, 0
0, 0
0, 0
0, 0
0, 0
0, 0
0, 0
0, 0
0, 0
0, 0
0, 0
0, 0
0, 0
0, 0
0, 0
0, 0
0, 0
0, 0
0, 0
0, 0
0, 0
0, 0
0, 0
0, 0
0, 0
0, 0
0, 0
0, 0
0, 0
0, 0
0, 0
0, 0
0, 0
0, 0
0, 0
0, 0
0, 0
0, 0
0, 0
0, 0
0, 0
0, 0
0, 0
0, 0
0, 0
0, 0
0, 0
0, 0
0, 0
0, 0
0, 0
0, 0
0, 0
0, 0
0, 0
0, 0
0, 0
0, 0
0, 0
0, 0
0, 0
0, 0
0, 0
0, 0
0, 0
0, 0
0, 0
0, 0
0, 0
0, 0
0, 0
0, 0
0, 0
0, 0
0, 0
0, 0
0, 0
0, 0
0, 0
0, 0
0, 0
0, 0
0, 0
0, 0
0, 0
#ENDOFDATA     end of spectrum data

File: ps__0257_0689790785_000rfs_shot_3156.msa
#FORMAT      : EMSA/MAS spectral data file
#VERSION     : TC202v2.0 PIXL
#TITLE       : N/A
#DATE        :       Date in the format DD-MMM-YYYY, for example 07-JUL-2010
#TIME        :             The time of day at which the spectrum was recorded, in 24-hour format
#OWNER       : PIXL Flight Model       (PIXL will use this to indicate which instrument took the data.)
#NPOINTS     : 4096     Number of data points in the spectrum (This can be zero for configuration only files)
#NCOLUMNS    : 2     Number of data columns in the spectrum (This can be zero for configuration only files)
#XUNITS      : eV
#YUNITS      : COUNTS
#DATATYPE    : YY
#XPERCHAN    : 7.862, 7.881   eV per channel (separate by commas if more than one detector)
#OFFSET      : 18.5, -22.4         eV of first channel  (separate by commas if more than one detector
#SIGNALTYPE  : XRF
#YP_TEMP     : 3.198
#LIVETIME    : 9.04379, 9.03881   seconds (separate by commas if more than one detector)
#REALTIME    : 10, 10.0   seconds (separate by commas if more than one detector)
#SPECTRUM    : start of spectrum data
0, 0
0, 0
0, 0
0, 0
0, 0
0, 0
0, 0
0, 2
2, 0
0, 1
3, 3
43, 24
43, 38
4, 5
8, 11
91, 69
656, 598
99, 119
6, 9
2, 1
6, 3
10, 6
4, 3
7, 13
75, 64
40, 41
26, 16
24, 10
7, 5
6, 3
1, 2
6, 6
14, 13
204, 206
320, 296
16, 30
40, 42
54, 42
4, 7
4, 3
9, 34
33, 74
47, 28
25, 10
5, 9
12, 15
6, 8
6, 5
8, 12
23, 13
15, 16
7, 10
16, 11
42, 63
90, 80
24, 27
32, 48
500, 635
2900, 3161
1772, 1611
148, 106
9, 14
20, 24
121, 123
431, 503
266, 205
27, 21
11, 9
12, 3
22, 8
0, 7
5, 4
8, 7
3, 2
6, 1
3, 3
2, 4
6, 3
2, 7
4, 5
6, 4
6, 6
6, 2
4, 1
4, 3
6, 1
0, 8
5, 8
2, 9
3, 6
4, 4
1, 3
5, 2
2, 3
4, 3
4, 4
2, 9
9, 9
3, 2
10, 4
6, 2
3, 3
3, 3
4, 2
0, 1
5, 2
2, 0
3, 3
6, 4
1, 1
1, 4
3, 4
4, 2
2, 2
0, 2
2, 3
7, 8
3, 3
1, 2
3, 1
0, 4
2, 0
3, 1
3, 0
2, 2
2, 1
2, 1
0, 0
4, 1
0, 2
1, 1
1, 0
0, 2
0, 1
0, 0
3, 1
0, 0
0, 0
1, 0
0, 1
1, 0
0, 1
1, 0
0, 0
0, 0
0, 0
1, 2
0, 0
1, 0
1, 0
0, 0
0, 0
0, 1
0, 1
1, 0
0, 0
0, 1
0, 0
0, 0
0, 1
0, 1
0, 0
0, 0
0, 0
0, 1
0, 1
0, 0
0, 0
0, 0
0, 0
0, 0
0, 0
0, 0
2, 0
0, 0
0, 0
0, 1
0, 0
0, 0
0, 0
1, 1
0, 1
1, 1
0, 0
0, 0
0, 0
1, 0
1, 0
0, 1
0, 0
0, 0
0, 0
2, 0
0, 0
0, 0
0, 0
0, 0
0, 0
0, 0
0, 0
0, 0
0, 0
0, 0
0, 0
0, 0
0, 0
0, 0
0, 0
0, 0
0, 0
0, 0
0, 0
0, 0
0, 0
0, 0
0, 0
0, 0
0, 0
0, 0
0, 0
0, 0
0, 0
0, 0
0, 0
0, 0
0, 0
0, 0
0, 0
0, 0
0, 0
0, 0
0, 0
0, 0
0, 0
0, 0
0, 0
0, 0
0, 0
0, 0
0, 0
0, 0
0, 0
0, 0
0, 0
0, 0
0, 0
0, 0
0, 0
0, 0
0, 0
0, 0
0, 0
0, 0
0, 0
0, 0
0, 0
0, 0
0, 0
0, 0
0, 0
0, 0
0, 0
0, 0
0, 0
0, 0
0, 0
0, 0
0, 0
0, 0
0, 0
0, 0
0, 0
0, 0
0, 0
0, 0
0, 0
0, 0
0, 0
0, 0
0, 0
0, 0
0, 0
0, 0
0, 0
0, 0
0, 0
0, 0
0, 0
0, 0
0, 0
0, 0
0, 0
0, 0
0, 0
#ENDOFDATA     end of spectrum data