Folder: data-repository/host_upload/12-01-2023/Dourbes (shot-by-shot)/upload_4 (part 14)

File: ps__0257_0689790785_000rfs_shot_3236.msa
#FORMAT      : EMSA/MAS spectral data file
#VERSION     : TC202v2.0 PIXL
#TITLE       : N/A
#DATE        :       Date in the format DD-MMM-YYYY, for example 07-JUL-2010
#TIME        :             The time of day at which the spectrum was recorded, in 24-hour format
#OWNER       : PIXL Flight Model       (PIXL will use this to indicate which instrument took the data.)
#NPOINTS     : 4096     Number of data points in the spectrum (This can be zero for configuration only files)
#NCOLUMNS    : 2     Number of data columns in the spectrum (This can be zero for configuration only files)
#XUNITS      : eV
#YUNITS      : COUNTS
#DATATYPE    : YY
#XPERCHAN    : 7.862, 7.881   eV per channel (separate by commas if more than one detector)
#OFFSET      : 18.5, -22.4         eV of first channel  (separate by commas if more than one detector
#SIGNALTYPE  : XRF
#YP_TEMP     : 3.037
#LIVETIME    : 9.01575, 8.99158   seconds (separate by commas if more than one detector)
#REALTIME    : 10, 10.0   seconds (separate by commas if more than one detector)
#SPECTRUM    : start of spectrum data
0, 0
0, 0
0, 0
0, 0
0, 0
0, 0
0, 0
0, 0
4, 4
3, 4
3, 5
19, 21
25, 33
4, 4
8, 9
85, 70
504, 527
86, 85
3, 7
1, 3
5, 10
51, 62
8, 29
40, 52
178, 208
143, 155
58, 50
26, 35
7, 15
6, 8
6, 6
5, 3
7, 9
45, 73
71, 100
8, 14
10, 20
11, 21
20, 22
7, 11
15, 16
31, 27
31, 33
16, 28
13, 13
18, 24
6, 10
10, 9
19, 23
29, 31
19, 21
13, 16
13, 16
66, 85
109, 104
27, 28
45, 45
566, 813
3031, 3710
1857, 1817
146, 124
28, 27
39, 45
137, 159
456, 569
288, 269
25, 13
9, 5
12, 5
4, 10
9, 8
9, 5
8, 6
6, 10
6, 6
7, 10
9, 5
8, 6
4, 6
4, 13
10, 7
5, 9
3, 3
7, 3
5, 5
1, 5
4, 3
5, 5
7, 1
6, 4
4, 2
6, 4
5, 7
5, 6
3, 6
3, 0
2, 4
2, 2
1, 2
2, 6
2, 3
4, 3
3, 3
2, 3
2, 5
2, 1
2, 3
2, 4
4, 1
2, 5
0, 1
1, 3
1, 2
2, 1
4, 3
0, 3
4, 8
5, 4
1, 1
0, 0
0, 1
2, 3
6, 3
1, 2
3, 0
3, 3
0, 0
0, 0
2, 3
1, 0
0, 0
0, 1
3, 2
0, 1
0, 0
0, 0
2, 1
0, 2
0, 2
0, 0
0, 1
2, 1
0, 1
1, 0
1, 0
1, 2
2, 1
0, 0
0, 1
0, 1
0, 0
0, 0
1, 1
0, 0
0, 0
0, 0
2, 0
2, 1
0, 0
0, 0
0, 0
0, 1
0, 0
0, 0
0, 0
0, 0
0, 0
0, 0
0, 0
0, 0
0, 0
0, 0
1, 1
0, 0
0, 0
0, 0
0, 0
0, 0
0, 1
0, 0
0, 0
0, 0
0, 1
0, 0
0, 0
0, 0
0, 0
0, 0
1, 0
0, 0
0, 0
0, 0
0, 0
0, 0
0, 0
0, 0
0, 0
0, 0
0, 1
0, 0
0, 0
0, 0
0, 0
0, 0
0, 0
0, 0
0, 0
0, 0
0, 0
0, 0
0, 0
0, 0
0, 0
0, 0
0, 0
0, 0
0, 0
0, 0
0, 0
0, 0
0, 0
0, 0
0, 0
0, 0
0, 0
1, 0
0, 0
0, 0
0, 0
0, 0
0, 0
0, 0
0, 0
0, 0
0, 0
0, 0
0, 0
0, 0
0, 0
0, 0
0, 0
0, 0
0, 0
0, 0
0, 0
0, 0
0, 0
0, 0
0, 0
0, 0
0, 0
0, 0
0, 0
0, 0
0, 0
0, 0
0, 0
0, 0
0, 0
0, 0
0, 0
0, 0
0, 0
0, 0
0, 0
0, 0
0, 0
0, 0
0, 0
0, 0
0, 0
0, 0
0, 0
0, 0
0, 0
0, 0
0, 0
0, 0
0, 0
0, 0
0, 0
0, 0
0, 0
0, 0
0, 0
0, 0
0, 0
0, 0
0, 0
0, 0
0, 0
0, 0
0, 0
0, 0
#ENDOFDATA     end of spectrum data

File: ps__0257_0689790785_000rfs_shot_3238.msa
#FORMAT      : EMSA/MAS spectral data file
#VERSION     : TC202v2.0 PIXL
#TITLE       : N/A
#DATE        :       Date in the format DD-MMM-YYYY, for example 07-JUL-2010
#TIME        :             The time of day at which the spectrum was recorded, in 24-hour format
#OWNER       : PIXL Flight Model       (PIXL will use this to indicate which instrument took the data.)
#NPOINTS     : 4096     Number of data points in the spectrum (This can be zero for configuration only files)
#NCOLUMNS    : 2     Number of data columns in the spectrum (This can be zero for configuration only files)
#XUNITS      : eV
#YUNITS      : COUNTS
#DATATYPE    : YY
#XPERCHAN    : 7.862, 7.881   eV per channel (separate by commas if more than one detector)
#OFFSET      : 18.5, -22.4         eV of first channel  (separate by commas if more than one detector
#SIGNALTYPE  : XRF
#YP_TEMP     : 3.133
#LIVETIME    : 8.99344, 8.98118   seconds (separate by commas if more than one detector)
#REALTIME    : 10, 10.0   seconds (separate by commas if more than one detector)
#SPECTRUM    : start of spectrum data
0, 0
0, 0
0, 0
0, 0
0, 0
0, 0
0, 0
0, 0
2, 2
3, 0
1, 3
19, 23
43, 52
3, 3
5, 3
8, 10
50, 67
4, 11
6, 6
4, 0
4, 3
20, 17
8, 6
12, 23
134, 239
168, 274
45, 49
36, 37
12, 17
9, 9
9, 10
4, 2
8, 14
162, 151
215, 201
21, 10
29, 26
35, 36
20, 14
7, 5
13, 14
21, 11
42, 30
47, 22
16, 16
13, 14
10, 9
21, 19
9, 14
9, 23
15, 16
21, 12
17, 18
71, 101
124, 122
31, 29
38, 36
649, 749
3604, 3777
2260, 1908
195, 93
28, 27
40, 30
145, 201
526, 507
316, 280
22, 12
10, 3
9, 7
4, 4
5, 3
11, 7
9, 5
5, 4
9, 5
4, 4
8, 4
10, 6
6, 2
6, 6
5, 4
4, 4
3, 5
4, 5
5, 7
3, 4
8, 9
5, 1
11, 5
3, 5
5, 1
5, 3
4, 9
3, 4
4, 1
4, 6
2, 1
3, 4
5, 2
5, 1
2, 4
5, 3
3, 6
5, 2
1, 4
3, 3
3, 2
4, 0
0, 1
1, 2
3, 4
3, 1
1, 2
2, 1
1, 3
4, 6
5, 9
4, 4
4, 2
0, 4
4, 1
2, 2
2, 4
3, 2
1, 2
6, 0
2, 2
1, 2
3, 2
2, 2
3, 0
3, 0
1, 0
1, 1
0, 0
1, 1
0, 0
1, 1
0, 1
0, 1
0, 0
1, 0
0, 2
0, 0
0, 0
0, 0
1, 1
0, 0
0, 1
1, 0
0, 0
0, 1
0, 1
0, 0
0, 0
1, 1
0, 0
0, 0
1, 0
0, 0
1, 0
0, 0
1, 0
0, 0
0, 2
0, 0
1, 0
0, 0
1, 0
0, 0
0, 0
0, 1
0, 1
0, 0
0, 0
0, 0
0, 0
0, 0
0, 0
1, 0
2, 0
0, 0
0, 0
0, 1
0, 2
0, 0
0, 0
0, 0
0, 0
0, 0
0, 0
0, 0
0, 0
0, 0
0, 0
1, 0
0, 0
0, 0
0, 0
0, 0
0, 0
0, 0
0, 0
1, 0
0, 0
0, 0
0, 0
0, 0
0, 0
0, 0
0, 0
0, 0
0, 0
0, 0
0, 0
0, 0
0, 0
0, 0
0, 0
0, 0
0, 0
0, 0
0, 0
0, 0
0, 0
0, 0
0, 0
0, 0
0, 0
0, 0
0, 0
0, 0
0, 0
0, 0
0, 0
0, 0
0, 0
0, 0
0, 0
0, 0
0, 0
0, 0
0, 0
0, 0
0, 0
0, 0
0, 0
0, 0
0, 0
0, 0
0, 0
0, 0
0, 0
0, 0
0, 0
0, 0
0, 0
0, 0
0, 0
0, 0
0, 0
0, 0
0, 0
0, 0
0, 0
0, 0
0, 0
0, 0
0, 0
0, 0
0, 0
0, 0
0, 0
0, 0
0, 0
0, 0
0, 0
0, 0
0, 0
0, 0
0, 0
0, 0
0, 0
0, 0
0, 0
0, 0
0, 0
0, 0
0, 0
0, 0
0, 0
0, 0
0, 0
0, 0
#ENDOFDATA     end of spectrum data

File: ps__0257_0689790785_000rfs_shot_3241.msa
#FORMAT      : EMSA/MAS spectral data file
#VERSION     : TC202v2.0 PIXL
#TITLE       : N/A
#DATE        :       Date in the format DD-MMM-YYYY, for example 07-JUL-2010
#TIME        :             The time of day at which the spectrum was recorded, in 24-hour format
#OWNER       : PIXL Flight Model       (PIXL will use this to indicate which instrument took the data.)
#NPOINTS     : 4096     Number of data points in the spectrum (This can be zero for configuration only files)
#NCOLUMNS    : 2     Number of data columns in the spectrum (This can be zero for configuration only files)
#XUNITS      : eV
#YUNITS      : COUNTS
#DATATYPE    : YY
#XPERCHAN    : 7.862, 7.881   eV per channel (separate by commas if more than one detector)
#OFFSET      : 18.5, -22.4         eV of first channel  (separate by commas if more than one detector
#SIGNALTYPE  : XRF
#YP_TEMP     : 3.005
#LIVETIME    : 8.96914, 8.97823   seconds (separate by commas if more than one detector)
#REALTIME    : 10, 10.0   seconds (separate by commas if more than one detector)
#SPECTRUM    : start of spectrum data
0, 0
0, 0
0, 0
0, 0
0, 0
0, 0
0, 0
0, 0
3, 1
5, 1
1, 1
19, 27
32, 23
2, 3
5, 1
68, 54
413, 360
55, 54
3, 3
1, 1
5, 6
16, 14
6, 5
32, 34
204, 193
180, 166
48, 58
38, 29
17, 17
6, 4
11, 3
9, 9
6, 7
74, 66
130, 102
23, 8
15, 21
23, 13
8, 10
13, 10
12, 13
16, 19
28, 33
31, 26
11, 9
16, 6
13, 15
10, 12
14, 21
19, 14
19, 5
16, 19
26, 26
94, 103
127, 113
31, 36
45, 42
714, 760
3756, 3656
2390, 1868
201, 124
29, 25
33, 38
158, 148
549, 544
324, 257
23, 19
10, 5
10, 7
6, 8
5, 3
3, 2
5, 5
3, 4
3, 6
4, 3
5, 4
8, 3
10, 5
10, 7
7, 12
3, 4
4, 5
8, 1
4, 5
5, 6
4, 2
6, 2
4, 4
3, 6
5, 4
4, 3
4, 3
4, 2
4, 2
4, 2
2, 4
0, 4
2, 1
3, 2
7, 2
1, 1
5, 4
3, 1
4, 3
3, 1
5, 3
2, 3
2, 1
1, 2
2, 2
0, 1
2, 2
2, 3
2, 1
4, 6
8, 9
7, 4
2, 2
2, 0
4, 2
1, 1
3, 4
3, 3
1, 0
2, 1
2, 1
2, 0
2, 1
2, 1
0, 0
0, 0
1, 1
2, 0
0, 0
0, 1
2, 1
1, 0
1, 1
1, 2
0, 4
1, 2
2, 1
0, 1
0, 0
0, 1
2, 1
1, 1
2, 0
0, 0
0, 1
0, 0
1, 0
0, 1
1, 1
0, 2
0, 0
0, 1
0, 0
0, 0
0, 0
0, 0
0, 0
1, 0
0, 0
0, 0
0, 0
1, 0
0, 0
0, 3
0, 1
0, 0
0, 1
0, 0
0, 0
0, 0
1, 0
0, 0
0, 0
0, 1
0, 0
0, 0
0, 0
0, 0
1, 0
0, 0
0, 0
0, 0
0, 0
0, 0
0, 0
0, 0
0, 0
0, 0
0, 0
0, 1
0, 0
0, 0
0, 1
0, 0
0, 0
1, 0
0, 0
0, 0
0, 0
0, 0
0, 0
0, 0
0, 1
0, 0
0, 0
0, 0
0, 0
0, 0
1, 0
0, 0
0, 0
0, 0
0, 0
0, 0
0, 0
0, 0
0, 0
0, 0
0, 0
0, 0
0, 0
0, 0
0, 0
0, 0
0, 0
0, 0
0, 0
0, 0
0, 0
0, 0
0, 0
0, 0
0, 0
0, 0
0, 0
0, 0
0, 0
0, 0
0, 0
0, 0
0, 0
0, 0
0, 0
0, 0
0, 0
0, 0
0, 0
0, 0
0, 0
0, 0
0, 0
0, 0
0, 0
0, 0
0, 0
0, 0
0, 0
0, 0
0, 0
0, 0
0, 0
0, 0
0, 0
0, 0
0, 0
0, 0
0, 0
0, 0
0, 0
0, 0
0, 0
0, 0
0, 0
0, 0
0, 0
0, 0
0, 0
0, 0
0, 0
0, 0
0, 0
0, 0
0, 0
0, 0
0, 0
0, 0
0, 0
0, 0
#ENDOFDATA     end of spectrum data

File: ps__0257_0689790785_000rfs_shot_3242.msa
#FORMAT      : EMSA/MAS spectral data file
#VERSION     : TC202v2.0 PIXL
#TITLE       : N/A
#DATE        :       Date in the format DD-MMM-YYYY, for example 07-JUL-2010
#TIME        :             The time of day at which the spectrum was recorded, in 24-hour format
#OWNER       : PIXL Flight Model       (PIXL will use this to indicate which instrument took the data.)
#NPOINTS     : 4096     Number of data points in the spectrum (This can be zero for configuration only files)
#NCOLUMNS    : 2     Number of data columns in the spectrum (This can be zero for configuration only files)
#XUNITS      : eV
#YUNITS      : COUNTS
#DATATYPE    : YY
#XPERCHAN    : 7.862, 7.881   eV per channel (separate by commas if more than one detector)
#OFFSET      : 18.5, -22.4         eV of first channel  (separate by commas if more than one detector
#SIGNALTYPE  : XRF
#YP_TEMP     : 3.23
#LIVETIME    : 9.03941, 9.05897   seconds (separate by commas if more than one detector)
#REALTIME    : 10, 10.0   seconds (separate by commas if more than one detector)
#SPECTRUM    : start of spectrum data
0, 0
0, 0
0, 0
0, 0
0, 0
0, 0
0, 0
0, 0
1, 3
4, 2
1, 3
24, 13
24, 22
5, 5
9, 8
131, 137
965, 909
185, 138
10, 10
3, 2
4, 5
27, 32
12, 7
35, 28
190, 183
146, 128
55, 49
14, 36
15, 11
2, 6
12, 9
4, 2
6, 3
34, 32
47, 46
5, 9
13, 5
12, 13
13, 8
11, 8
5, 9
18, 12
21, 21
18, 24
13, 8
14, 15
12, 11
14, 13
14, 12
19, 17
14, 19
10, 9
16, 16
47, 55
73, 62
22, 24
32, 50
566, 582
2823, 2712
1750, 1321
139, 88
23, 27
31, 25
125, 138
430, 439
243, 166
23, 19
8, 8
10, 8
15, 10
11, 6
6, 7
6, 8
14, 8
7, 10
5, 5
4, 8
4, 8
11, 1
7, 4
11, 4
8, 3
5, 3
10, 2
9, 10
3, 2
6, 8
2, 7
6, 8
5, 3
9, 2
4, 7
4, 3
3, 3
4, 3
5, 3
4, 5
4, 2
4, 4
3, 2
4, 5
4, 2
4, 1
3, 3
1, 2
6, 1
4, 1
3, 1
2, 2
1, 3
2, 2
3, 2
5, 0
1, 5
3, 3
1, 2
3, 2
4, 4
3, 4
2, 0
0, 3
3, 4
1, 2
2, 1
3, 2
4, 2
1, 0
0, 4
4, 1
2, 2
2, 1
0, 1
1, 0
0, 2
1, 0
0, 3
2, 1
0, 1
0, 0
0, 0
1, 0
0, 0
2, 0
0, 0
0, 0
0, 2
0, 1
0, 0
1, 0
0, 0
0, 2
0, 0
0, 0
0, 1
0, 1
0, 0
1, 0
0, 0
0, 0
0, 1
1, 0
0, 0
0, 2
0, 0
0, 0
0, 0
0, 0
0, 0
0, 1
0, 0
0, 0
0, 0
0, 2
0, 0
0, 0
1, 0
0, 0
0, 0
0, 0
0, 0
0, 0
0, 0
0, 0
0, 1
0, 0
0, 0
0, 0
0, 0
0, 0
0, 0
0, 0
1, 0
0, 0
0, 0
0, 0
0, 1
0, 0
0, 0
0, 0
0, 0
0, 0
0, 0
0, 0
0, 0
0, 0
0, 0
0, 0
0, 0
0, 0
1, 0
0, 0
0, 0
0, 0
0, 0
0, 0
0, 0
0, 0
0, 0
0, 0
0, 0
0, 0
0, 0
0, 0
0, 0
0, 0
0, 0
0, 0
0, 0
0, 0
0, 0
0, 0
0, 0
0, 0
0, 0
0, 0
0, 0
0, 0
0, 0
0, 0
0, 0
0, 0
0, 0
0, 0
0, 0
0, 0
0, 0
0, 0
0, 0
0, 0
0, 0
0, 0
0, 0
0, 0
0, 0
0, 0
0, 0
0, 0
0, 0
0, 0
0, 0
0, 0
0, 0
0, 0
0, 0
0, 0
0, 0
0, 0
0, 0
0, 0
0, 0
0, 0
0, 0
0, 0
0, 0
0, 0
0, 0
0, 0
0, 0
0, 0
0, 0
0, 0
0, 0
0, 0
0, 0
0, 0
0, 0
0, 0
0, 0
0, 0
0, 0
0, 0
0, 0
0, 0
0, 0
#ENDOFDATA     end of spectrum data

File: ps__0257_0689790785_000rfs_shot_3243.msa
#FORMAT      : EMSA/MAS spectral data file
#VERSION     : TC202v2.0 PIXL
#TITLE       : N/A
#DATE        :       Date in the format DD-MMM-YYYY, for example 07-JUL-2010
#TIME        :             The time of day at which the spectrum was recorded, in 24-hour format
#OWNER       : PIXL Flight Model       (PIXL will use this to indicate which instrument took the data.)
#NPOINTS     : 4096     Number of data points in the spectrum (This can be zero for configuration only files)
#NCOLUMNS    : 2     Number of data columns in the spectrum (This can be zero for configuration only files)
#XUNITS      : eV
#YUNITS      : COUNTS
#DATATYPE    : YY
#XPERCHAN    : 7.862, 7.881   eV per channel (separate by commas if more than one detector)
#OFFSET      : 18.5, -22.4         eV of first channel  (separate by commas if more than one detector
#SIGNALTYPE  : XRF
#YP_TEMP     : 2.781
#LIVETIME    : 9.05926, 9.07451   seconds (separate by commas if more than one detector)
#REALTIME    : 10, 10.0   seconds (separate by commas if more than one detector)
#SPECTRUM    : start of spectrum data
0, 0
0, 0
0, 0
0, 0
0, 0
0, 0
0, 0
0, 1
1, 1
2, 2
0, 1
18, 17
34, 27
2, 7
11, 7
158, 144
1001, 840
160, 135
5, 5
4, 1
18, 7
76, 49
28, 15
27, 28
123, 129
115, 98
47, 36
25, 22
8, 5
4, 4
9, 8
4, 7
4, 4
26, 23
48, 42
8, 9
4, 14
15, 9
9, 5
6, 4
5, 9
20, 18
19, 22
18, 20
17, 10
11, 8
9, 11
11, 10
10, 14
16, 18
16, 22
11, 12
20, 12
64, 42
85, 44
37, 15
30, 23
515, 498
2746, 2427
1724, 1183
125, 107
20, 11
32, 29
135, 130
413, 386
232, 188
18, 21
8, 9
8, 6
7, 3
5, 6
8, 5
9, 5
7, 5
14, 5
5, 7
9, 6
8, 5
9, 9
12, 13
6, 1
0, 4
6, 7
7, 6
8, 8
3, 7
6, 3
6, 4
10, 3
8, 5
3, 2
5, 7
7, 9
4, 4
5, 3
4, 3
5, 6
10, 2
0, 1
3, 4
3, 5
4, 3
1, 2
4, 4
1, 3
5, 3
1, 5
2, 2
4, 1
3, 0
2, 3
2, 3
4, 1
4, 1
3, 5
3, 2
2, 3
4, 2
0, 0
2, 1
2, 3
1, 2
2, 1
2, 2
2, 2
0, 1
3, 0
1, 2
1, 2
1, 1
1, 2
0, 0
0, 2
1, 1
1, 0
0, 1
1, 2
2, 1
0, 0
0, 0
0, 0
0, 1
2, 0
0, 0
0, 1
1, 3
0, 1
2, 0
1, 2
1, 1
0, 0
1, 0
1, 0
0, 0
0, 0
0, 1
0, 0
0, 2
1, 0
0, 1
0, 0
1, 0
0, 0
0, 0
1, 0
0, 0
1, 0
1, 1
0, 1
0, 0
0, 1
0, 0
0, 0
0, 0
0, 1
0, 0
0, 0
0, 0
0, 0
0, 1
0, 0
0, 0
1, 0
0, 1
1, 0
0, 0
0, 0
0, 0
0, 0
1, 0
0, 0
0, 0
0, 1
0, 0
0, 0
0, 0
0, 0
0, 0
0, 0
0, 0
0, 0
0, 0
0, 0
0, 0
0, 0
0, 0
0, 0
0, 0
0, 0
0, 0
0, 0
0, 0
0, 0
0, 0
0, 0
1, 0
0, 0
0, 0
0, 0
0, 0
0, 0
0, 0
0, 0
0, 0
0, 0
0, 0
0, 0
0, 0
0, 0
0, 0
0, 0
0, 0
0, 0
0, 0
0, 0
0, 0
0, 0
0, 0
0, 0
0, 0
0, 0
0, 0
0, 0
0, 0
0, 0
0, 0
0, 0
0, 0
0, 0
0, 0
0, 0
0, 0
0, 0
0, 0
0, 0
0, 0
0, 0
0, 0
0, 0
0, 0
0, 0
0, 0
0, 0
0, 0
0, 0
0, 0
0, 0
0, 0
0, 0
0, 0
0, 0
0, 0
0, 0
0, 0
0, 0
0, 0
0, 0
0, 0
0, 0
0, 0
0, 0
0, 0
0, 0
0, 0
0, 0
0, 0
0, 0
0, 0
0, 0
0, 0
0, 0
0, 0
0, 0
0, 0
#ENDOFDATA     end of spectrum data

File: ps__0257_0689790785_000rfs_shot_3244.msa
#FORMAT      : EMSA/MAS spectral data file
#VERSION     : TC202v2.0 PIXL
#TITLE       : N/A
#DATE        :       Date in the format DD-MMM-YYYY, for example 07-JUL-2010
#TIME        :             The time of day at which the spectrum was recorded, in 24-hour format
#OWNER       : PIXL Flight Model       (PIXL will use this to indicate which instrument took the data.)
#NPOINTS     : 4096     Number of data points in the spectrum (This can be zero for configuration only files)
#NCOLUMNS    : 2     Number of data columns in the spectrum (This can be zero for configuration only files)
#XUNITS      : eV
#YUNITS      : COUNTS
#DATATYPE    : YY
#XPERCHAN    : 7.862, 7.881   eV per channel (separate by commas if more than one detector)
#OFFSET      : 18.5, -22.4         eV of first channel  (separate by commas if more than one detector
#SIGNALTYPE  : XRF
#YP_TEMP     : 3.133
#LIVETIME    : 9.06082, 9.07556   seconds (separate by commas if more than one detector)
#REALTIME    : 10, 10.0   seconds (separate by commas if more than one detector)
#SPECTRUM    : start of spectrum data
0, 0
0, 0
0, 0
0, 0
0, 0
0, 0
0, 0
1, 0
1, 2
1, 1
1, 0
29, 19
27, 24
5, 3
12, 3
104, 91
740, 671
123, 102
3, 9
1, 1
27, 18
166, 135
48, 34
31, 22
127, 128
106, 101
57, 50
19, 20
5, 4
1, 1
9, 7
3, 4
3, 2
52, 47
61, 57
13, 9
7, 11
17, 13
7, 12
8, 13
9, 9
10, 13
20, 26
18, 19
18, 11
10, 11
11, 3
7, 11
23, 13
22, 27
12, 27
9, 15
11, 16
58, 43
73, 78
26, 22
38, 24
472, 576
2582, 2534
1715, 1249
127, 71
41, 19
31, 28
121, 130
403, 407
246, 168
17, 18
6, 5
12, 10
4, 5
8, 5
4, 6
8, 5
8, 5
5, 5
5, 4
6, 6
7, 6
11, 6
4, 6
10, 4
6, 6
4, 5
3, 6
6, 3
4, 6
4, 7
7, 5
6, 7
5, 4
5, 4
5, 5
6, 3
2, 6
4, 2
5, 6
2, 7
2, 3
1, 3
2, 2
5, 1
2, 5
3, 3
4, 4
1, 5
2, 4
4, 3
5, 2
2, 5
7, 2
2, 1
5, 2
1, 0
0, 1
3, 3
8, 4
4, 9
3, 2
4, 3
1, 4
1, 2
1, 4
2, 2
1, 0
3, 3
2, 1
0, 0
1, 1
1, 2
0, 1
1, 2
1, 1
0, 0
1, 2
0, 1
0, 0
2, 2
1, 2
1, 1
1, 0
0, 0
0, 0
2, 0
1, 1
0, 1
0, 1
0, 0
0, 2
0, 0
0, 1
1, 2
0, 0
0, 0
1, 0
1, 2
0, 0
2, 1
0, 0
0, 0
0, 0
0, 0
0, 0
1, 0
0, 0
0, 0
0, 1
0, 1
0, 1
1, 0
1, 2
0, 0
0, 0
1, 0
1, 0
1, 0
0, 1
1, 1
0, 0
1, 0
0, 0
0, 0
0, 0
0, 0
0, 0
0, 2
0, 0
0, 0
0, 0
0, 0
0, 0
0, 0
0, 0
0, 0
0, 0
0, 0
0, 0
0, 1
0, 0
0, 0
0, 0
0, 0
0, 0
0, 0
0, 0
0, 0
0, 0
0, 0
0, 0
0, 0
0, 0
0, 0
0, 0
0, 0
0, 0
0, 0
0, 0
0, 0
0, 0
0, 0
0, 0
0, 0
0, 0
0, 0
0, 0
0, 0
0, 0
0, 0
0, 0
0, 0
0, 0
0, 0
0, 0
0, 0
0, 0
0, 0
0, 0
0, 0
0, 0
0, 0
0, 0
0, 0
0, 0
0, 0
0, 0
0, 0
0, 0
0, 0
0, 0
0, 0
0, 0
0, 0
0, 0
0, 0
0, 0
0, 0
0, 0
0, 0
0, 0
0, 0
0, 0
0, 0
0, 0
0, 0
0, 0
0, 0
0, 0
0, 0
0, 0
0, 0
0, 0
0, 0
0, 0
0, 0
0, 0
0, 0
0, 0
0, 0
0, 0
0, 0
0, 0
0, 0
0, 0
0, 0
0, 0
0, 0
0, 0
0, 0
0, 0
0, 0
0, 0
0, 0
0, 0
0, 0
0, 0
#ENDOFDATA     end of spectrum data

File: ps__0257_0689790785_000rfs_shot_3245.msa
#FORMAT      : EMSA/MAS spectral data file
#VERSION     : TC202v2.0 PIXL
#TITLE       : N/A
#DATE        :       Date in the format DD-MMM-YYYY, for example 07-JUL-2010
#TIME        :             The time of day at which the spectrum was recorded, in 24-hour format
#OWNER       : PIXL Flight Model       (PIXL will use this to indicate which instrument took the data.)
#NPOINTS     : 4096     Number of data points in the spectrum (This can be zero for configuration only files)
#NCOLUMNS    : 2     Number of data columns in the spectrum (This can be zero for configuration only files)
#XUNITS      : eV
#YUNITS      : COUNTS
#DATATYPE    : YY
#XPERCHAN    : 7.862, 7.881   eV per channel (separate by commas if more than one detector)
#OFFSET      : 18.5, -22.4         eV of first channel  (separate by commas if more than one detector
#SIGNALTYPE  : XRF
#YP_TEMP     : 3.069
#LIVETIME    : 9.06445, 9.07183   seconds (separate by commas if more than one detector)
#REALTIME    : 10, 10.0   seconds (separate by commas if more than one detector)
#SPECTRUM    : start of spectrum data
0, 0
0, 0
0, 0
0, 0
0, 0
0, 0
0, 0
0, 0
2, 1
6, 5
2, 2
20, 25
28, 32
1, 2
5, 6
101, 99
644, 660
92, 119
8, 3
3, 1
39, 26
244, 257
74, 68
42, 35
137, 154
125, 116
51, 42
20, 21
13, 7
6, 3
5, 7
8, 2
3, 8
43, 50
79, 73
5, 16
8, 20
16, 10
10, 9
8, 10
5, 5
17, 15
28, 22
18, 18
14, 7
21, 12
13, 16
9, 16
13, 13
20, 13
11, 16
9, 16
23, 13
77, 79
97, 75
20, 25
25, 35
468, 526
2502, 2651
1505, 1294
117, 81
16, 21
29, 22
97, 144
379, 414
228, 215
26, 10
11, 4
8, 10
7, 7
10, 6
5, 4
10, 6
3, 12
10, 7
5, 7
7, 3
8, 5
9, 9
6, 9
7, 4
2, 6
3, 3
4, 2
8, 7
7, 7
6, 6
9, 4
5, 3
6, 5
5, 1
4, 2
3, 5
8, 5
8, 4
3, 1
5, 4
6, 3
2, 5
3, 7
7, 6
6, 3
0, 6
2, 6
3, 3
4, 2
3, 4
3, 2
2, 3
2, 2
3, 2
7, 2
2, 2
2, 4
1, 3
5, 2
4, 3
4, 2
2, 3
3, 1
1, 2
1, 3
3, 0
1, 0
1, 1
1, 1
4, 1
0, 3
1, 1
3, 2
0, 1
1, 0
2, 0
0, 1
2, 3
0, 2
2, 0
0, 2
1, 2
0, 1
0, 1
1, 0
0, 0
0, 0
0, 0
0, 0
1, 0
1, 1
1, 0
0, 0
0, 0
1, 0
1, 1
1, 0
0, 1
0, 0
0, 0
0, 0
0, 0
1, 0
1, 1
0, 0
0, 0
1, 1
1, 0
0, 0
1, 1
0, 0
0, 0
1, 0
0, 0
0, 1
0, 0
1, 0
0, 0
1, 1
0, 0
0, 0
0, 0
0, 0
0, 0
0, 0
0, 0
0, 1
0, 0
0, 0
0, 0
0, 0
0, 0
0, 0
1, 0
0, 0
0, 0
0, 0
0, 0
0, 1
0, 0
0, 0
0, 0
0, 0
0, 0
0, 0
1, 0
0, 0
0, 0
0, 0
0, 0
0, 0
0, 0
0, 0
0, 0
0, 0
0, 0
0, 0
0, 0
0, 0
0, 0
0, 0
0, 0
0, 0
0, 0
0, 0
0, 0
0, 0
0, 0
0, 0
0, 0
0, 0
0, 0
0, 0
0, 0
0, 0
0, 0
0, 0
0, 0
0, 0
0, 0
0, 0
0, 0
0, 0
0, 0
0, 0
0, 0
0, 0
0, 0
0, 0
0, 0
0, 0
0, 0
0, 0
0, 0
0, 0
0, 0
0, 0
0, 0
0, 0
0, 0
0, 0
0, 0
0, 0
0, 0
0, 0
0, 0
0, 0
0, 0
0, 0
0, 0
0, 0
0, 0
0, 0
0, 0
0, 0
0, 0
0, 0
0, 0
0, 0
0, 0
0, 0
0, 0
0, 0
0, 0
0, 0
0, 0
0, 0
0, 0
0, 0
0, 0
0, 0
0, 0
0, 0
0, 0
0, 0
0, 0
0, 0
#ENDOFDATA     end of spectrum data

File: ps__0257_0689790785_000rfs_shot_3248.msa
#FORMAT      : EMSA/MAS spectral data file
#VERSION     : TC202v2.0 PIXL
#TITLE       : N/A
#DATE        :       Date in the format DD-MMM-YYYY, for example 07-JUL-2010
#TIME        :             The time of day at which the spectrum was recorded, in 24-hour format
#OWNER       : PIXL Flight Model       (PIXL will use this to indicate which instrument took the data.)
#NPOINTS     : 4096     Number of data points in the spectrum (This can be zero for configuration only files)
#NCOLUMNS    : 2     Number of data columns in the spectrum (This can be zero for configuration only files)
#XUNITS      : eV
#YUNITS      : COUNTS
#DATATYPE    : YY
#XPERCHAN    : 7.862, 7.881   eV per channel (separate by commas if more than one detector)
#OFFSET      : 18.5, -22.4         eV of first channel  (separate by commas if more than one detector
#SIGNALTYPE  : XRF
#YP_TEMP     : 2.941
#LIVETIME    : 9.07033, 9.03767   seconds (separate by commas if more than one detector)
#REALTIME    : 10, 10.0   seconds (separate by commas if more than one detector)
#SPECTRUM    : start of spectrum data
0, 0
0, 0
0, 0
0, 0
0, 0
0, 0
0, 0
1, 0
0, 3
2, 0
2, 2
24, 21
32, 31
5, 8
4, 10
75, 62
417, 440
77, 71
7, 6
2, 3
14, 10
92, 65
33, 19
18, 38
143, 128
108, 108
37, 41
33, 26
12, 12
7, 3
7, 10
6, 5
4, 8
85, 84
119, 141
18, 9
21, 19
25, 24
14, 17
4, 15
11, 10
13, 17
20, 26
21, 26
6, 7
14, 10
13, 8
12, 9
16, 21
11, 21
20, 9
9, 11
18, 18
78, 114
114, 122
38, 30
31, 41
460, 682
2539, 3015
1587, 1476
126, 104
21, 28
29, 53
122, 129
353, 456
221, 203
22, 22
6, 5
5, 5
6, 5
5, 4
8, 5
5, 5
7, 8
6, 6
5, 7
5, 3
5, 4
5, 7
5, 5
4, 6
2, 5
5, 6
5, 4
1, 5
7, 9
8, 0
6, 11
4, 6
7, 4
5, 5
6, 7
6, 6
6, 3
5, 3
1, 4
2, 2
6, 7
1, 3
2, 3
7, 3
3, 2
6, 3
2, 4
2, 2
1, 4
1, 2
8, 3
4, 2
3, 1
3, 5
1, 4
4, 0
1, 2
3, 3
2, 2
5, 10
4, 7
4, 1
0, 2
2, 4
2, 0
1, 3
0, 3
3, 2
1, 4
2, 1
1, 2
2, 1
3, 1
3, 2
1, 0
1, 2
1, 0
0, 0
0, 0
0, 1
2, 2
1, 1
0, 0
3, 0
1, 2
1, 0
1, 1
0, 0
1, 0
0, 1
0, 1
0, 0
0, 0
0, 1
0, 0
0, 0
0, 1
0, 1
0, 0
0, 0
0, 2
0, 1
0, 1
2, 0
0, 0
0, 0
0, 0
0, 0
0, 0
2, 0
0, 0
0, 0
1, 0
0, 0
0, 1
0, 1
0, 0
0, 0
0, 0
0, 0
0, 0
0, 0
0, 0
0, 0
0, 0
1, 0
1, 0
0, 1
0, 0
0, 0
0, 0
0, 1
0, 0
0, 0
0, 0
0, 0
1, 0
1, 0
0, 0
0, 0
0, 0
1, 0
0, 0
0, 0
0, 0
1, 0
0, 0
0, 0
0, 0
0, 0
0, 0
0, 0
0, 0
0, 0
0, 0
0, 0
0, 0
0, 0
0, 0
0, 0
0, 0
0, 0
0, 0
0, 0
0, 0
0, 0
0, 0
0, 0
0, 0
0, 0
0, 0
0, 0
0, 0
0, 0
0, 0
0, 0
0, 0
0, 0
0, 0
0, 0
0, 0
0, 0
0, 0
0, 0
0, 0
0, 0
0, 0
0, 0
0, 0
0, 0
0, 0
0, 0
0, 0
0, 0
0, 0
0, 0
0, 0
0, 0
0, 0
0, 0
0, 0
0, 0
0, 0
0, 0
0, 0
0, 0
0, 0
0, 0
0, 0
0, 0
0, 0
0, 0
0, 0
0, 0
0, 0
0, 0
0, 0
0, 0
0, 0
0, 0
0, 0
0, 0
0, 0
0, 0
0, 0
0, 0
0, 0
0, 0
0, 0
0, 0
0, 0
0, 0
0, 0
0, 0
0, 0
0, 0
0, 0
#ENDOFDATA     end of spectrum data

File: ps__0257_0689790785_000rfs_shot_3254.msa
#FORMAT      : EMSA/MAS spectral data file
#VERSION     : TC202v2.0 PIXL
#TITLE       : N/A
#DATE        :       Date in the format DD-MMM-YYYY, for example 07-JUL-2010
#TIME        :             The time of day at which the spectrum was recorded, in 24-hour format
#OWNER       : PIXL Flight Model       (PIXL will use this to indicate which instrument took the data.)
#NPOINTS     : 4096     Number of data points in the spectrum (This can be zero for configuration only files)
#NCOLUMNS    : 2     Number of data columns in the spectrum (This can be zero for configuration only files)
#XUNITS      : eV
#YUNITS      : COUNTS
#DATATYPE    : YY
#XPERCHAN    : 7.862, 7.881   eV per channel (separate by commas if more than one detector)
#OFFSET      : 18.5, -22.4         eV of first channel  (separate by commas if more than one detector
#SIGNALTYPE  : XRF
#YP_TEMP     : 3.326
#LIVETIME    : 8.89578, 8.97054   seconds (separate by commas if more than one detector)
#REALTIME    : 10, 10.0   seconds (separate by commas if more than one detector)
#SPECTRUM    : start of spectrum data
0, 0
0, 0
0, 0
0, 0
0, 0
0, 0
0, 0
1, 0
14, 4
37, 5
8, 3
32, 24
38, 43
5, 6
7, 2
62, 53
356, 347
62, 55
13, 1
4, 4
34, 44
278, 309
95, 68
82, 45
1689, 155
2644, 129
226, 36
26, 29
8, 9
3, 11
5, 3
1, 8
2, 3
47, 42
72, 73
8, 11
12, 6
21, 11
8, 4
5, 6
12, 10
24, 40
25, 94
13, 53
8, 6
6, 10
9, 11
3, 7
21, 16
9, 12
10, 8
9, 7
13, 17
75, 80
105, 111
35, 31
41, 44
601, 791
3276, 3719
2107, 1894
156, 128
69, 21
56, 30
171, 146
513, 524
306, 231
26, 21
4, 11
13, 6
4, 5
3, 3
7, 10
3, 14
8, 4
6, 4
4, 4
7, 7
6, 2
3, 4
5, 7
2, 2
2, 7
6, 4
9, 7
6, 14
4, 13
4, 4
2, 7
6, 4
2, 1
2, 1
1, 3
2, 3
2, 1
4, 1
3, 5
2, 3
5, 2
5, 0
9, 2
0, 1
4, 2
3, 1
2, 1
1, 2
2, 0
1, 1
1, 3
0, 1
1, 2
2, 1
0, 2
2, 1
2, 0
2, 1
2, 1
6, 13
4, 2
2, 2
0, 0
1, 1
1, 1
3, 2
2, 1
4, 1
3, 0
3, 0
0, 0
0, 1
2, 2
0, 0
2, 1
1, 0
0, 1
1, 2
2, 2
0, 0
0, 0
1, 1
0, 0
0, 1
1, 0
0, 1
0, 0
1, 0
0, 0
0, 1
0, 1
1, 1
0, 1
0, 0
0, 1
0, 0
0, 2
0, 0
0, 0
1, 1
1, 0
0, 0
1, 0
1, 1
0, 1
0, 0
0, 0
0, 0
0, 1
0, 0
0, 0
0, 0
1, 0
0, 1
0, 0
0, 0
0, 0
0, 0
0, 0
0, 0
0, 0
0, 0
0, 1
0, 0
0, 0
0, 0
0, 0
0, 0
0, 0
1, 0
0, 0
0, 0
0, 0
0, 0
0, 0
0, 0
0, 0
0, 0
0, 0
0, 0
0, 0
0, 0
1, 0
0, 0
0, 0
0, 0
0, 0
0, 0
0, 0
0, 0
0, 0
0, 0
0, 0
0, 0
0, 0
0, 0
0, 0
0, 0
0, 0
0, 0
0, 0
0, 0
0, 0
0, 0
0, 0
0, 0
0, 0
0, 0
0, 0
0, 0
0, 0
0, 0
0, 0
0, 0
0, 0
0, 0
0, 0
0, 0
0, 0
0, 0
0, 0
0, 0
0, 0
0, 0
0, 0
0, 0
0, 0
0, 0
0, 0
0, 0
0, 0
0, 0
0, 0
0, 0
0, 0
0, 0
0, 0
0, 0
0, 0
0, 0
0, 0
0, 0
0, 0
0, 0
0, 0
0, 0
0, 0
0, 0
0, 0
0, 0
0, 0
0, 0
0, 0
0, 0
0, 0
0, 0
0, 0
0, 0
0, 0
0, 0
0, 0
0, 0
0, 0
0, 0
0, 0
0, 0
0, 0
0, 0
0, 0
0, 0
0, 0
0, 0
0, 0
0, 0
0, 0
0, 0
0, 0
#ENDOFDATA     end of spectrum data