Folder: data-repository/host_upload/12-01-2023/Dourbes (shot-by-shot)/upload_4

Note: host_upload/readME.txt
10-30-2023:
(description: )

11-13-2023:
(description: )

12-01-2023:
(description: )

12-28-2023:
(description: BHVO-2 all sols upload)

File: ps__0257_0689790785_000rfs_shot_3003.msa
#FORMAT      : EMSA/MAS spectral data file
#VERSION     : TC202v2.0 PIXL
#TITLE       : N/A
#DATE        :       Date in the format DD-MMM-YYYY, for example 07-JUL-2010
#TIME        :             The time of day at which the spectrum was recorded, in 24-hour format
#OWNER       : PIXL Flight Model       (PIXL will use this to indicate which instrument took the data.)
#NPOINTS     : 4096     Number of data points in the spectrum (This can be zero for configuration only files)
#NCOLUMNS    : 2     Number of data columns in the spectrum (This can be zero for configuration only files)
#XUNITS      : eV
#YUNITS      : COUNTS
#DATATYPE    : YY
#XPERCHAN    : 7.862, 7.881   eV per channel (separate by commas if more than one detector)
#OFFSET      : 18.5, -22.4         eV of first channel  (separate by commas if more than one detector
#SIGNALTYPE  : XRF
#YP_TEMP     : 3.005
#LIVETIME    : 9.12943, 9.1403   seconds (separate by commas if more than one detector)
#REALTIME    : 10, 10.0   seconds (separate by commas if more than one detector)
#SPECTRUM    : start of spectrum data
0, 0
0, 0
0, 0
0, 0
0, 0
0, 0
0, 0
0, 1
3, 3
12, 3
3, 2
27, 21
26, 30
18, 17
30, 32
90, 102
668, 697
101, 115
39, 45
40, 42
14, 17
70, 92
32, 26
38, 40
362, 171
412, 91
98, 69
23, 22
9, 7
10, 7
50, 85
35, 35
33, 17
136, 192
210, 221
20, 24
32, 26
30, 37
9, 7
5, 13
15, 10
37, 40
23, 31
16, 18
9, 12
15, 18
19, 10
32, 11
41, 14
22, 13
12, 7
13, 13
10, 17
25, 30
34, 34
16, 25
20, 31
260, 357
1473, 1701
923, 906
86, 75
22, 14
30, 12
70, 115
270, 280
113, 121
16, 13
6, 6
17, 10
10, 6
2, 9
7, 9
10, 5
9, 10
8, 20
2, 7
9, 5
6, 6
9, 5
7, 11
3, 6
5, 5
7, 4
4, 13
7, 6
6, 7
5, 2
9, 8
5, 7
6, 2
4, 2
3, 6
6, 2
1, 7
5, 3
7, 2
2, 3
4, 3
6, 4
7, 2
5, 4
3, 1
2, 3
1, 8
1, 6
3, 2
5, 3
3, 1
3, 2
4, 2
5, 4
3, 3
2, 2
4, 2
4, 1
2, 3
2, 1
0, 1
0, 1
2, 0
1, 0
3, 1
2, 2
0, 0
0, 0
2, 1
0, 1
2, 1
3, 0
3, 1
0, 3
0, 0
1, 0
0, 0
2, 1
2, 1
1, 0
0, 2
2, 0
0, 2
1, 0
2, 0
2, 0
0, 2
1, 1
0, 0
0, 1
1, 1
0, 0
1, 0
0, 0
0, 1
0, 0
0, 0
1, 0
1, 1
1, 0
1, 1
0, 0
0, 0
0, 0
0, 0
0, 0
0, 0
1, 1
0, 0
0, 0
1, 0
0, 0
0, 0
0, 0
0, 1
0, 0
0, 0
0, 1
1, 0
0, 0
0, 0
0, 0
0, 0
0, 0
0, 0
0, 0
0, 0
0, 0
0, 0
0, 0
0, 0
0, 0
1, 1
0, 0
0, 0
0, 0
1, 0
0, 0
0, 0
0, 0
0, 0
0, 0
0, 0
0, 1
0, 0
0, 0
0, 0
1, 0
0, 0
0, 0
0, 0
0, 0
0, 0
0, 0
0, 0
0, 0
0, 0
0, 0
0, 0
0, 0
0, 0
0, 0
0, 0
0, 0
0, 0
0, 0
0, 0
0, 0
0, 0
0, 0
0, 0
0, 0
0, 0
0, 0
0, 0
0, 0
0, 0
0, 0
0, 0
0, 0
0, 0
0, 0
0, 0
0, 0
0, 0
0, 0
0, 0
0, 0
0, 0
0, 0
0, 0
0, 0
0, 0
0, 0
0, 0
0, 0
0, 0
0, 0
0, 0
0, 0
0, 0
0, 0
0, 0
0, 0
0, 0
0, 0
0, 0
0, 0
0, 0
0, 0
0, 0
0, 0
0, 0
0, 0
0, 0
0, 0
0, 0
0, 0
0, 0
0, 0
0, 0
0, 0
0, 0
0, 0
0, 0
0, 0
0, 0
0, 0
0, 0
0, 0
0, 0
0, 0
0, 0
0, 0
0, 0
0, 0
0, 0
#ENDOFDATA     end of spectrum data

File: ps__0257_0689790785_000rfs_shot_3004.msa
#FORMAT      : EMSA/MAS spectral data file
#VERSION     : TC202v2.0 PIXL
#TITLE       : N/A
#DATE        :       Date in the format DD-MMM-YYYY, for example 07-JUL-2010
#TIME        :             The time of day at which the spectrum was recorded, in 24-hour format
#OWNER       : PIXL Flight Model       (PIXL will use this to indicate which instrument took the data.)
#NPOINTS     : 4096     Number of data points in the spectrum (This can be zero for configuration only files)
#NCOLUMNS    : 2     Number of data columns in the spectrum (This can be zero for configuration only files)
#XUNITS      : eV
#YUNITS      : COUNTS
#DATATYPE    : YY
#XPERCHAN    : 7.862, 7.881   eV per channel (separate by commas if more than one detector)
#OFFSET      : 18.5, -22.4         eV of first channel  (separate by commas if more than one detector
#SIGNALTYPE  : XRF
#YP_TEMP     : 2.973
#LIVETIME    : 8.87715, 8.98292   seconds (separate by commas if more than one detector)
#REALTIME    : 10, 10.0   seconds (separate by commas if more than one detector)
#SPECTRUM    : start of spectrum data
0, 0
0, 0
0, 0
0, 0
0, 0
0, 0
0, 0
2, 1
14, 2
55, 4
5, 0
20, 17
16, 32
9, 11
11, 13
115, 102
605, 656
107, 98
9, 10
8, 5
12, 8
89, 109
32, 28
76, 22
1966, 129
3286, 107
263, 34
23, 19
5, 6
4, 5
16, 14
14, 5
7, 4
29, 46
33, 48
8, 14
19, 11
16, 8
5, 8
5, 4
7, 8
17, 23
18, 99
14, 44
11, 8
10, 8
8, 9
19, 5
13, 9
23, 16
14, 9
12, 6
10, 10
35, 61
99, 87
29, 35
30, 34
617, 743
3229, 3395
2158, 1823
175, 103
53, 10
82, 22
145, 167
500, 493
265, 251
26, 15
6, 4
5, 9
5, 7
1, 8
2, 18
2, 9
5, 3
3, 8
2, 1
2, 3
2, 1
2, 5
2, 8
7, 1
6, 5
11, 2
12, 3
11, 11
7, 7
5, 7
5, 1
2, 3
6, 4
2, 4
2, 3
5, 3
3, 2
4, 2
1, 2
4, 1
3, 3
10, 2
5, 3
6, 3
2, 5
3, 5
0, 2
1, 1
3, 1
2, 1
3, 0
1, 2
3, 1
1, 1
0, 2
4, 4
0, 1
3, 2
2, 2
6, 6
4, 4
2, 0
1, 0
3, 1
1, 1
1, 2
4, 3
2, 0
0, 0
1, 2
1, 1
0, 0
0, 0
0, 1
1, 1
0, 0
1, 1
1, 0
1, 1
0, 0
2, 1
0, 0
0, 2
1, 0
0, 0
1, 0
0, 0
1, 0
0, 0
0, 1
0, 1
0, 1
0, 0
0, 0
0, 1
1, 0
0, 0
1, 0
0, 0
1, 0
1, 0
0, 0
0, 0
0, 0
0, 1
0, 0
1, 0
1, 2
0, 0
0, 1
2, 0
1, 0
0, 0
0, 0
0, 0
0, 0
0, 0
0, 0
0, 1
0, 0
0, 0
0, 0
0, 0
0, 0
0, 0
0, 0
1, 0
1, 0
0, 0
0, 0
0, 0
0, 0
0, 1
0, 0
0, 0
0, 0
1, 0
0, 0
0, 0
0, 0
0, 0
0, 0
0, 0
0, 0
0, 0
0, 0
0, 0
0, 0
0, 0
0, 0
0, 0
0, 0
0, 0
0, 0
0, 0
0, 0
0, 0
0, 0
0, 0
0, 0
0, 0
0, 0
0, 0
0, 0
0, 0
0, 0
0, 0
0, 0
0, 0
0, 0
0, 0
0, 0
0, 0
0, 0
0, 0
0, 0
0, 0
0, 0
0, 0
0, 0
0, 0
0, 0
0, 0
0, 0
0, 0
0, 0
0, 0
0, 0
0, 0
0, 0
0, 0
0, 0
0, 0
0, 0
0, 0
0, 0
0, 0
0, 0
0, 0
0, 0
0, 0
0, 0
0, 0
0, 0
0, 0
0, 0
0, 0
0, 0
0, 0
0, 0
0, 0
0, 0
0, 0
0, 0
0, 0
0, 0
0, 0
0, 0
0, 0
0, 0
0, 0
0, 0
0, 0
0, 0
0, 0
0, 0
0, 0
0, 0
0, 0
0, 0
0, 0
0, 0
0, 0
0, 0
0, 0
0, 0
0, 0
#ENDOFDATA     end of spectrum data

File: ps__0257_0689790785_000rfs_shot_3005.msa
#FORMAT      : EMSA/MAS spectral data file
#VERSION     : TC202v2.0 PIXL
#TITLE       : N/A
#DATE        :       Date in the format DD-MMM-YYYY, for example 07-JUL-2010
#TIME        :             The time of day at which the spectrum was recorded, in 24-hour format
#OWNER       : PIXL Flight Model       (PIXL will use this to indicate which instrument took the data.)
#NPOINTS     : 4096     Number of data points in the spectrum (This can be zero for configuration only files)
#NCOLUMNS    : 2     Number of data columns in the spectrum (This can be zero for configuration only files)
#XUNITS      : eV
#YUNITS      : COUNTS
#DATATYPE    : YY
#XPERCHAN    : 7.862, 7.881   eV per channel (separate by commas if more than one detector)
#OFFSET      : 18.5, -22.4         eV of first channel  (separate by commas if more than one detector
#SIGNALTYPE  : XRF
#YP_TEMP     : 2.973
#LIVETIME    : 8.86028, 8.97215   seconds (separate by commas if more than one detector)
#REALTIME    : 10, 10.0   seconds (separate by commas if more than one detector)
#SPECTRUM    : start of spectrum data
0, 0
0, 0
0, 0
0, 0
0, 0
0, 0
0, 0
0, 0
15, 1
36, 2
11, 1
26, 19
30, 24
10, 3
8, 3
109, 104
704, 673
117, 110
6, 6
2, 1
20, 23
144, 146
54, 41
93, 18
2038, 146
3584, 122
290, 48
19, 17
7, 9
3, 9
4, 6
6, 4
2, 3
26, 29
41, 42
3, 9
11, 12
13, 10
6, 8
8, 6
9, 7
13, 31
16, 97
12, 56
12, 6
7, 5
8, 6
2, 5
9, 10
23, 10
14, 6
15, 8
10, 10
49, 67
99, 83
39, 41
34, 35
596, 737
3324, 3632
2053, 1783
192, 112
61, 10
81, 25
136, 146
508, 510
337, 226
30, 16
9, 3
8, 6
9, 2
4, 7
2, 16
3, 10
6, 5
5, 2
5, 1
1, 6
1, 8
5, 2
2, 4
4, 1
6, 2
9, 2
10, 4
9, 13
5, 10
2, 2
2, 3
6, 3
5, 3
0, 0
4, 3
0, 1
0, 2
4, 4
2, 1
1, 2
4, 2
14, 1
11, 0
3, 1
1, 2
1, 0
1, 1
1, 2
0, 2
3, 3
3, 1
3, 0
0, 2
3, 3
3, 4
2, 1
1, 1
1, 1
3, 4
2, 2
2, 4
1, 1
0, 0
3, 0
5, 5
4, 2
1, 4
0, 0
1, 2
1, 0
0, 0
1, 0
2, 1
1, 0
0, 1
1, 0
0, 3
1, 0
0, 0
1, 0
1, 0
0, 1
1, 0
1, 0
1, 0
0, 0
0, 1
0, 1
0, 0
0, 1
0, 1
0, 0
0, 0
0, 0
1, 0
1, 0
0, 0
0, 0
0, 1
0, 0
0, 0
0, 0
1, 0
0, 2
0, 1
0, 1
0, 1
0, 0
0, 0
0, 0
0, 0
0, 0
0, 0
1, 0
1, 0
1, 0
0, 0
0, 0
0, 0
0, 0
0, 0
0, 0
0, 0
0, 0
0, 0
0, 0
0, 0
1, 0
0, 0
0, 1
0, 0
0, 0
0, 0
0, 0
0, 0
0, 0
0, 0
0, 0
0, 0
0, 0
0, 0
0, 0
0, 0
0, 0
0, 0
0, 0
0, 0
0, 0
0, 0
0, 0
0, 0
0, 0
0, 0
0, 0
0, 0
0, 0
0, 0
0, 0
0, 0
0, 0
0, 0
0, 0
0, 0
0, 0
0, 0
0, 0
0, 0
0, 0
0, 0
0, 0
0, 0
0, 0
0, 0
0, 0
0, 0
0, 0
0, 0
0, 0
0, 0
0, 0
0, 0
0, 0
0, 0
0, 0
0, 0
0, 0
0, 0
0, 0
0, 0
0, 0
0, 0
0, 0
0, 0
0, 0
0, 0
0, 0
0, 0
0, 0
0, 0
0, 0
0, 0
0, 0
0, 0
0, 0
0, 0
0, 0
0, 0
0, 0
0, 0
0, 0
0, 0
0, 0
0, 0
0, 0
0, 0
0, 0
0, 0
0, 0
0, 0
0, 0
0, 0
0, 0
0, 0
0, 0
0, 0
0, 0
0, 0
0, 0
0, 0
0, 0
0, 0
0, 0
0, 0
0, 0
0, 0
0, 0
0, 0
#ENDOFDATA     end of spectrum data

File: ps__0257_0689790785_000rfs_shot_3008.msa
#FORMAT      : EMSA/MAS spectral data file
#VERSION     : TC202v2.0 PIXL
#TITLE       : N/A
#DATE        :       Date in the format DD-MMM-YYYY, for example 07-JUL-2010
#TIME        :             The time of day at which the spectrum was recorded, in 24-hour format
#OWNER       : PIXL Flight Model       (PIXL will use this to indicate which instrument took the data.)
#NPOINTS     : 4096     Number of data points in the spectrum (This can be zero for configuration only files)
#NCOLUMNS    : 2     Number of data columns in the spectrum (This can be zero for configuration only files)
#XUNITS      : eV
#YUNITS      : COUNTS
#DATATYPE    : YY
#XPERCHAN    : 7.862, 7.881   eV per channel (separate by commas if more than one detector)
#OFFSET      : 18.5, -22.4         eV of first channel  (separate by commas if more than one detector
#SIGNALTYPE  : XRF
#YP_TEMP     : 2.973
#LIVETIME    : 8.97723, 8.98521   seconds (separate by commas if more than one detector)
#REALTIME    : 10, 10.0   seconds (separate by commas if more than one detector)
#SPECTRUM    : start of spectrum data
0, 0
0, 0
0, 0
0, 0
0, 0
0, 0
0, 0
0, 1
1, 3
12, 3
1, 1
22, 24
23, 32
3, 4
5, 3
50, 60
369, 369
61, 65
4, 5
4, 2
39, 36
239, 278
91, 88
45, 32
471, 140
665, 140
83, 47
29, 29
16, 6
5, 5
9, 11
6, 7
5, 7
54, 41
77, 86
17, 10
10, 8
16, 17
12, 5
9, 6
5, 8
26, 22
25, 59
22, 40
10, 6
10, 9
7, 9
6, 8
14, 14
23, 23
14, 15
8, 15
9, 21
77, 99
112, 107
36, 34
43, 43
578, 756
3207, 3578
2124, 1914
192, 160
47, 21
55, 17
138, 161
464, 535
306, 271
31, 18
7, 9
6, 4
5, 5
6, 6
4, 9
4, 7
6, 7
3, 3
7, 5
2, 1
5, 7
5, 3
1, 7
4, 10
1, 5
1, 6
3, 4
1, 14
0, 14
4, 5
4, 4
3, 2
2, 4
1, 2
2, 2
0, 6
1, 1
2, 2
2, 6
3, 4
5, 2
9, 0
8, 2
5, 1
0, 3
3, 5
3, 1
2, 2
2, 0
0, 3
0, 0
0, 5
4, 1
1, 2
2, 2
2, 2
1, 0
1, 2
0, 4
7, 7
5, 2
2, 0
0, 1
1, 0
1, 1
2, 4
5, 3
0, 1
1, 3
1, 2
0, 0
1, 1
1, 2
0, 1
1, 1
0, 2
1, 1
1, 0
2, 1
1, 1
0, 0
0, 0
0, 0
1, 1
0, 0
0, 0
0, 0
0, 0
0, 0
1, 0
1, 0
1, 0
0, 0
0, 0
0, 0
0, 1
0, 0
0, 0
0, 0
0, 0
0, 0
1, 0
0, 0
0, 0
0, 0
0, 1
0, 0
0, 0
0, 0
0, 0
0, 0
0, 0
0, 0
1, 0
0, 0
1, 1
1, 1
0, 0
0, 0
0, 0
0, 0
0, 0
0, 0
0, 0
1, 0
0, 0
1, 0
0, 1
0, 0
0, 0
0, 0
0, 0
0, 0
0, 0
0, 0
0, 0
0, 0
0, 0
0, 0
0, 0
0, 0
0, 0
0, 0
0, 0
0, 0
0, 0
0, 0
0, 0
0, 0
0, 2
0, 0
0, 0
0, 0
0, 0
0, 0
0, 0
0, 0
0, 0
0, 0
1, 0
0, 0
0, 0
0, 0
0, 0
0, 0
0, 0
0, 0
0, 0
0, 0
0, 0
0, 0
0, 0
0, 0
0, 0
0, 0
0, 0
0, 0
0, 0
0, 0
0, 0
0, 0
0, 0
0, 0
0, 0
0, 0
0, 0
0, 0
0, 0
0, 0
0, 0
0, 0
0, 0
0, 0
0, 0
0, 0
0, 0
0, 0
0, 0
0, 0
0, 0
0, 0
0, 0
0, 0
0, 0
0, 0
0, 0
0, 0
0, 0
0, 0
0, 0
0, 0
0, 0
0, 0
0, 0
0, 0
0, 0
0, 0
0, 0
0, 0
0, 0
0, 0
0, 0
0, 0
0, 0
0, 0
0, 0
0, 0
0, 0
0, 0
0, 0
0, 0
0, 0
0, 0
0, 0
0, 0
0, 0
0, 0
#ENDOFDATA     end of spectrum data

File: ps__0257_0689790785_000rfs_shot_3009.msa
#FORMAT      : EMSA/MAS spectral data file
#VERSION     : TC202v2.0 PIXL
#TITLE       : N/A
#DATE        :       Date in the format DD-MMM-YYYY, for example 07-JUL-2010
#TIME        :             The time of day at which the spectrum was recorded, in 24-hour format
#OWNER       : PIXL Flight Model       (PIXL will use this to indicate which instrument took the data.)
#NPOINTS     : 4096     Number of data points in the spectrum (This can be zero for configuration only files)
#NCOLUMNS    : 2     Number of data columns in the spectrum (This can be zero for configuration only files)
#XUNITS      : eV
#YUNITS      : COUNTS
#DATATYPE    : YY
#XPERCHAN    : 7.862, 7.881   eV per channel (separate by commas if more than one detector)
#OFFSET      : 18.5, -22.4         eV of first channel  (separate by commas if more than one detector
#SIGNALTYPE  : XRF
#YP_TEMP     : 3.165
#LIVETIME    : 9.02946, 9.03164   seconds (separate by commas if more than one detector)
#REALTIME    : 10, 10.0   seconds (separate by commas if more than one detector)
#SPECTRUM    : start of spectrum data
0, 0
0, 0
0, 0
0, 0
0, 0
0, 0
0, 0
0, 0
2, 2
9, 1
3, 3
25, 20
29, 33
9, 2
9, 10
83, 80
573, 589
111, 94
6, 5
5, 8
37, 34
300, 277
74, 74
58, 41
256, 200
360, 178
64, 55
21, 19
8, 11
4, 6
10, 11
6, 4
2, 6
46, 52
79, 61
14, 10
19, 19
15, 13
11, 5
6, 5
5, 15
21, 27
29, 45
22, 27
9, 10
12, 18
9, 9
17, 9
12, 13
20, 12
10, 20
12, 5
14, 16
58, 85
83, 99
31, 20
40, 32
490, 694
2820, 3243
1811, 1637
163, 101
40, 17
36, 34
154, 149
415, 456
284, 216
26, 20
7, 10
15, 9
4, 4
6, 5
3, 3
5, 11
3, 5
11, 10
5, 2
10, 7
6, 1
2, 6
2, 7
10, 4
4, 5
2, 4
2, 4
5, 6
6, 6
6, 8
4, 4
7, 4
6, 2
2, 1
3, 4
1, 2
3, 3
3, 3
4, 4
4, 5
5, 3
7, 3
5, 0
1, 3
1, 3
0, 1
6, 1
2, 3
2, 3
1, 7
1, 4
1, 3
3, 3
2, 2
0, 2
2, 1
1, 3
2, 1
7, 3
3, 4
2, 5
4, 0
1, 1
2, 2
5, 4
0, 0
2, 4
0, 2
0, 2
3, 0
0, 0
0, 1
0, 2
0, 2
0, 0
0, 1
0, 0
0, 0
3, 2
0, 0
0, 1
0, 0
0, 0
1, 0
1, 1
0, 2
1, 0
0, 0
0, 1
0, 0
0, 0
0, 0
0, 0
0, 1
0, 0
0, 0
0, 0
0, 0
0, 0
0, 0
0, 1
0, 0
0, 0
0, 0
0, 1
0, 0
0, 0
1, 0
2, 0
0, 0
0, 1
0, 0
0, 1
0, 0
0, 0
0, 0
0, 1
0, 0
1, 0
0, 0
0, 0
0, 0
0, 0
0, 1
0, 0
0, 0
0, 0
0, 0
0, 0
0, 0
0, 0
0, 0
0, 0
0, 0
0, 0
1, 1
0, 0
0, 1
0, 0
0, 0
0, 0
0, 0
0, 0
0, 0
0, 0
0, 0
0, 0
0, 0
0, 0
0, 0
0, 0
1, 0
0, 0
0, 0
0, 0
0, 0
0, 0
0, 0
0, 0
0, 0
0, 0
0, 0
0, 0
0, 0
0, 0
0, 0
0, 0
0, 0
0, 0
0, 0
0, 0
0, 0
0, 0
0, 0
0, 0
0, 0
0, 0
0, 0
0, 0
0, 0
0, 0
0, 0
0, 0
0, 0
0, 0
0, 0
0, 0
0, 0
0, 0
0, 0
0, 0
0, 0
0, 0
0, 0
0, 0
0, 0
0, 0
0, 0
0, 0
0, 0
0, 0
0, 0
0, 0
0, 0
0, 0
0, 0
0, 0
0, 0
0, 0
0, 0
0, 0
0, 0
0, 0
0, 0
0, 0
0, 0
0, 0
0, 0
0, 0
0, 0
0, 0
0, 0
0, 0
0, 0
0, 0
0, 0
0, 0
0, 0
0, 0
0, 0
0, 0
0, 0
0, 0
0, 0
0, 0
0, 0
0, 0
#ENDOFDATA     end of spectrum data

File: ps__0257_0689790785_000rfs_shot_3010.msa
#FORMAT      : EMSA/MAS spectral data file
#VERSION     : TC202v2.0 PIXL
#TITLE       : N/A
#DATE        :       Date in the format DD-MMM-YYYY, for example 07-JUL-2010
#TIME        :             The time of day at which the spectrum was recorded, in 24-hour format
#OWNER       : PIXL Flight Model       (PIXL will use this to indicate which instrument took the data.)
#NPOINTS     : 4096     Number of data points in the spectrum (This can be zero for configuration only files)
#NCOLUMNS    : 2     Number of data columns in the spectrum (This can be zero for configuration only files)
#XUNITS      : eV
#YUNITS      : COUNTS
#DATATYPE    : YY
#XPERCHAN    : 7.862, 7.881   eV per channel (separate by commas if more than one detector)
#OFFSET      : 18.5, -22.4         eV of first channel  (separate by commas if more than one detector
#SIGNALTYPE  : XRF
#YP_TEMP     : 2.941
#LIVETIME    : 9.06902, 9.09153   seconds (separate by commas if more than one detector)
#REALTIME    : 10, 10.0   seconds (separate by commas if more than one detector)
#SPECTRUM    : start of spectrum data
0, 0
0, 0
0, 0
0, 0
0, 0
0, 0
0, 0
0, 1
2, 2
2, 6
3, 4
23, 18
29, 29
3, 4
9, 11
121, 111
734, 668
143, 99
8, 9
1, 2
4, 4
48, 55
14, 12
24, 32
179, 163
189, 137
46, 36
25, 27
9, 14
5, 1
8, 4
7, 6
4, 9
67, 67
106, 90
8, 15
17, 18
13, 18
9, 11
10, 7
14, 7
15, 13
34, 29
19, 15
11, 14
10, 8
11, 6
12, 11
17, 14
19, 11
19, 11
13, 9
13, 20
62, 61
83, 66
31, 27
32, 36
454, 479
2476, 2314
1585, 1239
165, 87
21, 19
25, 25
124, 115
345, 338
242, 197
21, 12
10, 13
12, 8
12, 9
4, 5
5, 3
7, 7
5, 9
14, 6
10, 3
10, 13
10, 5
6, 5
8, 4
8, 5
10, 5
7, 5
5, 2
4, 3
4, 3
6, 4
5, 4
5, 5
3, 6
0, 5
3, 4
5, 3
5, 2
5, 5
7, 5
3, 3
2, 3
6, 2
6, 2
2, 4
3, 3
5, 2
4, 5
4, 2
3, 1
2, 3
3, 1
2, 2
4, 2
2, 2
3, 3
4, 2
1, 0
3, 2
1, 1
4, 1
1, 2
2, 2
3, 2
2, 0
2, 2
3, 1
2, 1
0, 1
2, 1
2, 2
3, 1
0, 0
1, 0
2, 0
2, 0
1, 0
2, 0
1, 3
0, 1
0, 0
2, 0
1, 1
0, 0
0, 0
0, 1
0, 1
0, 1
0, 1
0, 0
0, 0
0, 0
0, 1
0, 0
1, 0
0, 0
0, 0
0, 1
2, 0
2, 0
0, 0
0, 0
0, 0
0, 0
0, 0
0, 2
1, 1
0, 0
1, 1
2, 0
0, 0
0, 0
0, 0
0, 0
0, 0
0, 0
1, 0
0, 0
0, 0
2, 2
0, 0
0, 0
0, 0
0, 0
1, 0
0, 0
0, 1
0, 1
0, 0
0, 1
0, 0
0, 0
0, 0
0, 0
0, 0
0, 0
0, 0
0, 0
0, 0
0, 0
0, 0
0, 0
0, 0
0, 0
0, 0
0, 0
0, 0
0, 0
0, 0
0, 0
0, 0
0, 0
0, 0
0, 0
0, 0
0, 0
0, 0
0, 0
0, 0
0, 0
0, 0
0, 0
0, 0
0, 0
1, 0
0, 0
0, 0
0, 0
0, 0
0, 0
0, 0
0, 0
0, 0
0, 0
0, 0
0, 0
0, 0
0, 0
0, 0
0, 0
0, 0
0, 0
0, 0
0, 0
0, 0
0, 0
0, 0
0, 0
0, 0
0, 0
0, 0
0, 0
0, 0
0, 0
0, 0
0, 0
0, 0
0, 0
0, 0
0, 0
0, 0
0, 0
0, 0
0, 0
0, 0
0, 0
0, 0
0, 0
0, 0
0, 0
0, 0
0, 0
0, 0
0, 0
0, 0
0, 0
0, 0
0, 0
0, 0
0, 0
0, 0
0, 0
0, 0
0, 0
0, 0
0, 0
0, 0
0, 0
0, 0
0, 0
0, 0
0, 0
0, 0
0, 0
0, 0
0, 0
0, 0
0, 0
#ENDOFDATA     end of spectrum data

File: ps__0257_0689790785_000rfs_shot_3012.msa
#FORMAT      : EMSA/MAS spectral data file
#VERSION     : TC202v2.0 PIXL
#TITLE       : N/A
#DATE        :       Date in the format DD-MMM-YYYY, for example 07-JUL-2010
#TIME        :             The time of day at which the spectrum was recorded, in 24-hour format
#OWNER       : PIXL Flight Model       (PIXL will use this to indicate which instrument took the data.)
#NPOINTS     : 4096     Number of data points in the spectrum (This can be zero for configuration only files)
#NCOLUMNS    : 2     Number of data columns in the spectrum (This can be zero for configuration only files)
#XUNITS      : eV
#YUNITS      : COUNTS
#DATATYPE    : YY
#XPERCHAN    : 7.862, 7.881   eV per channel (separate by commas if more than one detector)
#OFFSET      : 18.5, -22.4         eV of first channel  (separate by commas if more than one detector
#SIGNALTYPE  : XRF
#YP_TEMP     : 3.133
#LIVETIME    : 9.01974, 9.02411   seconds (separate by commas if more than one detector)
#REALTIME    : 10, 10.0   seconds (separate by commas if more than one detector)
#SPECTRUM    : start of spectrum data
0, 0
0, 0
0, 0
0, 0
0, 0
0, 0
0, 0
0, 0
2, 1
2, 3
3, 1
30, 30
39, 37
3, 1
5, 2
84, 58
508, 507
79, 67
2, 6
2, 2
42, 6
81, 35
16, 15
9, 9
38, 42
34, 45
33, 24
19, 12
3, 7
2, 2
2, 2
1, 5
4, 5
25, 38
46, 86
6, 14
17, 6
8, 9
2, 4
2, 4
6, 7
17, 12
15, 21
16, 15
4, 8
6, 8
10, 7
4, 5
10, 16
10, 67
12, 86
11, 44
17, 14
57, 49
72, 74
27, 21
37, 23
595, 693
3347, 3489
2044, 1723
183, 112
31, 15
44, 19
138, 145
475, 499
292, 251
24, 19
8, 10
7, 14
5, 7
3, 2
7, 1
1, 2
6, 1
5, 3
5, 2
3, 1
1, 2
5, 6
6, 5
5, 17
2, 11
6, 7
3, 5
4, 1
4, 4
6, 3
3, 4
4, 3
6, 3
1, 0
3, 2
2, 1
2, 3
3, 4
5, 5
3, 2
2, 2
4, 4
3, 12
2, 7
3, 6
1, 2
5, 2
1, 1
1, 1
2, 3
0, 1
2, 3
0, 3
1, 4
2, 2
6, 3
1, 1
2, 1
3, 2
4, 6
4, 4
1, 1
0, 1
1, 2
4, 2
3, 5
1, 2
3, 1
0, 0
1, 2
2, 0
1, 1
0, 1
1, 1
0, 0
1, 1
2, 0
1, 0
1, 1
1, 1
0, 2
0, 0
0, 0
1, 0
0, 0
0, 1
1, 1
1, 0
0, 0
0, 1
1, 0
0, 1
0, 0
0, 2
0, 0
0, 0
0, 0
0, 0
1, 0
0, 0
0, 0
0, 0
0, 0
0, 1
0, 2
0, 0
0, 1
0, 0
1, 0
0, 0
0, 0
0, 0
0, 0
1, 0
0, 0
1, 0
0, 0
0, 0
0, 0
1, 0
0, 0
0, 0
0, 1
0, 0
0, 0
0, 0
0, 0
0, 0
1, 0
0, 0
0, 0
0, 0
0, 0
0, 0
0, 0
0, 0
0, 0
0, 0
0, 0
0, 0
0, 0
0, 0
0, 0
0, 0
0, 0
0, 0
0, 0
0, 0
0, 0
1, 0
0, 0
0, 0
0, 0
0, 0
0, 0
0, 0
0, 0
0, 0
0, 0
0, 0
0, 0
0, 0
0, 0
0, 0
0, 0
0, 0
0, 0
0, 0
0, 0
0, 0
0, 0
0, 0
0, 0
0, 0
0, 0
0, 0
0, 0
0, 0
0, 0
0, 0
0, 0
0, 0
0, 0
0, 0
0, 0
0, 0
0, 0
0, 0
0, 0
0, 0
0, 0
0, 0
0, 0
0, 0
0, 0
0, 0
0, 0
0, 0
0, 0
0, 0
0, 0
0, 0
0, 0
0, 0
0, 0
0, 0
0, 0
0, 0
0, 0
0, 0
0, 0
0, 0
0, 0
0, 0
0, 0
0, 0
0, 0
0, 0
0, 0
0, 0
0, 0
0, 0
0, 0
0, 0
0, 0
0, 0
0, 0
0, 0
0, 0
0, 0
0, 0
0, 0
0, 0
0, 0
0, 0
0, 0
0, 0
#ENDOFDATA     end of spectrum data

File: ps__0257_0689790785_000rfs_shot_3013.msa
#FORMAT      : EMSA/MAS spectral data file
#VERSION     : TC202v2.0 PIXL
#TITLE       : N/A
#DATE        :       Date in the format DD-MMM-YYYY, for example 07-JUL-2010
#TIME        :             The time of day at which the spectrum was recorded, in 24-hour format
#OWNER       : PIXL Flight Model       (PIXL will use this to indicate which instrument took the data.)
#NPOINTS     : 4096     Number of data points in the spectrum (This can be zero for configuration only files)
#NCOLUMNS    : 2     Number of data columns in the spectrum (This can be zero for configuration only files)
#XUNITS      : eV
#YUNITS      : COUNTS
#DATATYPE    : YY
#XPERCHAN    : 7.862, 7.881   eV per channel (separate by commas if more than one detector)
#OFFSET      : 18.5, -22.4         eV of first channel  (separate by commas if more than one detector
#SIGNALTYPE  : XRF
#YP_TEMP     : 2.909
#LIVETIME    : 9.00079, 9.01326   seconds (separate by commas if more than one detector)
#REALTIME    : 10, 10.0   seconds (separate by commas if more than one detector)
#SPECTRUM    : start of spectrum data
0, 0
0, 0
0, 0
0, 0
0, 0
0, 0
0, 0
2, 0
1, 0
1, 0
0, 1
40, 34
49, 29
0, 2
6, 6
103, 69
538, 476
89, 76
3, 1
2, 4
58, 5
67, 19
11, 5
6, 5
26, 23
39, 36
16, 12
17, 7
4, 4
3, 2
3, 2
0, 1
3, 4
15, 18
26, 76
4, 16
6, 9
3, 7
1, 4
5, 3
7, 4
9, 15
15, 22
16, 18
9, 8
7, 5
10, 4
6, 5
5, 11
15, 67
14, 115
6, 48
7, 13
60, 55
91, 77
30, 23
44, 35
671, 703
3635, 3520
2343, 1871
210, 134
39, 16
39, 23
159, 159
544, 520
358, 253
27, 24
5, 9
11, 12
2, 6
7, 2
3, 3
3, 4
1, 2
3, 6
4, 3
3, 2
2, 6
3, 4
1, 2
6, 14
2, 8
6, 4
1, 3
1, 6
2, 5
1, 4
1, 3
1, 3
2, 1
1, 3
3, 3
2, 2
1, 3
0, 4
4, 3
0, 4
2, 1
1, 9
2, 4
3, 6
3, 4
2, 0
2, 2
2, 1
0, 0
1, 2
0, 2
1, 1
4, 4
1, 0
2, 1
3, 4
5, 0
3, 2
6, 3
1, 4
4, 6
2, 2
0, 3
1, 4
2, 1
1, 2
2, 1
0, 1
1, 2
1, 2
1, 1
0, 2
1, 1
0, 0
2, 2
1, 1
0, 1
0, 2
0, 0
1, 0
0, 0
1, 1
0, 0
0, 0
1, 2
2, 0
0, 0
1, 0
0, 2
0, 1
0, 0
1, 0
0, 0
2, 1
0, 0
0, 1
1, 0
0, 1
0, 0
0, 0
0, 0
0, 0
0, 0
0, 0
0, 0
0, 0
0, 0
2, 0
0, 0
0, 0
0, 0
0, 1
0, 0
2, 0
0, 0
0, 0
0, 0
1, 0
0, 0
0, 0
0, 0
0, 0
0, 0
0, 0
0, 0
0, 0
0, 1
0, 0
0, 0
0, 0
0, 0
0, 0
0, 0
0, 0
0, 0
0, 0
0, 0
0, 0
0, 0
0, 0
0, 0
0, 0
0, 0
0, 0
0, 0
0, 0
0, 0
0, 0
0, 0
0, 0
0, 1
0, 0
0, 0
0, 0
0, 0
0, 0
0, 0
0, 0
0, 0
0, 0
0, 0
0, 0
0, 0
0, 0
0, 0
0, 0
0, 0
0, 0
0, 0
0, 0
0, 0
0, 0
0, 0
0, 0
0, 0
0, 0
0, 0
0, 0
0, 0
0, 0
0, 0
0, 0
0, 0
0, 0
0, 0
0, 0
0, 0
0, 0
0, 0
0, 0
0, 0
0, 0
0, 0
0, 0
0, 0
0, 0
0, 0
0, 0
0, 0
0, 0
0, 0
0, 0
0, 0
0, 0
0, 0
0, 0
0, 0
0, 0
0, 0
0, 0
0, 0
0, 0
0, 0
0, 0
0, 0
0, 0
0, 0
0, 0
0, 0
0, 0
0, 0
0, 0
0, 0
0, 0
0, 0
0, 0
0, 0
0, 0
0, 0
0, 0
0, 0
0, 0
0, 0
0, 0
0, 0
0, 0
0, 0
#ENDOFDATA     end of spectrum data

File: ps__0257_0689790785_000rfs_shot_3014.msa
#FORMAT      : EMSA/MAS spectral data file
#VERSION     : TC202v2.0 PIXL
#TITLE       : N/A
#DATE        :       Date in the format DD-MMM-YYYY, for example 07-JUL-2010
#TIME        :             The time of day at which the spectrum was recorded, in 24-hour format
#OWNER       : PIXL Flight Model       (PIXL will use this to indicate which instrument took the data.)
#NPOINTS     : 4096     Number of data points in the spectrum (This can be zero for configuration only files)
#NCOLUMNS    : 2     Number of data columns in the spectrum (This can be zero for configuration only files)
#XUNITS      : eV
#YUNITS      : COUNTS
#DATATYPE    : YY
#XPERCHAN    : 7.862, 7.881   eV per channel (separate by commas if more than one detector)
#OFFSET      : 18.5, -22.4         eV of first channel  (separate by commas if more than one detector
#SIGNALTYPE  : XRF
#YP_TEMP     : 3.005
#LIVETIME    : 9.0073, 9.00256   seconds (separate by commas if more than one detector)
#REALTIME    : 10, 10.0   seconds (separate by commas if more than one detector)
#SPECTRUM    : start of spectrum data
0, 0
0, 0
0, 0
0, 0
0, 0
0, 0
0, 0
0, 0
1, 0
0, 1
1, 0
36, 33
45, 38
0, 4
3, 4
65, 73
481, 454
91, 67
6, 7
5, 3
57, 1
79, 8
5, 5
6, 2
12, 20
25, 28
14, 25
11, 8
3, 6
3, 1
4, 0
3, 1
1, 2
18, 20
22, 91
2, 28
6, 8
2, 7
4, 5
2, 3
2, 5
10, 9
21, 20
12, 10
2, 13
10, 4
8, 2
12, 4
9, 11
17, 105
11, 124
9, 41
11, 11
56, 68
91, 103
27, 28
30, 38
620, 744
3558, 3775
2302, 2010
172, 122
40, 13
29, 25
116, 156
522, 516
278, 239
26, 14
4, 8
9, 14
8, 3
3, 5
1, 2
2, 2
5, 6
9, 6
4, 0
2, 1
2, 6
5, 2
4, 4
1, 14
6, 13
4, 2
5, 2
4, 7
1, 3
2, 2
5, 6
3, 3
3, 1
4, 2
1, 0
3, 3
2, 4
3, 1
0, 5
3, 5
3, 2
0, 7
4, 13
2, 9
10, 2
6, 1
2, 2
2, 0
2, 3
1, 1
1, 3
1, 4
2, 3
2, 4
2, 3
2, 3
2, 2
1, 3
2, 4
11, 4
5, 7
2, 2
0, 1
0, 1
0, 2
2, 1
4, 4
0, 1
1, 1
1, 0
2, 2
1, 1
1, 0
0, 0
1, 1
1, 1
1, 0
0, 0
0, 0
0, 2
1, 0
0, 1
0, 0
0, 0
2, 0
0, 0
0, 1
0, 2
0, 1
1, 4
1, 0
1, 0
1, 0
1, 0
0, 0
0, 1
0, 0
0, 0
1, 0
1, 1
0, 0
0, 0
0, 0
0, 0
1, 0
0, 0
0, 0
0, 0
0, 0
0, 0
1, 0
2, 0
0, 0
0, 1
0, 2
1, 0
0, 0
0, 0
0, 0
0, 0
0, 0
1, 0
0, 0
0, 0
0, 0
1, 0
0, 1
1, 0
0, 0
0, 0
0, 0
0, 0
0, 0
0, 0
0, 0
0, 0
0, 0
0, 0
0, 0
0, 0
0, 0
0, 0
0, 0
0, 0
0, 0
1, 0
0, 0
0, 0
0, 1
0, 0
0, 0
0, 0
0, 0
0, 0
0, 1
0, 0
0, 0
0, 0
0, 0
0, 0
0, 0
0, 0
0, 0
0, 0
0, 0
0, 0
0, 0
0, 0
0, 0
0, 0
0, 0
0, 0
0, 0
0, 0
0, 0
0, 0
0, 0
0, 0
0, 0
0, 0
0, 0
0, 0
0, 0
0, 0
0, 0
0, 0
0, 0
0, 0
0, 0
0, 0
0, 0
0, 0
0, 0
0, 0
0, 0
0, 0
0, 0
0, 0
0, 0
0, 0
0, 0
0, 0
0, 0
0, 0
0, 0
0, 0
0, 0
0, 0
0, 0
0, 0
0, 0
0, 0
0, 0
0, 0
0, 0
0, 0
0, 0
0, 0
0, 0
0, 0
0, 0
0, 0
0, 0
0, 0
0, 0
0, 0
0, 0
0, 0
0, 0
0, 0
0, 0
0, 0
0, 0
0, 0
0, 0
0, 0
0, 0
#ENDOFDATA     end of spectrum data