Folder: data-repository/host_upload/12-01-2023/Dourbes (shot-by-shot)/upload_4 (part 2)

File: ps__0257_0689790785_000rfs_shot_3017.msa
#FORMAT      : EMSA/MAS spectral data file
#VERSION     : TC202v2.0 PIXL
#TITLE       : N/A
#DATE        :       Date in the format DD-MMM-YYYY, for example 07-JUL-2010
#TIME        :             The time of day at which the spectrum was recorded, in 24-hour format
#OWNER       : PIXL Flight Model       (PIXL will use this to indicate which instrument took the data.)
#NPOINTS     : 4096     Number of data points in the spectrum (This can be zero for configuration only files)
#NCOLUMNS    : 2     Number of data columns in the spectrum (This can be zero for configuration only files)
#XUNITS      : eV
#YUNITS      : COUNTS
#DATATYPE    : YY
#XPERCHAN    : 7.862, 7.881   eV per channel (separate by commas if more than one detector)
#OFFSET      : 18.5, -22.4         eV of first channel  (separate by commas if more than one detector
#SIGNALTYPE  : XRF
#YP_TEMP     : 2.941
#LIVETIME    : 9.01142, 8.98862   seconds (separate by commas if more than one detector)
#REALTIME    : 10, 10.0   seconds (separate by commas if more than one detector)
#SPECTRUM    : start of spectrum data
0, 0
0, 0
0, 0
0, 0
0, 0
0, 0
0, 0
1, 0
0, 0
2, 4
3, 2
35, 37
42, 40
0, 3
1, 5
74, 77
446, 483
82, 77
4, 3
4, 4
33, 2
38, 4
3, 2
1, 1
22, 21
32, 15
25, 12
8, 8
5, 2
3, 1
1, 4
3, 2
2, 0
17, 27
23, 61
3, 21
3, 3
5, 5
4, 4
4, 5
6, 6
4, 9
21, 15
21, 12
9, 2
14, 6
11, 8
7, 8
16, 13
10, 89
17, 152
11, 37
9, 13
59, 48
75, 105
24, 20
38, 34
627, 785
3409, 3785
2156, 1990
181, 135
29, 18
27, 32
144, 182
507, 577
293, 268
25, 19
3, 7
6, 16
4, 4
1, 7
2, 2
0, 4
5, 2
1, 9
2, 7
3, 5
2, 1
5, 1
5, 3
5, 9
1, 1
4, 3
3, 4
2, 2
1, 1
1, 6
2, 10
0, 7
4, 4
5, 1
3, 1
3, 4
1, 1
3, 0
4, 1
3, 3
3, 2
1, 8
1, 3
0, 11
2, 2
5, 2
5, 1
3, 0
1, 1
3, 0
0, 2
1, 2
1, 6
0, 1
1, 2
3, 2
1, 2
1, 0
3, 5
7, 8
4, 4
2, 1
1, 1
3, 1
6, 0
3, 2
1, 1
0, 1
0, 0
1, 1
0, 1
0, 0
0, 2
1, 0
0, 0
1, 1
0, 1
2, 0
2, 0
3, 1
0, 1
0, 0
0, 1
0, 1
1, 0
0, 0
0, 0
2, 0
0, 1
0, 0
0, 1
0, 1
0, 0
1, 1
0, 3
0, 0
1, 0
0, 0
1, 0
0, 0
1, 1
1, 1
1, 0
0, 1
0, 0
1, 0
1, 0
0, 0
0, 0
0, 1
0, 0
0, 1
0, 0
0, 1
0, 0
0, 0
0, 0
1, 0
0, 0
0, 0
0, 0
0, 0
0, 0
0, 0
0, 0
0, 0
0, 0
0, 0
0, 0
0, 0
0, 0
0, 0
0, 1
0, 0
0, 0
0, 0
0, 0
0, 0
0, 0
0, 0
0, 0
0, 0
0, 0
0, 0
0, 0
0, 0
0, 0
0, 0
0, 0
0, 0
1, 0
0, 0
0, 0
0, 0
0, 0
0, 0
0, 0
0, 0
0, 0
0, 0
0, 0
0, 0
1, 0
0, 0
0, 0
0, 0
0, 0
0, 0
0, 0
0, 0
0, 0
0, 0
0, 0
0, 0
0, 0
0, 0
0, 0
0, 0
0, 0
0, 0
0, 0
0, 0
0, 0
0, 0
0, 0
0, 0
0, 0
0, 0
0, 0
0, 0
0, 0
0, 0
0, 0
0, 0
0, 0
0, 0
0, 0
0, 0
0, 0
0, 0
0, 0
0, 0
0, 0
0, 0
0, 0
0, 0
0, 0
0, 0
0, 0
0, 0
0, 0
0, 0
0, 0
0, 0
0, 0
0, 0
0, 0
0, 0
0, 0
0, 0
0, 0
0, 0
0, 0
0, 0
0, 0
0, 0
0, 0
0, 0
0, 0
0, 0
0, 0
0, 0
0, 0
0, 0
0, 0
0, 0
0, 0
#ENDOFDATA     end of spectrum data

File: ps__0257_0689790785_000rfs_shot_3019.msa
#FORMAT      : EMSA/MAS spectral data file
#VERSION     : TC202v2.0 PIXL
#TITLE       : N/A
#DATE        :       Date in the format DD-MMM-YYYY, for example 07-JUL-2010
#TIME        :             The time of day at which the spectrum was recorded, in 24-hour format
#OWNER       : PIXL Flight Model       (PIXL will use this to indicate which instrument took the data.)
#NPOINTS     : 4096     Number of data points in the spectrum (This can be zero for configuration only files)
#NCOLUMNS    : 2     Number of data columns in the spectrum (This can be zero for configuration only files)
#XUNITS      : eV
#YUNITS      : COUNTS
#DATATYPE    : YY
#XPERCHAN    : 7.862, 7.881   eV per channel (separate by commas if more than one detector)
#OFFSET      : 18.5, -22.4         eV of first channel  (separate by commas if more than one detector
#SIGNALTYPE  : XRF
#YP_TEMP     : 2.909
#LIVETIME    : 9.01165, 8.99202   seconds (separate by commas if more than one detector)
#REALTIME    : 10, 10.0   seconds (separate by commas if more than one detector)
#SPECTRUM    : start of spectrum data
0, 0
0, 0
0, 0
0, 0
0, 0
0, 0
0, 0
0, 1
0, 0
1, 0
1, 0
24, 36
34, 38
3, 2
3, 4
75, 77
531, 491
76, 61
3, 7
2, 4
29, 2
63, 11
5, 6
5, 4
29, 21
24, 28
15, 14
11, 12
3, 6
4, 1
1, 1
3, 5
0, 3
19, 26
25, 44
1, 14
9, 5
7, 5
4, 3
2, 4
4, 6
10, 8
17, 13
16, 20
9, 6
5, 5
6, 12
9, 7
6, 19
13, 86
19, 170
10, 61
12, 14
65, 72
104, 105
26, 21
34, 34
590, 799
3444, 3940
2203, 2004
184, 128
36, 18
35, 15
132, 173
525, 558
287, 280
26, 20
5, 3
6, 5
9, 5
1, 6
6, 2
5, 3
3, 7
5, 4
1, 3
1, 3
1, 4
4, 2
7, 3
5, 18
6, 12
8, 5
5, 7
1, 5
3, 3
3, 7
1, 5
1, 1
0, 1
1, 5
2, 1
3, 5
3, 2
1, 3
3, 1
2, 3
2, 2
2, 6
1, 11
2, 13
3, 8
2, 3
3, 3
3, 0
2, 0
3, 1
1, 0
3, 3
0, 2
1, 2
1, 3
2, 6
1, 1
1, 1
2, 5
9, 4
10, 3
1, 0
0, 0
0, 2
2, 3
4, 2
0, 3
1, 0
1, 2
2, 1
0, 2
0, 1
0, 3
0, 0
0, 0
1, 3
0, 2
1, 1
0, 0
1, 0
1, 2
0, 1
0, 3
1, 1
0, 0
1, 0
0, 0
1, 0
1, 1
0, 2
0, 1
1, 0
1, 0
0, 1
3, 0
0, 0
0, 0
1, 0
0, 0
0, 2
0, 0
0, 0
1, 0
0, 0
0, 0
0, 0
1, 0
0, 0
0, 0
0, 0
0, 1
0, 1
0, 0
0, 0
0, 0
0, 0
1, 0
1, 1
0, 0
0, 0
0, 1
0, 1
0, 0
0, 1
0, 0
0, 0
0, 0
0, 0
0, 0
0, 0
0, 0
0, 0
0, 0
0, 0
0, 0
0, 0
0, 0
1, 0
0, 0
0, 0
0, 0
0, 0
0, 0
0, 0
0, 0
0, 0
0, 0
0, 0
0, 0
0, 0
0, 0
0, 0
0, 0
0, 0
0, 0
0, 0
0, 0
0, 1
0, 0
0, 0
0, 0
0, 0
0, 0
0, 0
0, 0
0, 0
0, 0
0, 0
0, 0
0, 0
0, 1
0, 0
0, 0
0, 0
0, 0
0, 0
0, 0
0, 0
0, 0
0, 0
0, 0
0, 0
0, 0
0, 0
0, 0
0, 0
0, 0
0, 0
0, 0
0, 0
0, 0
0, 0
0, 0
0, 0
0, 0
0, 0
0, 0
0, 0
0, 0
0, 0
0, 0
0, 0
0, 0
0, 0
0, 0
0, 0
0, 0
0, 0
0, 0
0, 0
0, 0
0, 0
0, 0
0, 0
0, 0
0, 0
0, 0
0, 0
0, 0
0, 0
0, 0
0, 0
0, 0
0, 0
0, 0
0, 0
0, 0
0, 0
0, 0
0, 0
0, 0
0, 0
0, 0
0, 0
0, 0
0, 0
0, 0
#ENDOFDATA     end of spectrum data

File: ps__0257_0689790785_000rfs_shot_3020.msa
#FORMAT      : EMSA/MAS spectral data file
#VERSION     : TC202v2.0 PIXL
#TITLE       : N/A
#DATE        :       Date in the format DD-MMM-YYYY, for example 07-JUL-2010
#TIME        :             The time of day at which the spectrum was recorded, in 24-hour format
#OWNER       : PIXL Flight Model       (PIXL will use this to indicate which instrument took the data.)
#NPOINTS     : 4096     Number of data points in the spectrum (This can be zero for configuration only files)
#NCOLUMNS    : 2     Number of data columns in the spectrum (This can be zero for configuration only files)
#XUNITS      : eV
#YUNITS      : COUNTS
#DATATYPE    : YY
#XPERCHAN    : 7.862, 7.881   eV per channel (separate by commas if more than one detector)
#OFFSET      : 18.5, -22.4         eV of first channel  (separate by commas if more than one detector
#SIGNALTYPE  : XRF
#YP_TEMP     : 3.069
#LIVETIME    : 9.0754, 9.07199   seconds (separate by commas if more than one detector)
#REALTIME    : 10, 10.0   seconds (separate by commas if more than one detector)
#SPECTRUM    : start of spectrum data
0, 0
0, 0
0, 0
0, 0
0, 0
0, 0
0, 0
0, 1
2, 1
2, 1
3, 3
16, 18
20, 30
2, 1
3, 4
116, 108
699, 710
120, 103
2, 7
1, 2
11, 4
47, 44
13, 15
11, 24
109, 94
95, 89
50, 41
23, 22
5, 6
5, 3
4, 4
5, 1
4, 3
36, 35
51, 47
9, 15
5, 10
10, 8
6, 8
4, 11
6, 12
18, 16
19, 16
11, 15
6, 5
8, 8
11, 5
10, 10
9, 14
19, 36
18, 49
15, 27
11, 15
48, 42
72, 77
32, 19
34, 28
446, 561
2540, 2707
1663, 1488
129, 101
18, 17
29, 41
102, 122
422, 433
220, 220
26, 18
7, 10
3, 13
10, 6
6, 6
3, 10
7, 12
3, 9
10, 6
4, 4
5, 6
9, 9
4, 5
12, 9
7, 7
4, 10
3, 6
3, 3
6, 6
3, 4
4, 3
5, 7
2, 3
5, 12
4, 7
4, 5
8, 5
6, 4
6, 6
1, 8
3, 1
2, 6
4, 7
4, 7
0, 6
1, 3
7, 5
5, 4
3, 2
6, 2
3, 0
2, 3
3, 5
3, 2
4, 3
3, 2
3, 1
2, 3
1, 3
2, 1
7, 4
4, 5
5, 3
0, 3
0, 2
2, 3
2, 0
1, 5
2, 1
2, 2
0, 1
2, 2
2, 0
2, 1
0, 1
0, 4
0, 0
0, 1
0, 0
1, 2
0, 0
2, 2
3, 1
2, 0
0, 1
0, 1
0, 0
0, 0
1, 1
1, 0
0, 1
0, 0
2, 0
0, 0
1, 1
0, 1
0, 0
1, 0
0, 0
0, 0
0, 0
0, 0
0, 0
0, 0
0, 1
0, 1
0, 0
0, 1
0, 1
0, 0
0, 0
0, 0
0, 0
0, 0
0, 0
1, 0
0, 0
1, 0
0, 0
0, 0
0, 1
0, 0
0, 0
0, 0
0, 0
0, 0
0, 0
0, 0
0, 0
0, 1
0, 0
0, 0
0, 0
0, 0
0, 0
0, 0
0, 0
0, 0
0, 0
0, 0
0, 0
0, 0
0, 0
0, 0
0, 0
0, 0
0, 0
0, 0
0, 0
0, 0
0, 0
0, 0
0, 0
0, 0
0, 0
0, 0
0, 0
0, 0
0, 0
0, 0
0, 0
0, 0
0, 0
0, 0
0, 0
0, 0
0, 0
0, 0
0, 0
0, 0
0, 0
0, 0
0, 0
0, 0
0, 0
0, 0
0, 0
0, 0
0, 0
0, 0
0, 0
0, 0
0, 0
0, 0
0, 0
0, 0
0, 0
0, 0
0, 0
0, 0
0, 0
0, 0
0, 0
0, 0
0, 0
0, 0
0, 0
0, 0
0, 0
0, 0
0, 0
0, 0
0, 0
0, 0
0, 0
0, 0
0, 0
0, 0
0, 0
0, 0
0, 0
0, 0
0, 0
0, 0
0, 0
0, 0
0, 0
0, 0
0, 0
0, 0
0, 0
0, 0
0, 0
0, 0
0, 0
0, 0
0, 0
0, 0
0, 0
0, 0
0, 0
0, 0
0, 0
0, 0
0, 0
0, 0
0, 0
0, 0
#ENDOFDATA     end of spectrum data

File: ps__0257_0689790785_000rfs_shot_3021.msa
#FORMAT      : EMSA/MAS spectral data file
#VERSION     : TC202v2.0 PIXL
#TITLE       : N/A
#DATE        :       Date in the format DD-MMM-YYYY, for example 07-JUL-2010
#TIME        :             The time of day at which the spectrum was recorded, in 24-hour format
#OWNER       : PIXL Flight Model       (PIXL will use this to indicate which instrument took the data.)
#NPOINTS     : 4096     Number of data points in the spectrum (This can be zero for configuration only files)
#NCOLUMNS    : 2     Number of data columns in the spectrum (This can be zero for configuration only files)
#XUNITS      : eV
#YUNITS      : COUNTS
#DATATYPE    : YY
#XPERCHAN    : 7.862, 7.881   eV per channel (separate by commas if more than one detector)
#OFFSET      : 18.5, -22.4         eV of first channel  (separate by commas if more than one detector
#SIGNALTYPE  : XRF
#YP_TEMP     : 3.198
#LIVETIME    : 9.05524, 9.0571   seconds (separate by commas if more than one detector)
#REALTIME    : 10, 10.0   seconds (separate by commas if more than one detector)
#SPECTRUM    : start of spectrum data
0, 0
0, 0
0, 0
0, 0
0, 0
0, 0
0, 0
0, 0
4, 3
0, 2
5, 2
28, 20
39, 24
5, 0
7, 6
108, 66
655, 513
93, 82
5, 2
2, 3
4, 10
36, 37
7, 5
25, 21
151, 136
88, 113
43, 44
23, 26
7, 14
6, 5
8, 8
3, 6
7, 9
54, 72
109, 114
19, 17
14, 15
16, 20
14, 4
7, 8
8, 8
15, 14
25, 19
15, 17
17, 12
21, 11
19, 7
7, 8
21, 13
20, 15
13, 16
17, 7
14, 13
64, 70
90, 76
37, 27
34, 23
513, 561
2900, 2696
1942, 1459
162, 79
28, 16
45, 36
138, 125
444, 439
260, 196
26, 19
7, 5
6, 11
6, 2
3, 3
5, 10
5, 5
3, 2
7, 5
11, 17
3, 9
3, 6
3, 4
5, 5
4, 3
6, 5
2, 5
7, 7
2, 6
8, 6
3, 9
4, 3
2, 5
6, 2
5, 5
5, 5
1, 2
4, 1
4, 4
5, 3
3, 3
6, 1
3, 2
2, 4
5, 3
2, 2
5, 2
2, 1
0, 0
2, 4
3, 4
2, 1
1, 2
2, 0
1, 2
1, 2
0, 2
4, 3
3, 3
5, 4
4, 6
5, 4
1, 1
2, 2
0, 2
1, 0
2, 0
1, 2
1, 0
2, 0
1, 2
2, 0
1, 1
2, 2
2, 0
0, 1
1, 1
0, 1
2, 0
3, 0
0, 0
2, 0
0, 0
0, 0
1, 1
1, 0
1, 1
0, 0
0, 2
2, 0
0, 1
1, 1
0, 0
0, 0
1, 0
1, 0
1, 0
0, 0
0, 1
0, 0
1, 0
1, 2
1, 0
0, 0
0, 0
1, 0
0, 0
0, 0
0, 0
0, 0
0, 0
0, 0
0, 1
1, 0
0, 0
1, 0
0, 0
0, 0
0, 0
0, 0
0, 0
1, 0
0, 0
0, 0
1, 0
1, 0
0, 0
0, 1
0, 1
0, 0
1, 0
0, 0
0, 0
1, 0
0, 0
0, 0
0, 0
0, 0
0, 0
0, 0
0, 0
0, 0
0, 0
0, 0
0, 0
0, 0
0, 0
0, 0
0, 0
0, 0
0, 0
0, 0
0, 0
0, 0
0, 0
0, 0
0, 0
0, 0
0, 0
0, 0
0, 0
0, 0
0, 0
0, 0
0, 0
0, 0
0, 0
0, 0
0, 0
0, 0
0, 0
0, 0
0, 0
0, 0
0, 0
0, 0
0, 0
0, 0
0, 0
0, 0
0, 0
0, 0
0, 0
0, 0
0, 0
0, 0
0, 0
0, 0
0, 0
0, 0
0, 0
0, 0
0, 0
0, 0
0, 0
0, 0
0, 0
0, 0
0, 0
0, 0
0, 0
0, 0
0, 0
0, 0
0, 0
0, 0
0, 0
0, 0
0, 0
0, 0
0, 0
0, 0
0, 0
0, 0
0, 0
0, 0
0, 0
0, 0
0, 0
0, 0
0, 0
0, 0
0, 0
0, 0
0, 0
0, 0
0, 0
0, 0
0, 0
0, 0
0, 0
0, 0
0, 0
0, 0
0, 0
0, 0
0, 0
0, 0
#ENDOFDATA     end of spectrum data

File: ps__0257_0689790785_000rfs_shot_3024.msa
#FORMAT      : EMSA/MAS spectral data file
#VERSION     : TC202v2.0 PIXL
#TITLE       : N/A
#DATE        :       Date in the format DD-MMM-YYYY, for example 07-JUL-2010
#TIME        :             The time of day at which the spectrum was recorded, in 24-hour format
#OWNER       : PIXL Flight Model       (PIXL will use this to indicate which instrument took the data.)
#NPOINTS     : 4096     Number of data points in the spectrum (This can be zero for configuration only files)
#NCOLUMNS    : 2     Number of data columns in the spectrum (This can be zero for configuration only files)
#XUNITS      : eV
#YUNITS      : COUNTS
#DATATYPE    : YY
#XPERCHAN    : 7.862, 7.881   eV per channel (separate by commas if more than one detector)
#OFFSET      : 18.5, -22.4         eV of first channel  (separate by commas if more than one detector
#SIGNALTYPE  : XRF
#YP_TEMP     : 2.909
#LIVETIME    : 8.9846, 8.98012   seconds (separate by commas if more than one detector)
#REALTIME    : 10, 10.0   seconds (separate by commas if more than one detector)
#SPECTRUM    : start of spectrum data
0, 0
0, 0
0, 0
0, 0
0, 0
0, 0
0, 0
0, 0
2, 1
3, 3
2, 4
25, 16
25, 27
2, 2
4, 8
104, 85
592, 570
106, 90
6, 6
2, 3
7, 6
38, 35
14, 16
22, 30
158, 146
108, 95
46, 38
25, 32
8, 7
5, 4
4, 4
3, 7
10, 7
83, 103
118, 152
13, 17
20, 21
27, 28
14, 8
7, 5
18, 14
21, 20
30, 29
26, 23
14, 14
27, 15
24, 18
11, 16
10, 23
22, 20
16, 14
15, 14
18, 23
77, 101
133, 116
35, 25
37, 55
577, 784
3517, 3849
2217, 1936
201, 117
30, 26
42, 45
139, 174
514, 552
307, 237
25, 25
6, 8
8, 7
6, 5
4, 6
8, 4
5, 9
5, 6
6, 7
7, 7
5, 5
6, 6
7, 5
8, 4
3, 7
2, 7
5, 5
5, 1
3, 5
3, 3
2, 3
2, 5
9, 4
4, 3
4, 4
3, 3
11, 7
2, 6
5, 4
2, 5
4, 1
0, 4
2, 6
4, 3
4, 3
5, 1
4, 0
6, 2
4, 3
2, 4
1, 3
3, 2
0, 1
5, 0
2, 5
5, 4
3, 2
3, 4
1, 2
5, 1
7, 1
2, 2
1, 2
0, 1
0, 0
4, 1
4, 4
1, 0
2, 0
3, 1
0, 1
3, 0
0, 2
0, 2
1, 0
3, 0
2, 1
0, 1
2, 1
0, 1
0, 1
0, 0
0, 1
3, 0
3, 1
1, 1
1, 0
0, 1
1, 1
1, 0
1, 0
0, 1
0, 1
0, 1
0, 0
0, 1
1, 0
0, 0
1, 0
1, 1
0, 0
0, 0
0, 0
0, 0
0, 0
1, 0
1, 0
0, 0
0, 0
0, 0
0, 0
0, 0
1, 0
1, 0
0, 0
0, 0
1, 0
0, 0
0, 2
0, 0
0, 0
0, 0
0, 0
0, 0
0, 0
0, 0
0, 0
0, 0
0, 0
1, 0
1, 0
0, 0
0, 0
0, 0
0, 1
0, 0
0, 0
0, 0
0, 0
0, 0
0, 0
0, 0
0, 0
0, 0
0, 0
1, 0
0, 0
0, 0
0, 0
0, 0
0, 0
0, 0
0, 0
0, 0
0, 0
0, 0
0, 0
0, 0
0, 0
0, 0
0, 0
0, 0
0, 0
0, 1
0, 0
0, 0
0, 0
0, 0
0, 0
0, 0
0, 0
0, 0
0, 0
0, 0
0, 0
0, 0
0, 0
0, 0
0, 0
0, 0
0, 0
0, 0
0, 0
0, 0
0, 0
0, 0
0, 0
0, 0
0, 0
0, 0
0, 0
0, 0
0, 0
0, 0
0, 0
0, 0
0, 0
0, 0
0, 0
0, 0
0, 0
0, 0
0, 0
0, 0
0, 0
0, 0
0, 0
0, 0
0, 0
0, 0
0, 0
0, 0
0, 0
0, 0
0, 0
0, 0
0, 0
0, 0
0, 0
0, 0
0, 0
0, 0
0, 0
0, 0
0, 0
0, 0
0, 0
0, 0
0, 0
0, 0
0, 0
0, 0
0, 0
0, 0
0, 0
0, 0
0, 0
0, 0
#ENDOFDATA     end of spectrum data

File: ps__0257_0689790785_000rfs_shot_3025.msa
#FORMAT      : EMSA/MAS spectral data file
#VERSION     : TC202v2.0 PIXL
#TITLE       : N/A
#DATE        :       Date in the format DD-MMM-YYYY, for example 07-JUL-2010
#TIME        :             The time of day at which the spectrum was recorded, in 24-hour format
#OWNER       : PIXL Flight Model       (PIXL will use this to indicate which instrument took the data.)
#NPOINTS     : 4096     Number of data points in the spectrum (This can be zero for configuration only files)
#NCOLUMNS    : 2     Number of data columns in the spectrum (This can be zero for configuration only files)
#XUNITS      : eV
#YUNITS      : COUNTS
#DATATYPE    : YY
#XPERCHAN    : 7.862, 7.881   eV per channel (separate by commas if more than one detector)
#OFFSET      : 18.5, -22.4         eV of first channel  (separate by commas if more than one detector
#SIGNALTYPE  : XRF
#YP_TEMP     : 2.909
#LIVETIME    : 8.99188, 8.99687   seconds (separate by commas if more than one detector)
#REALTIME    : 10, 10.0   seconds (separate by commas if more than one detector)
#SPECTRUM    : start of spectrum data
0, 0
0, 0
0, 0
0, 0
0, 0
0, 0
0, 0
0, 1
3, 2
3, 3
2, 3
21, 18
29, 25
3, 6
17, 13
107, 70
623, 509
106, 92
5, 5
4, 4
12, 19
92, 101
34, 40
31, 29
160, 162
116, 134
43, 39
28, 27
19, 11
5, 7
14, 10
8, 7
9, 9
87, 62
100, 110
15, 15
16, 16
16, 18
20, 10
15, 7
12, 14
29, 24
52, 25
22, 16
18, 4
9, 17
15, 17
14, 14
16, 21
24, 42
21, 15
20, 19
11, 16
74, 85
120, 87
34, 20
35, 33
607, 668
3178, 3320
2059, 1780
202, 123
21, 22
29, 37
140, 175
513, 524
288, 217
23, 19
2, 11
4, 6
7, 5
5, 5
7, 5
7, 11
6, 5
7, 6
8, 4
2, 8
5, 4
6, 3
9, 6
5, 4
4, 5
8, 7
4, 3
6, 6
1, 2
2, 5
2, 6
3, 3
6, 1
5, 4
4, 0
7, 3
7, 5
6, 0
5, 2
2, 3
0, 3
4, 3
6, 2
3, 3
3, 4
2, 2
0, 0
2, 3
2, 1
3, 1
2, 4
0, 4
1, 1
0, 1
1, 4
2, 4
2, 1
0, 4
6, 1
5, 10
8, 5
3, 2
0, 0
0, 1
3, 3
2, 0
0, 2
2, 1
0, 1
2, 0
2, 2
1, 1
0, 0
0, 0
0, 1
0, 0
1, 1
1, 0
0, 1
1, 0
1, 2
1, 0
0, 0
1, 1
1, 1
0, 0
2, 1
0, 1
0, 0
1, 1
0, 1
1, 0
2, 0
0, 1
0, 1
0, 1
0, 2
0, 1
1, 2
1, 1
0, 0
0, 0
1, 0
0, 1
0, 0
0, 1
0, 0
0, 0
0, 0
0, 0
0, 2
0, 0
0, 0
0, 1
0, 0
0, 0
0, 0
0, 0
0, 0
0, 0
0, 0
0, 0
0, 0
1, 1
0, 0
0, 0
2, 0
0, 0
0, 0
0, 0
0, 0
0, 0
0, 0
0, 0
0, 0
0, 0
0, 0
0, 0
0, 0
0, 0
0, 0
0, 0
0, 0
0, 0
0, 0
0, 1
0, 0
0, 0
0, 0
0, 1
0, 0
0, 0
0, 0
0, 0
0, 0
0, 0
0, 0
0, 0
0, 0
0, 0
0, 0
0, 0
0, 0
0, 0
0, 0
0, 0
0, 0
0, 0
0, 0
0, 0
0, 0
0, 0
0, 0
0, 0
0, 0
0, 0
0, 0
0, 0
0, 0
0, 0
0, 0
0, 0
0, 0
0, 0
0, 0
0, 0
0, 0
0, 0
0, 0
0, 0
0, 0
0, 0
0, 0
0, 0
0, 0
0, 0
0, 0
0, 0
0, 0
0, 0
0, 0
0, 0
0, 0
0, 0
0, 0
0, 0
0, 0
0, 0
0, 0
0, 0
0, 0
0, 0
0, 0
0, 0
0, 0
0, 0
0, 0
0, 0
0, 0
0, 0
0, 0
0, 0
0, 0
0, 0
0, 0
0, 0
0, 0
0, 0
0, 0
0, 0
0, 0
0, 0
0, 0
0, 0
0, 0
0, 0
0, 0
#ENDOFDATA     end of spectrum data

File: ps__0257_0689790785_000rfs_shot_3028.msa
#FORMAT      : EMSA/MAS spectral data file
#VERSION     : TC202v2.0 PIXL
#TITLE       : N/A
#DATE        :       Date in the format DD-MMM-YYYY, for example 07-JUL-2010
#TIME        :             The time of day at which the spectrum was recorded, in 24-hour format
#OWNER       : PIXL Flight Model       (PIXL will use this to indicate which instrument took the data.)
#NPOINTS     : 4096     Number of data points in the spectrum (This can be zero for configuration only files)
#NCOLUMNS    : 2     Number of data columns in the spectrum (This can be zero for configuration only files)
#XUNITS      : eV
#YUNITS      : COUNTS
#DATATYPE    : YY
#XPERCHAN    : 7.862, 7.881   eV per channel (separate by commas if more than one detector)
#OFFSET      : 18.5, -22.4         eV of first channel  (separate by commas if more than one detector
#SIGNALTYPE  : XRF
#YP_TEMP     : 2.973
#LIVETIME    : 9.11713, 9.11942   seconds (separate by commas if more than one detector)
#REALTIME    : 10, 10.0   seconds (separate by commas if more than one detector)
#SPECTRUM    : start of spectrum data
0, 0
0, 0
0, 0
0, 0
0, 0
0, 0
0, 0
0, 0
2, 0
2, 0
6, 2
9, 22
33, 29
29, 15
56, 48
103, 96
683, 652
132, 105
5, 7
3, 2
1, 2
12, 13
2, 4
17, 12
71, 115
62, 49
34, 30
20, 15
3, 4
6, 3
45, 35
25, 13
13, 9
49, 39
54, 37
10, 6
7, 13
19, 11
42, 15
12, 13
5, 7
17, 17
14, 15
11, 22
11, 10
13, 13
8, 9
5, 6
7, 9
16, 15
12, 13
6, 9
11, 12
34, 49
46, 76
27, 75
35, 42
437, 433
2189, 2085
1356, 1145
120, 88
18, 20
12, 38
67, 130
358, 355
227, 177
22, 11
5, 6
11, 5
4, 4
10, 6
4, 3
11, 8
5, 3
1, 5
7, 8
6, 3
11, 5
6, 6
4, 3
10, 4
4, 1
7, 2
5, 4
2, 9
7, 7
5, 8
5, 2
4, 9
7, 3
5, 2
6, 4
10, 0
6, 7
3, 1
4, 4
1, 4
2, 4
2, 3
6, 3
1, 3
3, 5
3, 6
1, 2
2, 2
3, 2
8, 2
3, 1
2, 2
3, 4
0, 1
1, 0
6, 1
3, 3
3, 1
1, 2
8, 2
4, 3
0, 3
2, 2
3, 0
1, 1
3, 1
3, 0
3, 1
1, 0
1, 0
1, 0
2, 0
2, 0
1, 1
3, 2
0, 1
0, 0
1, 2
0, 0
2, 0
2, 2
1, 1
1, 0
2, 0
0, 0
0, 1
0, 0
1, 1
1, 0
1, 2
1, 0
1, 2
0, 0
0, 0
1, 1
0, 0
2, 1
1, 0
1, 0
0, 0
0, 0
1, 0
0, 0
0, 0
0, 0
0, 1
1, 0
0, 0
0, 0
0, 1
0, 0
0, 0
1, 0
0, 0
0, 0
0, 0
0, 0
1, 0
0, 0
0, 0
0, 0
0, 0
0, 0
0, 1
0, 0
1, 0
0, 0
0, 0
0, 0
0, 0
0, 0
0, 0
0, 0
0, 0
1, 0
0, 0
1, 0
0, 0
0, 0
0, 0
0, 0
1, 0
0, 0
0, 0
0, 0
0, 0
0, 0
0, 0
0, 0
0, 0
0, 0
0, 0
0, 0
0, 0
0, 0
0, 0
0, 0
0, 1
0, 0
0, 0
0, 0
0, 0
0, 0
0, 0
0, 0
0, 0
0, 0
0, 0
0, 0
0, 0
0, 0
0, 0
0, 0
0, 0
0, 0
0, 0
0, 0
0, 0
0, 0
0, 0
0, 0
0, 0
0, 0
0, 0
0, 0
0, 0
0, 0
0, 0
0, 0
0, 0
0, 0
0, 0
0, 0
0, 0
0, 0
0, 0
0, 0
0, 0
0, 0
0, 0
0, 0
0, 0
0, 0
0, 0
0, 0
0, 0
0, 0
0, 0
0, 0
0, 0
0, 0
0, 0
0, 0
0, 0
0, 0
0, 0
0, 0
0, 0
0, 0
0, 0
0, 0
0, 0
0, 0
0, 0
0, 0
0, 0
0, 0
0, 0
0, 0
0, 0
0, 0
0, 0
0, 0
0, 0
0, 0
0, 0
0, 0
#ENDOFDATA     end of spectrum data

File: ps__0257_0689790785_000rfs_shot_3031.msa
#FORMAT      : EMSA/MAS spectral data file
#VERSION     : TC202v2.0 PIXL
#TITLE       : N/A
#DATE        :       Date in the format DD-MMM-YYYY, for example 07-JUL-2010
#TIME        :             The time of day at which the spectrum was recorded, in 24-hour format
#OWNER       : PIXL Flight Model       (PIXL will use this to indicate which instrument took the data.)
#NPOINTS     : 4096     Number of data points in the spectrum (This can be zero for configuration only files)
#NCOLUMNS    : 2     Number of data columns in the spectrum (This can be zero for configuration only files)
#XUNITS      : eV
#YUNITS      : COUNTS
#DATATYPE    : YY
#XPERCHAN    : 7.862, 7.881   eV per channel (separate by commas if more than one detector)
#OFFSET      : 18.5, -22.4         eV of first channel  (separate by commas if more than one detector
#SIGNALTYPE  : XRF
#YP_TEMP     : 3.133
#LIVETIME    : 9.08219, 9.08486   seconds (separate by commas if more than one detector)
#REALTIME    : 10, 10.0   seconds (separate by commas if more than one detector)
#SPECTRUM    : start of spectrum data
0, 0
0, 0
0, 0
0, 0
0, 0
0, 0
0, 0
0, 0
1, 3
1, 0
2, 1
20, 20
29, 23
18, 19
38, 33
94, 92
589, 630
92, 108
6, 7
3, 2
0, 5
28, 34
17, 8
22, 17
97, 133
91, 134
36, 46
25, 21
6, 9
6, 7
34, 30
18, 13
5, 10
35, 45
54, 46
5, 11
10, 5
12, 10
33, 10
6, 9
7, 10
13, 18
26, 21
16, 16
5, 12
18, 9
7, 10
8, 8
10, 7
5, 17
6, 11
12, 11
17, 8
39, 45
63, 108
29, 78
41, 34
434, 572
2422, 2486
1567, 1343
135, 83
13, 15
17, 32
96, 112
373, 402
203, 209
26, 23
3, 7
12, 7
9, 6
8, 3
8, 4
10, 5
7, 9
9, 5
6, 6
9, 3
12, 7
10, 7
10, 1
7, 4
2, 7
4, 4
4, 5
1, 2
5, 4
7, 9
6, 7
3, 5
3, 3
4, 2
5, 5
5, 6
4, 5
4, 5
3, 4
1, 3
3, 1
4, 2
4, 3
2, 1
2, 1
1, 3
2, 3
4, 6
1, 4
6, 4
5, 2
2, 3
2, 5
2, 0
2, 3
1, 4
8, 1
0, 3
4, 2
3, 5
2, 7
1, 5
1, 0
4, 1
1, 2
4, 3
0, 0
1, 1
0, 1
2, 0
3, 0
2, 0
0, 0
3, 2
0, 0
1, 0
1, 0
2, 0
0, 0
1, 0
0, 1
1, 0
1, 1
0, 0
1, 0
0, 1
0, 0
0, 0
0, 0
0, 0
0, 1
1, 0
0, 0
1, 0
0, 0
0, 0
0, 0
0, 1
0, 0
2, 1
0, 0
0, 1
0, 0
0, 1
0, 0
1, 0
0, 0
0, 0
0, 0
0, 0
1, 0
0, 0
0, 1
1, 0
1, 0
0, 0
0, 0
0, 1
0, 0
0, 0
0, 1
0, 1
0, 0
0, 0
0, 4
0, 0
0, 0
0, 0
0, 0
0, 0
1, 0
0, 0
0, 0
0, 0
0, 0
0, 0
0, 0
0, 0
0, 0
0, 1
0, 0
0, 0
0, 0
0, 0
0, 0
0, 0
0, 0
0, 0
0, 0
0, 0
0, 0
0, 0
0, 0
0, 0
0, 0
0, 0
0, 0
0, 0
0, 0
0, 0
0, 0
0, 0
0, 0
0, 0
0, 0
0, 0
0, 0
0, 0
0, 0
0, 0
0, 0
1, 0
0, 0
0, 0
0, 0
0, 0
0, 0
0, 0
0, 0
0, 0
0, 0
0, 0
0, 0
0, 0
0, 0
0, 0
0, 0
0, 0
0, 0
0, 0
0, 0
0, 0
0, 0
0, 0
0, 0
0, 0
0, 0
0, 0
0, 0
0, 0
0, 0
0, 0
0, 0
0, 0
0, 0
0, 0
0, 0
0, 0
0, 0
0, 0
0, 0
0, 0
0, 0
0, 0
0, 0
0, 0
0, 0
0, 0
0, 0
0, 0
0, 0
0, 0
0, 0
0, 0
0, 0
0, 0
0, 0
0, 0
0, 0
0, 0
0, 0
0, 0
0, 0
0, 0
0, 0
0, 0
0, 0
#ENDOFDATA     end of spectrum data

File: ps__0257_0689790785_000rfs_shot_3033.msa
#FORMAT      : EMSA/MAS spectral data file
#VERSION     : TC202v2.0 PIXL
#TITLE       : N/A
#DATE        :       Date in the format DD-MMM-YYYY, for example 07-JUL-2010
#TIME        :             The time of day at which the spectrum was recorded, in 24-hour format
#OWNER       : PIXL Flight Model       (PIXL will use this to indicate which instrument took the data.)
#NPOINTS     : 4096     Number of data points in the spectrum (This can be zero for configuration only files)
#NCOLUMNS    : 2     Number of data columns in the spectrum (This can be zero for configuration only files)
#XUNITS      : eV
#YUNITS      : COUNTS
#DATATYPE    : YY
#XPERCHAN    : 7.862, 7.881   eV per channel (separate by commas if more than one detector)
#OFFSET      : 18.5, -22.4         eV of first channel  (separate by commas if more than one detector
#SIGNALTYPE  : XRF
#YP_TEMP     : 3.326
#LIVETIME    : 9.00758, 9.00088   seconds (separate by commas if more than one detector)
#REALTIME    : 10, 10.0   seconds (separate by commas if more than one detector)
#SPECTRUM    : start of spectrum data
0, 0
0, 0
0, 0
0, 0
0, 0
0, 0
0, 1
0, 0
1, 3
5, 1
2, 2
20, 17
28, 24
13, 9
14, 26
70, 65
386, 388
63, 38
0, 3
1, 1
4, 6
18, 25
7, 7
21, 23
138, 177
130, 174
38, 48
28, 35
14, 13
8, 4
18, 19
10, 11
9, 4
50, 55
104, 72
6, 5
10, 4
9, 20
9, 11
6, 4
9, 8
35, 33
31, 30
29, 19
7, 9
11, 10
14, 10
8, 15
10, 10
24, 25
23, 11
12, 13
19, 22
67, 79
94, 96
28, 27
46, 29
594, 784
3385, 3554
2209, 1846
176, 123
29, 13
28, 27
155, 170
497, 533
319, 254
34, 14
1, 2
3, 5
3, 8
2, 10
6, 7
7, 4
7, 6
7, 6
3, 5
2, 2
0, 4
5, 5
4, 1
6, 6
5, 4
5, 7
3, 1
4, 6
4, 9
4, 3
1, 1
10, 5
1, 2
3, 7
6, 2
6, 2
8, 4
1, 2
1, 2
3, 4
5, 3
2, 4
1, 7
1, 3
1, 7
0, 2
4, 6
2, 3
0, 4
3, 1
0, 1
1, 0
2, 1
2, 3
2, 1
5, 2
6, 8
3, 0
1, 4
3, 9
0, 3
1, 2
1, 4
2, 0
0, 1
1, 6
2, 2
1, 3
1, 0
1, 0
0, 2
1, 1
2, 1
0, 2
0, 1
0, 0
1, 2
0, 0
2, 3
1, 1
2, 2
3, 1
1, 0
1, 0
0, 0
1, 1
0, 0
1, 0
0, 1
0, 1
0, 0
0, 1
0, 0
0, 0
0, 0
0, 0
2, 0
0, 0
0, 0
0, 0
0, 0
1, 0
0, 0
0, 0
0, 0
0, 0
1, 0
0, 0
0, 1
0, 0
0, 0
0, 0
0, 0
0, 1
2, 0
0, 0
0, 0
0, 0
0, 1
0, 1
0, 0
1, 0
0, 0
0, 0
0, 0
0, 0
0, 1
0, 0
1, 0
0, 0
0, 0
0, 0
1, 0
0, 0
0, 0
0, 0
0, 2
0, 0
0, 0
0, 0
0, 0
0, 0
0, 0
0, 0
0, 0
0, 0
0, 0
0, 0
1, 0
0, 0
0, 0
0, 0
0, 0
0, 0
0, 0
0, 0
0, 0
0, 0
0, 0
0, 0
0, 0
0, 0
0, 0
0, 0
0, 0
0, 0
0, 0
0, 0
0, 0
0, 0
0, 0
0, 0
0, 0
0, 0
0, 0
0, 0
0, 0
0, 0
0, 0
0, 0
0, 0
0, 0
0, 0
0, 0
0, 0
0, 0
0, 0
0, 0
0, 0
0, 0
0, 0
0, 0
0, 0
0, 0
0, 0
0, 0
0, 0
0, 0
0, 0
0, 0
0, 0
0, 0
0, 0
0, 0
0, 0
0, 0
0, 0
0, 0
0, 0
0, 0
0, 0
0, 0
0, 0
0, 0
0, 0
0, 0
0, 0
0, 0
0, 0
0, 0
0, 0
0, 0
0, 0
0, 0
0, 0
0, 0
0, 0
0, 0
0, 0
0, 0
0, 0
0, 0
0, 0
0, 0
0, 0
0, 0
0, 0
#ENDOFDATA     end of spectrum data