Folder: data-repository/host_upload/12-01-2023/Dourbes (shot-by-shot)/upload_4 (part 17)

File: ps__0257_0689790785_000rfs_shot_3302.msa
#FORMAT      : EMSA/MAS spectral data file
#VERSION     : TC202v2.0 PIXL
#TITLE       : N/A
#DATE        :       Date in the format DD-MMM-YYYY, for example 07-JUL-2010
#TIME        :             The time of day at which the spectrum was recorded, in 24-hour format
#OWNER       : PIXL Flight Model       (PIXL will use this to indicate which instrument took the data.)
#NPOINTS     : 4096     Number of data points in the spectrum (This can be zero for configuration only files)
#NCOLUMNS    : 2     Number of data columns in the spectrum (This can be zero for configuration only files)
#XUNITS      : eV
#YUNITS      : COUNTS
#DATATYPE    : YY
#XPERCHAN    : 7.862, 7.881   eV per channel (separate by commas if more than one detector)
#OFFSET      : 18.5, -22.4         eV of first channel  (separate by commas if more than one detector
#SIGNALTYPE  : XRF
#YP_TEMP     : 3.037
#LIVETIME    : 9.00446, 9.0088   seconds (separate by commas if more than one detector)
#REALTIME    : 10, 10.0   seconds (separate by commas if more than one detector)
#SPECTRUM    : start of spectrum data
0, 0
0, 0
0, 0
0, 0
0, 0
0, 0
0, 0
0, 0
1, 1
1, 2
3, 4
36, 17
32, 30
5, 8
7, 6
80, 68
516, 446
107, 74
7, 5
6, 2
1, 2
8, 5
5, 10
12, 10
48, 53
56, 52
38, 63
19, 30
6, 5
1, 2
5, 2
0, 2
15, 3
33, 37
42, 66
10, 10
7, 16
15, 8
11, 6
4, 9
10, 14
37, 43
38, 35
40, 18
22, 11
11, 8
10, 12
6, 7
13, 9
23, 9
17, 18
13, 17
17, 29
67, 81
110, 82
36, 20
57, 45
669, 717
3732, 3533
2319, 1706
172, 108
22, 22
34, 36
165, 138
496, 516
346, 233
29, 16
8, 8
11, 6
15, 2
7, 0
5, 12
6, 6
7, 7
8, 0
6, 4
2, 3
5, 1
2, 5
7, 3
1, 1
5, 5
5, 5
5, 6
5, 4
2, 6
6, 4
4, 10
5, 4
3, 4
5, 3
2, 2
4, 2
3, 2
2, 5
5, 3
2, 2
3, 2
5, 2
2, 2
4, 2
1, 2
0, 3
0, 4
1, 3
2, 4
0, 0
4, 2
2, 1
1, 0
2, 1
2, 1
3, 1
3, 1
2, 1
2, 1
7, 6
2, 8
2, 0
1, 1
1, 0
1, 1
2, 3
0, 4
2, 0
2, 0
2, 0
1, 1
1, 0
2, 2
1, 0
4, 1
1, 1
0, 1
0, 0
0, 1
0, 0
0, 1
0, 1
0, 0
0, 0
1, 2
0, 0
0, 0
1, 0
0, 0
0, 0
0, 1
0, 0
0, 0
0, 0
1, 0
0, 0
0, 0
1, 0
0, 1
0, 1
0, 0
0, 1
0, 0
0, 0
0, 0
1, 1
1, 0
0, 0
1, 1
0, 0
1, 0
1, 1
0, 1
1, 0
0, 1
0, 1
0, 0
0, 0
0, 1
0, 0
0, 0
0, 1
0, 0
0, 0
0, 0
0, 0
0, 0
0, 0
0, 0
0, 0
0, 0
0, 0
0, 0
0, 0
0, 0
0, 1
1, 0
0, 0
0, 0
0, 0
0, 0
0, 0
0, 0
0, 0
0, 0
0, 0
0, 0
0, 0
0, 0
0, 0
0, 0
1, 0
1, 0
0, 0
0, 0
0, 0
0, 0
0, 0
0, 0
0, 0
0, 0
0, 0
0, 0
0, 0
0, 0
0, 0
0, 0
0, 0
0, 0
0, 0
0, 0
0, 0
0, 0
0, 0
0, 0
0, 0
0, 0
0, 0
0, 0
0, 0
0, 0
0, 0
0, 0
0, 0
0, 0
0, 0
0, 0
0, 0
0, 0
0, 0
0, 0
0, 0
0, 0
0, 0
0, 0
0, 0
0, 0
0, 0
0, 0
0, 0
0, 0
0, 0
0, 0
0, 0
0, 0
0, 0
0, 0
0, 0
0, 0
0, 0
0, 0
0, 0
0, 0
0, 0
0, 0
0, 0
0, 0
0, 0
0, 0
0, 0
0, 0
0, 0
0, 0
0, 0
0, 0
0, 0
0, 0
0, 0
0, 0
0, 0
0, 0
0, 0
0, 0
0, 0
0, 0
0, 0
0, 0
#ENDOFDATA     end of spectrum data

File: ps__0257_0689790785_000rfs_shot_3303.msa
#FORMAT      : EMSA/MAS spectral data file
#VERSION     : TC202v2.0 PIXL
#TITLE       : N/A
#DATE        :       Date in the format DD-MMM-YYYY, for example 07-JUL-2010
#TIME        :             The time of day at which the spectrum was recorded, in 24-hour format
#OWNER       : PIXL Flight Model       (PIXL will use this to indicate which instrument took the data.)
#NPOINTS     : 4096     Number of data points in the spectrum (This can be zero for configuration only files)
#NCOLUMNS    : 2     Number of data columns in the spectrum (This can be zero for configuration only files)
#XUNITS      : eV
#YUNITS      : COUNTS
#DATATYPE    : YY
#XPERCHAN    : 7.862, 7.881   eV per channel (separate by commas if more than one detector)
#OFFSET      : 18.5, -22.4         eV of first channel  (separate by commas if more than one detector
#SIGNALTYPE  : XRF
#YP_TEMP     : 3.069
#LIVETIME    : 8.99671, 8.98408   seconds (separate by commas if more than one detector)
#REALTIME    : 10, 10.0   seconds (separate by commas if more than one detector)
#SPECTRUM    : start of spectrum data
0, 0
0, 0
0, 0
0, 0
0, 0
0, 0
0, 0
2, 0
1, 1
2, 1
0, 2
27, 20
32, 48
8, 5
9, 10
104, 89
509, 547
123, 88
12, 17
16, 5
3, 2
6, 5
4, 6
4, 11
51, 64
60, 51
44, 40
21, 22
5, 3
3, 3
6, 6
6, 5
11, 9
50, 47
69, 79
11, 12
13, 8
10, 6
5, 8
5, 10
14, 11
22, 43
33, 35
30, 16
11, 6
12, 14
10, 24
15, 12
8, 11
20, 23
15, 16
17, 10
12, 29
76, 74
98, 103
26, 30
48, 51
669, 790
3553, 3848
2171, 1865
160, 131
29, 41
42, 43
156, 200
490, 562
317, 247
21, 17
5, 7
9, 4
9, 2
8, 2
6, 5
9, 1
7, 8
3, 4
8, 7
4, 1
2, 7
3, 5
3, 3
2, 6
6, 1
5, 4
7, 2
7, 4
2, 6
3, 5
2, 4
5, 2
3, 0
3, 2
4, 6
3, 3
2, 4
3, 1
5, 4
1, 4
3, 4
1, 2
3, 7
1, 5
0, 2
1, 3
1, 1
3, 2
4, 1
1, 2
4, 3
0, 1
2, 3
0, 0
0, 3
3, 4
1, 2
2, 4
1, 2
7, 6
4, 1
2, 1
2, 0
4, 1
3, 2
3, 2
1, 1
1, 0
0, 4
0, 2
0, 0
0, 0
0, 0
1, 2
1, 1
3, 1
1, 0
1, 1
0, 0
0, 1
0, 0
0, 0
0, 0
0, 2
0, 1
0, 0
0, 0
1, 1
1, 0
0, 1
2, 0
0, 0
1, 0
1, 0
0, 0
2, 0
0, 0
0, 0
0, 1
0, 1
0, 0
1, 1
2, 1
0, 0
0, 0
0, 0
1, 1
0, 0
0, 2
0, 1
1, 1
0, 1
1, 0
0, 0
0, 0
0, 1
2, 0
0, 0
0, 0
0, 1
0, 0
0, 0
0, 0
0, 0
0, 0
1, 0
0, 1
0, 0
0, 0
0, 1
0, 0
0, 0
0, 1
0, 0
0, 0
0, 0
0, 0
0, 0
0, 1
0, 0
0, 0
0, 0
0, 0
0, 0
0, 0
0, 0
0, 0
0, 0
0, 0
0, 0
0, 0
0, 0
0, 0
0, 0
0, 0
0, 0
1, 0
0, 0
0, 0
0, 0
0, 0
0, 0
0, 0
0, 0
0, 0
0, 0
0, 0
0, 0
0, 0
0, 0
0, 0
0, 0
0, 0
0, 0
0, 0
0, 0
0, 0
0, 0
0, 0
0, 0
0, 0
0, 0
0, 0
0, 0
0, 0
0, 0
0, 0
0, 0
0, 0
0, 0
0, 0
0, 0
0, 0
0, 0
0, 0
0, 0
0, 0
0, 0
0, 0
0, 0
0, 0
0, 0
0, 0
0, 0
0, 0
0, 0
0, 0
0, 0
0, 0
0, 0
0, 0
0, 0
0, 0
0, 0
0, 0
0, 0
0, 0
0, 0
0, 0
0, 0
0, 0
0, 0
0, 0
0, 0
0, 0
0, 0
0, 0
0, 0
0, 0
0, 0
0, 0
0, 0
0, 0
0, 0
0, 0
0, 0
0, 0
#ENDOFDATA     end of spectrum data

File: ps__0257_0689790785_000rfs_shot_3304.msa
#FORMAT      : EMSA/MAS spectral data file
#VERSION     : TC202v2.0 PIXL
#TITLE       : N/A
#DATE        :       Date in the format DD-MMM-YYYY, for example 07-JUL-2010
#TIME        :             The time of day at which the spectrum was recorded, in 24-hour format
#OWNER       : PIXL Flight Model       (PIXL will use this to indicate which instrument took the data.)
#NPOINTS     : 4096     Number of data points in the spectrum (This can be zero for configuration only files)
#NCOLUMNS    : 2     Number of data columns in the spectrum (This can be zero for configuration only files)
#XUNITS      : eV
#YUNITS      : COUNTS
#DATATYPE    : YY
#XPERCHAN    : 7.862, 7.881   eV per channel (separate by commas if more than one detector)
#OFFSET      : 18.5, -22.4         eV of first channel  (separate by commas if more than one detector
#SIGNALTYPE  : XRF
#YP_TEMP     : 3.069
#LIVETIME    : 8.99434, 9.00379   seconds (separate by commas if more than one detector)
#REALTIME    : 10, 10.0   seconds (separate by commas if more than one detector)
#SPECTRUM    : start of spectrum data
0, 0
0, 0
0, 0
0, 0
0, 0
0, 0
0, 0
1, 1
0, 1
1, 3
3, 2
31, 26
26, 26
14, 7
21, 23
84, 72
599, 615
100, 92
20, 25
8, 15
6, 2
9, 4
6, 3
10, 13
50, 55
64, 90
29, 61
18, 32
9, 3
3, 7
29, 31
12, 12
11, 11
61, 67
79, 100
9, 13
25, 9
19, 8
5, 7
5, 5
17, 16
31, 43
26, 31
21, 15
16, 9
9, 8
10, 10
5, 5
12, 12
24, 18
23, 17
8, 14
10, 33
56, 66
95, 80
28, 18
29, 42
637, 741
3358, 3468
2047, 1746
160, 111
28, 22
47, 32
115, 182
499, 518
268, 232
24, 19
7, 9
15, 14
10, 7
5, 12
6, 10
5, 10
6, 4
7, 7
2, 5
4, 9
6, 4
5, 2
8, 5
5, 5
6, 5
2, 3
2, 7
1, 4
1, 4
6, 8
0, 6
4, 4
2, 5
5, 5
5, 3
5, 7
2, 5
2, 3
4, 2
7, 6
4, 2
1, 6
1, 0
1, 2
3, 1
4, 4
0, 1
2, 2
2, 2
2, 2
0, 2
0, 2
4, 2
0, 1
2, 4
3, 7
2, 3
2, 6
3, 2
1, 3
5, 3
1, 0
1, 1
4, 2
1, 1
1, 6
2, 4
2, 2
1, 1
0, 1
1, 1
0, 0
0, 1
2, 3
4, 2
0, 0
0, 1
0, 0
1, 1
1, 0
1, 0
1, 1
0, 1
1, 1
0, 1
0, 2
1, 0
1, 2
0, 0
0, 0
0, 1
0, 1
0, 0
0, 0
0, 1
2, 0
0, 1
0, 0
0, 0
0, 0
1, 0
0, 0
0, 0
1, 0
0, 0
0, 0
0, 0
0, 0
0, 0
0, 0
1, 0
0, 0
0, 0
0, 2
0, 0
0, 0
1, 0
0, 0
0, 1
0, 1
0, 2
0, 0
0, 0
0, 0
0, 0
0, 0
0, 0
0, 0
0, 0
0, 0
0, 0
1, 0
1, 0
1, 0
0, 0
0, 0
1, 0
0, 0
0, 0
0, 0
0, 0
0, 0
0, 0
0, 0
0, 0
0, 0
0, 0
0, 0
0, 0
0, 0
0, 0
0, 0
0, 0
0, 1
0, 0
0, 0
0, 0
0, 0
0, 0
0, 0
0, 0
0, 0
0, 0
0, 0
0, 0
0, 0
0, 0
0, 0
0, 0
0, 0
0, 0
0, 0
0, 0
0, 0
0, 0
0, 0
0, 0
0, 0
0, 0
0, 0
0, 0
0, 0
0, 0
0, 0
0, 0
0, 0
0, 0
0, 0
0, 0
0, 0
0, 0
0, 0
0, 0
0, 0
0, 0
0, 0
0, 0
0, 0
0, 0
0, 0
0, 0
0, 0
0, 0
0, 0
0, 0
0, 0
0, 0
0, 0
0, 0
0, 0
0, 0
0, 0
0, 0
0, 0
0, 0
0, 0
0, 0
0, 0
0, 0
0, 0
0, 0
0, 0
0, 0
0, 0
0, 0
0, 0
0, 0
0, 0
0, 0
0, 0
0, 0
0, 0
0, 0
0, 0
0, 0
0, 0
0, 0
#ENDOFDATA     end of spectrum data

File: ps__0257_0689790785_000rfs_shot_3305.msa
#FORMAT      : EMSA/MAS spectral data file
#VERSION     : TC202v2.0 PIXL
#TITLE       : N/A
#DATE        :       Date in the format DD-MMM-YYYY, for example 07-JUL-2010
#TIME        :             The time of day at which the spectrum was recorded, in 24-hour format
#OWNER       : PIXL Flight Model       (PIXL will use this to indicate which instrument took the data.)
#NPOINTS     : 4096     Number of data points in the spectrum (This can be zero for configuration only files)
#NCOLUMNS    : 2     Number of data columns in the spectrum (This can be zero for configuration only files)
#XUNITS      : eV
#YUNITS      : COUNTS
#DATATYPE    : YY
#XPERCHAN    : 7.862, 7.881   eV per channel (separate by commas if more than one detector)
#OFFSET      : 18.5, -22.4         eV of first channel  (separate by commas if more than one detector
#SIGNALTYPE  : XRF
#YP_TEMP     : 3.069
#LIVETIME    : 9.00039, 9.03134   seconds (separate by commas if more than one detector)
#REALTIME    : 10, 10.0   seconds (separate by commas if more than one detector)
#SPECTRUM    : start of spectrum data
0, 0
0, 0
0, 0
0, 0
0, 0
0, 0
0, 0
0, 0
2, 0
4, 1
3, 0
28, 25
36, 23
24, 11
29, 34
98, 91
638, 561
109, 97
7, 3
6, 2
3, 4
9, 8
6, 4
16, 10
93, 69
72, 62
28, 30
21, 17
5, 8
11, 4
25, 16
10, 12
5, 6
20, 16
38, 32
10, 4
8, 9
17, 6
8, 9
5, 4
11, 15
14, 26
21, 32
15, 10
9, 9
4, 6
10, 9
6, 13
17, 9
19, 13
13, 12
7, 38
9, 30
53, 60
96, 64
29, 26
38, 45
636, 634
3601, 3255
2204, 1539
134, 97
15, 9
36, 17
142, 137
566, 492
285, 229
24, 28
9, 7
12, 10
8, 7
6, 7
7, 10
5, 0
7, 7
6, 4
4, 9
3, 2
5, 2
8, 1
10, 5
6, 2
2, 5
4, 5
2, 11
5, 3
0, 4
3, 3
3, 5
6, 4
5, 4
2, 1
2, 4
2, 4
4, 1
1, 4
2, 2
3, 5
5, 4
6, 2
6, 3
4, 1
6, 3
2, 0
1, 1
3, 1
3, 2
1, 3
1, 0
0, 3
1, 2
0, 5
2, 1
4, 2
2, 1
2, 2
2, 1
3, 6
8, 4
1, 3
1, 1
2, 2
2, 2
1, 0
4, 0
1, 0
0, 1
1, 5
0, 1
0, 1
3, 1
0, 2
0, 0
0, 0
0, 0
1, 1
3, 0
1, 0
0, 0
0, 0
0, 0
1, 0
0, 0
0, 0
0, 1
1, 0
1, 1
1, 0
0, 0
0, 1
0, 1
1, 0
0, 0
0, 0
0, 0
1, 1
1, 0
0, 0
0, 0
0, 0
0, 0
0, 0
0, 0
1, 1
0, 0
0, 0
0, 0
0, 0
0, 0
0, 0
1, 0
0, 0
0, 0
0, 0
0, 0
0, 0
0, 0
1, 0
0, 0
0, 0
0, 0
0, 0
0, 0
0, 0
0, 0
1, 0
0, 0
0, 0
0, 0
0, 0
1, 0
0, 0
0, 0
0, 0
0, 0
0, 0
0, 0
0, 0
0, 0
0, 0
0, 0
0, 0
0, 0
0, 0
0, 0
0, 0
0, 0
0, 0
0, 0
0, 0
0, 0
0, 0
0, 0
0, 0
0, 0
0, 0
0, 0
0, 0
0, 0
0, 0
0, 0
0, 0
0, 0
0, 0
0, 0
0, 0
0, 0
0, 0
0, 0
0, 0
0, 0
0, 0
0, 0
0, 0
0, 0
0, 0
0, 0
0, 0
0, 0
0, 0
0, 0
0, 0
0, 0
0, 0
0, 0
0, 0
0, 0
0, 0
0, 0
0, 0
0, 0
0, 0
0, 0
0, 0
0, 0
0, 0
0, 0
0, 0
0, 0
0, 0
0, 0
0, 0
0, 0
0, 0
0, 0
0, 0
0, 0
0, 0
0, 0
0, 0
0, 0
0, 0
0, 0
0, 0
0, 0
0, 0
0, 0
0, 0
0, 0
0, 0
0, 0
0, 0
0, 0
0, 0
0, 0
0, 0
0, 0
0, 0
0, 0
0, 0
0, 0
0, 0
0, 0
0, 0
0, 0
#ENDOFDATA     end of spectrum data

File: ps__0257_0689790785_000rfs_shot_3309.msa
#FORMAT      : EMSA/MAS spectral data file
#VERSION     : TC202v2.0 PIXL
#TITLE       : N/A
#DATE        :       Date in the format DD-MMM-YYYY, for example 07-JUL-2010
#TIME        :             The time of day at which the spectrum was recorded, in 24-hour format
#OWNER       : PIXL Flight Model       (PIXL will use this to indicate which instrument took the data.)
#NPOINTS     : 4096     Number of data points in the spectrum (This can be zero for configuration only files)
#NCOLUMNS    : 2     Number of data columns in the spectrum (This can be zero for configuration only files)
#XUNITS      : eV
#YUNITS      : COUNTS
#DATATYPE    : YY
#XPERCHAN    : 7.862, 7.881   eV per channel (separate by commas if more than one detector)
#OFFSET      : 18.5, -22.4         eV of first channel  (separate by commas if more than one detector
#SIGNALTYPE  : XRF
#YP_TEMP     : 2.973
#LIVETIME    : 9.02364, 9.00723   seconds (separate by commas if more than one detector)
#REALTIME    : 10, 10.0   seconds (separate by commas if more than one detector)
#SPECTRUM    : start of spectrum data
0, 0
0, 0
0, 0
0, 0
0, 0
0, 0
0, 0
0, 0
1, 2
0, 0
5, 2
31, 16
34, 42
6, 6
11, 13
81, 89
630, 598
100, 89
9, 14
3, 3
1, 3
2, 6
2, 3
4, 14
37, 40
38, 38
23, 24
12, 14
3, 6
3, 8
15, 15
7, 7
13, 18
102, 128
181, 185
23, 18
24, 29
36, 24
12, 8
9, 5
12, 8
16, 19
17, 24
29, 46
12, 22
9, 7
6, 9
6, 8
17, 6
34, 16
10, 15
11, 64
19, 53
48, 59
84, 103
22, 27
25, 31
611, 695
3127, 3307
1846, 1695
165, 101
18, 19
21, 23
140, 156
442, 498
263, 225
29, 29
7, 9
14, 7
9, 2
20, 8
7, 2
3, 4
4, 7
6, 10
2, 6
2, 7
2, 3
5, 4
7, 3
4, 6
3, 5
2, 9
0, 17
3, 7
2, 0
0, 0
6, 1
6, 3
0, 8
3, 8
7, 6
2, 3
2, 0
2, 3
4, 4
3, 3
0, 0
2, 0
4, 2
6, 4
1, 3
3, 1
4, 1
2, 2
1, 2
1, 1
4, 1
1, 3
5, 2
4, 1
1, 1
0, 0
0, 2
2, 0
3, 1
4, 5
7, 2
2, 0
0, 3
0, 0
6, 2
4, 1
1, 0
1, 0
1, 3
1, 2
3, 1
2, 0
1, 1
0, 0
0, 1
2, 0
1, 0
1, 0
1, 0
0, 0
0, 0
0, 0
0, 0
0, 0
1, 0
2, 1
1, 0
0, 2
2, 0
0, 2
1, 1
1, 0
1, 0
0, 0
0, 0
0, 0
0, 0
1, 0
0, 2
0, 0
0, 0
1, 1
1, 1
0, 0
1, 0
0, 0
0, 1
0, 0
0, 1
0, 0
0, 0
0, 0
0, 0
0, 0
1, 0
0, 0
0, 0
1, 0
0, 0
0, 0
0, 0
0, 0
0, 0
0, 0
0, 0
0, 1
1, 0
0, 0
0, 0
0, 0
0, 0
0, 0
0, 1
0, 0
0, 0
0, 0
0, 0
0, 0
0, 0
0, 0
0, 0
0, 0
0, 0
0, 0
0, 0
0, 0
0, 1
0, 0
0, 0
0, 0
0, 0
0, 0
0, 0
0, 0
1, 0
0, 0
0, 0
0, 0
0, 0
0, 0
0, 0
0, 0
0, 0
0, 0
0, 0
0, 0
0, 0
0, 0
0, 0
0, 0
0, 0
0, 0
0, 0
0, 0
0, 0
0, 0
0, 0
0, 0
0, 0
0, 0
0, 0
0, 0
0, 0
0, 0
0, 0
0, 0
0, 0
0, 0
0, 0
0, 0
0, 0
0, 0
0, 0
0, 0
0, 0
0, 0
0, 0
0, 0
0, 0
0, 0
0, 0
0, 0
0, 0
0, 0
0, 0
0, 0
0, 0
0, 0
0, 0
0, 0
0, 0
0, 0
0, 0
0, 0
0, 0
0, 0
0, 0
0, 0
0, 0
0, 0
0, 0
0, 0
0, 0
0, 0
0, 0
0, 0
0, 0
0, 0
0, 0
0, 0
0, 0
0, 0
0, 0
0, 0
0, 0
0, 0
0, 0
#ENDOFDATA     end of spectrum data

File: ps__0257_0689790785_000rfs_shot_3310.msa
#FORMAT      : EMSA/MAS spectral data file
#VERSION     : TC202v2.0 PIXL
#TITLE       : N/A
#DATE        :       Date in the format DD-MMM-YYYY, for example 07-JUL-2010
#TIME        :             The time of day at which the spectrum was recorded, in 24-hour format
#OWNER       : PIXL Flight Model       (PIXL will use this to indicate which instrument took the data.)
#NPOINTS     : 4096     Number of data points in the spectrum (This can be zero for configuration only files)
#NCOLUMNS    : 2     Number of data columns in the spectrum (This can be zero for configuration only files)
#XUNITS      : eV
#YUNITS      : COUNTS
#DATATYPE    : YY
#XPERCHAN    : 7.862, 7.881   eV per channel (separate by commas if more than one detector)
#OFFSET      : 18.5, -22.4         eV of first channel  (separate by commas if more than one detector
#SIGNALTYPE  : XRF
#YP_TEMP     : 2.909
#LIVETIME    : 9.12964, 9.11779   seconds (separate by commas if more than one detector)
#REALTIME    : 10, 10.0   seconds (separate by commas if more than one detector)
#SPECTRUM    : start of spectrum data
0, 0
0, 0
0, 0
0, 0
0, 0
0, 0
0, 0
0, 0
1, 0
0, 1
2, 1
28, 25
36, 42
12, 3
13, 22
99, 112
688, 758
128, 111
19, 10
3, 4
4, 2
8, 12
6, 2
16, 15
51, 73
59, 62
29, 22
10, 18
5, 4
5, 6
13, 21
7, 4
12, 19
320, 413
534, 594
50, 59
45, 73
72, 65
13, 10
13, 5
11, 11
42, 33
17, 20
16, 15
9, 12
5, 13
10, 3
4, 7
18, 9
35, 26
27, 27
13, 10
14, 15
39, 38
54, 50
16, 21
19, 23
312, 390
1579, 1991
1013, 951
104, 55
10, 15
18, 13
80, 80
270, 303
145, 134
26, 17
30, 9
28, 9
17, 1
8, 12
11, 2
5, 4
0, 4
7, 9
8, 9
9, 13
5, 5
7, 5
3, 8
7, 6
3, 4
9, 5
5, 6
2, 15
3, 7
3, 4
9, 2
5, 4
5, 7
5, 7
6, 9
10, 4
3, 2
5, 3
1, 6
1, 4
0, 2
2, 3
5, 3
11, 7
4, 2
6, 2
1, 6
3, 2
1, 4
2, 3
5, 3
2, 1
5, 6
5, 2
1, 4
2, 3
2, 1
0, 1
3, 4
3, 4
1, 3
4, 5
0, 1
1, 0
1, 4
0, 2
1, 2
1, 2
0, 1
0, 2
0, 2
0, 1
1, 1
2, 0
2, 0
1, 2
1, 0
3, 2
2, 0
4, 2
1, 3
1, 1
0, 2
1, 0
3, 1
1, 1
1, 0
0, 0
0, 1
0, 1
1, 0
2, 0
0, 0
0, 2
1, 2
0, 1
0, 0
1, 0
0, 1
0, 0
0, 0
0, 0
0, 0
0, 1
0, 0
1, 0
0, 0
0, 1
1, 1
0, 0
2, 0
0, 0
0, 0
0, 0
0, 2
1, 0
0, 0
0, 0
0, 2
0, 0
0, 0
0, 0
1, 0
0, 0
0, 0
0, 0
0, 0
0, 0
0, 0
0, 0
0, 0
0, 0
0, 0
1, 0
0, 0
0, 0
0, 0
0, 0
0, 0
0, 0
0, 0
0, 0
0, 0
0, 0
0, 0
0, 0
0, 0
0, 0
1, 0
0, 0
0, 0
1, 0
0, 0
0, 0
0, 0
0, 0
0, 0
0, 0
0, 0
0, 0
0, 0
0, 0
0, 0
0, 0
0, 0
0, 0
0, 0
0, 0
0, 0
0, 0
0, 0
0, 0
0, 0
0, 0
0, 0
0, 0
0, 0
0, 0
0, 0
0, 0
0, 0
0, 0
0, 0
0, 0
0, 0
0, 0
0, 0
0, 0
0, 0
0, 0
0, 0
0, 0
0, 0
0, 0
0, 0
0, 0
0, 0
0, 0
0, 0
0, 0
0, 0
0, 0
0, 0
0, 0
0, 0
0, 0
0, 0
0, 0
0, 0
0, 0
0, 0
0, 0
0, 0
0, 0
0, 0
0, 0
0, 0
0, 0
0, 0
0, 0
0, 0
0, 0
0, 0
0, 0
0, 0
0, 0
0, 0
0, 0
0, 0
0, 0
0, 0
0, 0
0, 0
0, 0
0, 0
0, 0
0, 0
#ENDOFDATA     end of spectrum data

File: ps__0257_0689790785_000rfs_shot_3313.msa
#FORMAT      : EMSA/MAS spectral data file
#VERSION     : TC202v2.0 PIXL
#TITLE       : N/A
#DATE        :       Date in the format DD-MMM-YYYY, for example 07-JUL-2010
#TIME        :             The time of day at which the spectrum was recorded, in 24-hour format
#OWNER       : PIXL Flight Model       (PIXL will use this to indicate which instrument took the data.)
#NPOINTS     : 4096     Number of data points in the spectrum (This can be zero for configuration only files)
#NCOLUMNS    : 2     Number of data columns in the spectrum (This can be zero for configuration only files)
#XUNITS      : eV
#YUNITS      : COUNTS
#DATATYPE    : YY
#XPERCHAN    : 7.862, 7.881   eV per channel (separate by commas if more than one detector)
#OFFSET      : 18.5, -22.4         eV of first channel  (separate by commas if more than one detector
#SIGNALTYPE  : XRF
#YP_TEMP     : 3.198
#LIVETIME    : 9.13409, 9.13922   seconds (separate by commas if more than one detector)
#REALTIME    : 10, 10.0   seconds (separate by commas if more than one detector)
#SPECTRUM    : start of spectrum data
0, 0
0, 0
0, 0
0, 0
0, 0
0, 0
0, 0
0, 0
2, 3
5, 1
2, 2
22, 25
30, 27
4, 7
11, 4
125, 144
877, 863
150, 136
16, 13
3, 2
4, 4
12, 6
3, 5
23, 10
355, 53
330, 37
35, 25
15, 17
2, 5
4, 5
3, 9
4, 6
22, 15
507, 588
832, 806
67, 76
100, 117
132, 113
17, 15
1, 1
11, 14
45, 32
14, 20
6, 12
7, 4
9, 10
3, 12
3, 4
11, 10
55, 45
20, 28
9, 8
5, 7
31, 38
52, 66
29, 13
15, 16
238, 234
1183, 1255
732, 593
92, 39
16, 9
6, 9
55, 56
172, 178
101, 74
18, 8
18, 4
30, 7
17, 8
7, 2
2, 5
10, 4
8, 10
5, 6
7, 7
8, 8
4, 13
5, 6
8, 4
7, 2
4, 5
5, 3
5, 4
5, 2
5, 8
3, 9
4, 8
8, 29
3, 22
5, 7
6, 6
5, 4
6, 3
3, 3
4, 3
3, 1
4, 3
3, 3
5, 2
5, 2
5, 2
5, 5
1, 2
3, 5
0, 3
4, 2
3, 1
4, 3
2, 2
8, 3
5, 5
0, 5
2, 1
1, 3
3, 1
1, 3
0, 3
0, 1
0, 4
2, 0
1, 3
3, 1
1, 3
0, 1
1, 0
1, 1
2, 2
1, 0
1, 0
2, 2
0, 0
0, 1
0, 1
1, 0
1, 0
2, 0
1, 1
0, 0
1, 0
3, 1
0, 2
0, 1
0, 1
0, 0
0, 0
0, 0
0, 2
0, 1
0, 1
0, 2
0, 0
0, 2
0, 0
0, 0
0, 1
0, 0
0, 1
2, 0
0, 0
0, 0
1, 0
0, 1
0, 0
0, 0
0, 0
0, 0
0, 0
0, 0
1, 1
0, 3
0, 0
0, 1
0, 0
0, 0
0, 0
1, 0
0, 0
0, 0
0, 0
0, 0
0, 0
0, 0
0, 0
0, 0
0, 0
0, 0
0, 0
0, 0
0, 0
0, 0
0, 0
0, 0
0, 0
0, 0
0, 2
0, 0
0, 0
0, 0
0, 0
0, 0
0, 0
0, 0
0, 0
0, 0
0, 0
0, 0
0, 0
0, 0
0, 0
0, 0
0, 0
0, 0
0, 0
0, 0
0, 0
0, 0
0, 0
0, 0
0, 0
0, 0
0, 0
0, 0
0, 0
0, 0
0, 0
0, 0
0, 0
0, 0
0, 0
0, 0
0, 0
0, 0
0, 0
0, 0
0, 0
0, 0
0, 0
0, 0
0, 0
0, 0
0, 0
0, 0
0, 0
0, 0
0, 0
0, 0
0, 0
0, 0
0, 0
0, 0
0, 0
0, 0
0, 0
0, 0
0, 0
0, 0
0, 0
0, 0
0, 0
0, 0
0, 0
0, 0
0, 0
0, 0
0, 0
0, 0
0, 0
0, 0
0, 0
0, 0
0, 0
0, 0
0, 0
0, 0
0, 0
0, 0
0, 0
0, 0
0, 0
0, 0
0, 0
0, 0
0, 0
0, 0
0, 0
0, 0
0, 0
0, 0
0, 0
0, 0
0, 0
0, 0
0, 0
#ENDOFDATA     end of spectrum data

File: ps__0257_0689790785_000rfs_shot_3314.msa
#FORMAT      : EMSA/MAS spectral data file
#VERSION     : TC202v2.0 PIXL
#TITLE       : N/A
#DATE        :       Date in the format DD-MMM-YYYY, for example 07-JUL-2010
#TIME        :             The time of day at which the spectrum was recorded, in 24-hour format
#OWNER       : PIXL Flight Model       (PIXL will use this to indicate which instrument took the data.)
#NPOINTS     : 4096     Number of data points in the spectrum (This can be zero for configuration only files)
#NCOLUMNS    : 2     Number of data columns in the spectrum (This can be zero for configuration only files)
#XUNITS      : eV
#YUNITS      : COUNTS
#DATATYPE    : YY
#XPERCHAN    : 7.862, 7.881   eV per channel (separate by commas if more than one detector)
#OFFSET      : 18.5, -22.4         eV of first channel  (separate by commas if more than one detector
#SIGNALTYPE  : XRF
#YP_TEMP     : 3.037
#LIVETIME    : 9.15498, 9.13829   seconds (separate by commas if more than one detector)
#REALTIME    : 10, 10.0   seconds (separate by commas if more than one detector)
#SPECTRUM    : start of spectrum data
0, 0
0, 0
0, 0
0, 0
0, 0
0, 0
0, 0
0, 0
1, 4
2, 1
3, 1
31, 20
41, 32
0, 6
15, 12
165, 133
843, 987
143, 171
11, 17
4, 3
5, 2
21, 13
5, 13
16, 6
47, 68
42, 37
25, 19
10, 11
5, 3
6, 6
4, 5
3, 4
23, 21
535, 689
881, 983
92, 89
88, 128
127, 119
9, 9
4, 3
9, 13
31, 29
18, 16
7, 2
7, 5
15, 9
3, 5
2, 2
6, 10
47, 43
22, 32
5, 7
4, 8
31, 35
45, 52
10, 23
17, 12
202, 236
1085, 1218
640, 594
69, 39
15, 13
5, 19
55, 79
190, 207
103, 74
17, 12
32, 11
37, 4
18, 6
3, 3
7, 5
7, 6
3, 6
4, 9
5, 8
1, 14
2, 17
3, 7
6, 7
4, 3
2, 6
3, 6
5, 1
7, 5
4, 8
4, 6
2, 5
6, 17
3, 26
6, 8
9, 8
10, 2
7, 4
4, 2
3, 4
4, 2
5, 7
4, 2
5, 3
6, 2
3, 2
4, 1
0, 2
4, 7
1, 0
1, 0
1, 2
2, 2
4, 3
6, 6
9, 1
1, 3
5, 3
2, 3
0, 3
0, 0
1, 3
0, 4
1, 4
2, 3
1, 2
1, 1
0, 1
2, 3
2, 2
2, 1
0, 0
2, 1
2, 2
3, 0
2, 1
1, 1
2, 2
1, 2
1, 1
1, 1
2, 1
0, 0
1, 0
1, 2
0, 4
0, 0
0, 0
0, 0
0, 0
0, 0
1, 1
0, 2
0, 0
0, 2
0, 0
0, 1
0, 0
0, 1
0, 0
0, 0
1, 0
0, 0
0, 0
0, 0
0, 0
0, 0
0, 0
0, 0
0, 1
0, 1
0, 0
2, 0
0, 1
0, 0
0, 0
1, 1
0, 0
0, 0
0, 0
0, 0
0, 0
0, 0
0, 0
0, 0
0, 1
0, 0
1, 0
0, 0
1, 0
0, 0
0, 0
0, 0
0, 0
0, 0
0, 0
0, 0
0, 0
0, 0
0, 1
0, 0
0, 0
0, 0
0, 0
0, 0
0, 0
0, 0
0, 0
0, 0
0, 0
0, 0
0, 0
0, 0
0, 0
0, 0
0, 0
0, 0
0, 0
0, 0
0, 0
0, 0
0, 0
0, 0
0, 0
0, 0
0, 0
0, 0
0, 0
0, 0
0, 0
0, 0
0, 0
0, 0
0, 0
0, 0
0, 0
0, 0
0, 0
0, 0
0, 0
0, 0
0, 0
0, 0
0, 0
0, 0
0, 0
0, 0
0, 0
0, 0
0, 0
0, 0
0, 0
0, 0
0, 0
0, 0
0, 0
0, 0
0, 0
0, 0
0, 0
0, 0
0, 0
0, 0
0, 0
0, 0
0, 0
0, 0
0, 0
0, 0
0, 0
0, 0
0, 0
0, 0
0, 0
0, 0
0, 0
0, 0
0, 0
0, 0
0, 0
0, 0
0, 0
0, 0
0, 0
0, 0
0, 0
0, 0
0, 0
0, 0
0, 0
0, 0
0, 0
0, 0
0, 0
0, 0
0, 0
0, 0
0, 0
#ENDOFDATA     end of spectrum data

File: ps__0257_0689790785_000rfs_shot_3315.msa
#FORMAT      : EMSA/MAS spectral data file
#VERSION     : TC202v2.0 PIXL
#TITLE       : N/A
#DATE        :       Date in the format DD-MMM-YYYY, for example 07-JUL-2010
#TIME        :             The time of day at which the spectrum was recorded, in 24-hour format
#OWNER       : PIXL Flight Model       (PIXL will use this to indicate which instrument took the data.)
#NPOINTS     : 4096     Number of data points in the spectrum (This can be zero for configuration only files)
#NCOLUMNS    : 2     Number of data columns in the spectrum (This can be zero for configuration only files)
#XUNITS      : eV
#YUNITS      : COUNTS
#DATATYPE    : YY
#XPERCHAN    : 7.862, 7.881   eV per channel (separate by commas if more than one detector)
#OFFSET      : 18.5, -22.4         eV of first channel  (separate by commas if more than one detector
#SIGNALTYPE  : XRF
#YP_TEMP     : 3.037
#LIVETIME    : 9.14862, 9.13868   seconds (separate by commas if more than one detector)
#REALTIME    : 10, 10.0   seconds (separate by commas if more than one detector)
#SPECTRUM    : start of spectrum data
0, 0
0, 0
0, 0
0, 0
0, 0
0, 0
0, 0
0, 0
0, 3
1, 3
1, 1
21, 20
34, 30
8, 5
9, 5
145, 142
864, 946
157, 128
23, 18
2, 0
4, 0
12, 9
5, 4
10, 12
41, 25
26, 23
11, 12
9, 14
8, 2
4, 3
5, 1
5, 5
27, 35
598, 685
967, 995
97, 75
108, 107
144, 131
20, 12
0, 5
9, 4
40, 35
23, 22
3, 11
4, 6
9, 8
4, 5
2, 4
11, 8
50, 53
22, 25
8, 6
7, 10
23, 31
50, 41
12, 15
12, 15
212, 284
1106, 1217
667, 616
75, 45
13, 8
7, 12
41, 66
180, 202
114, 91
15, 9
24, 6
35, 6
18, 4
5, 3
7, 4
1, 6
7, 4
9, 5
3, 7
3, 15
4, 15
8, 0
3, 3
5, 5
6, 0
7, 2
2, 5
3, 14
4, 12
1, 4
5, 9
4, 21
3, 17
0, 8
11, 1
11, 8
5, 2
5, 1
1, 4
4, 3
1, 5
2, 4
4, 4
2, 1
0, 2
1, 2
4, 2
1, 1
3, 3
0, 3
5, 2
5, 3
2, 3
5, 0
7, 1
3, 2
2, 3
4, 4
3, 2
1, 3
1, 1
0, 2
1, 1
2, 0
4, 2
1, 1
1, 1
3, 0
2, 4
2, 1
3, 2
2, 0
2, 1
0, 0
0, 1
1, 2
1, 3
0, 2
1, 1
3, 1
1, 4
0, 0
0, 0
1, 0
0, 1
0, 0
1, 0
1, 3
0, 0
1, 1
2, 0
1, 1
0, 1
0, 0
0, 1
0, 0
1, 0
0, 1
0, 0
0, 0
0, 0
0, 0
0, 0
0, 1
0, 0
0, 0
0, 0
0, 0
0, 0
0, 0
0, 0
1, 0
0, 0
1, 0
0, 1
0, 0
0, 0
0, 1
0, 0
0, 0
0, 0
0, 0
0, 0
0, 0
0, 0
1, 1
0, 1
0, 0
1, 0
0, 0
0, 1
0, 0
0, 1
0, 0
0, 0
0, 0
1, 0
0, 0
0, 0
0, 0
0, 0
1, 0
0, 0
0, 0
0, 0
0, 0
0, 0
0, 0
0, 0
0, 0
0, 0
0, 0
0, 0
0, 0
0, 0
0, 0
0, 0
0, 0
0, 0
0, 0
0, 0
1, 0
0, 0
0, 0
0, 0
0, 0
0, 0
0, 0
0, 0
0, 0
0, 0
0, 0
0, 0
0, 0
0, 0
0, 0
0, 0
0, 0
0, 0
0, 0
0, 0
0, 0
0, 0
0, 0
0, 0
0, 0
0, 0
0, 0
0, 0
0, 0
0, 0
0, 0
0, 0
0, 0
0, 0
0, 0
0, 0
0, 0
0, 0
0, 0
0, 0
0, 0
0, 0
0, 0
0, 0
0, 0
0, 0
0, 0
0, 0
0, 0
0, 0
0, 0
0, 0
0, 0
0, 0
0, 0
0, 0
0, 0
0, 0
0, 0
0, 0
0, 0
0, 0
0, 0
0, 0
0, 0
0, 0
0, 0
0, 0
0, 0
0, 0
0, 0
0, 0
0, 0
0, 0
0, 0
0, 0
#ENDOFDATA     end of spectrum data