Folder: data-repository/host_upload/12-01-2023/Dourbes (shot-by-shot)/upload_4 (part 18)

File: ps__0257_0689790785_000rfs_shot_3316.msa
#FORMAT      : EMSA/MAS spectral data file
#VERSION     : TC202v2.0 PIXL
#TITLE       : N/A
#DATE        :       Date in the format DD-MMM-YYYY, for example 07-JUL-2010
#TIME        :             The time of day at which the spectrum was recorded, in 24-hour format
#OWNER       : PIXL Flight Model       (PIXL will use this to indicate which instrument took the data.)
#NPOINTS     : 4096     Number of data points in the spectrum (This can be zero for configuration only files)
#NCOLUMNS    : 2     Number of data columns in the spectrum (This can be zero for configuration only files)
#XUNITS      : eV
#YUNITS      : COUNTS
#DATATYPE    : YY
#XPERCHAN    : 7.862, 7.881   eV per channel (separate by commas if more than one detector)
#OFFSET      : 18.5, -22.4         eV of first channel  (separate by commas if more than one detector
#SIGNALTYPE  : XRF
#YP_TEMP     : 3.165
#LIVETIME    : 9.13991, 9.13769   seconds (separate by commas if more than one detector)
#REALTIME    : 10, 10.0   seconds (separate by commas if more than one detector)
#SPECTRUM    : start of spectrum data
0, 0
0, 0
0, 0
0, 0
0, 0
0, 0
0, 0
0, 0
1, 1
1, 1
2, 3
27, 18
34, 25
3, 5
11, 11
136, 127
880, 879
153, 137
14, 15
1, 3
3, 1
6, 11
4, 6
10, 13
23, 33
29, 29
19, 13
4, 14
4, 5
4, 3
6, 3
3, 5
25, 34
605, 733
1037, 1028
105, 97
119, 134
130, 167
17, 14
2, 2
9, 15
30, 38
9, 13
3, 4
8, 3
4, 18
5, 3
4, 4
8, 20
47, 31
33, 26
5, 6
8, 8
27, 30
54, 42
18, 9
20, 14
234, 289
1096, 1237
739, 628
74, 48
7, 9
6, 13
49, 62
174, 209
89, 109
16, 13
35, 4
38, 5
11, 4
8, 5
9, 4
7, 2
4, 10
5, 4
5, 4
2, 10
5, 15
3, 3
9, 5
2, 5
4, 5
6, 5
1, 6
4, 10
2, 6
4, 7
1, 9
6, 14
3, 10
6, 5
14, 5
9, 4
4, 3
0, 2
2, 3
5, 4
1, 4
4, 2
5, 0
2, 2
1, 2
2, 2
1, 2
3, 1
1, 3
0, 4
1, 1
2, 1
8, 3
6, 2
3, 2
2, 1
3, 0
1, 2
2, 1
2, 3
1, 3
5, 2
2, 0
0, 1
1, 3
1, 0
2, 3
0, 1
0, 0
0, 0
0, 2
3, 0
2, 0
1, 2
1, 0
2, 0
2, 1
1, 0
1, 3
0, 0
0, 3
2, 0
0, 0
2, 1
1, 1
0, 1
0, 2
1, 2
0, 1
1, 0
0, 1
0, 0
1, 2
1, 0
0, 0
1, 1
0, 0
0, 0
1, 1
0, 0
0, 1
0, 0
0, 2
1, 1
0, 0
1, 0
0, 1
0, 0
0, 0
0, 0
0, 0
0, 0
0, 0
0, 2
0, 1
0, 1
1, 0
0, 0
0, 0
0, 0
0, 0
0, 0
1, 0
0, 0
0, 0
0, 0
0, 0
0, 0
0, 0
0, 0
0, 0
0, 0
0, 0
0, 0
0, 0
0, 0
0, 0
0, 0
0, 0
0, 0
0, 0
0, 0
0, 0
0, 0
0, 0
0, 0
0, 0
0, 0
0, 0
0, 0
0, 0
0, 0
0, 0
0, 0
0, 0
0, 0
0, 0
0, 0
0, 0
0, 0
0, 0
0, 0
0, 0
0, 0
0, 0
0, 0
0, 0
0, 0
0, 0
0, 0
0, 0
0, 0
0, 0
0, 0
0, 0
0, 0
0, 0
0, 0
0, 0
0, 0
0, 0
0, 0
0, 0
0, 0
0, 0
0, 0
0, 0
0, 0
0, 0
0, 0
0, 0
0, 0
0, 0
0, 0
0, 0
0, 0
0, 0
0, 0
0, 0
0, 0
0, 0
0, 0
0, 0
0, 0
0, 0
0, 0
0, 0
0, 0
0, 0
0, 0
0, 0
0, 0
0, 0
0, 0
0, 0
0, 0
0, 0
0, 0
0, 0
0, 0
0, 0
0, 0
0, 0
0, 0
0, 0
0, 0
0, 0
0, 0
0, 0
0, 0
0, 0
0, 0
0, 0
0, 0
0, 0
0, 0
0, 0
#ENDOFDATA     end of spectrum data

File: ps__0257_0689790785_000rfs_shot_3317.msa
#FORMAT      : EMSA/MAS spectral data file
#VERSION     : TC202v2.0 PIXL
#TITLE       : N/A
#DATE        :       Date in the format DD-MMM-YYYY, for example 07-JUL-2010
#TIME        :             The time of day at which the spectrum was recorded, in 24-hour format
#OWNER       : PIXL Flight Model       (PIXL will use this to indicate which instrument took the data.)
#NPOINTS     : 4096     Number of data points in the spectrum (This can be zero for configuration only files)
#NCOLUMNS    : 2     Number of data columns in the spectrum (This can be zero for configuration only files)
#XUNITS      : eV
#YUNITS      : COUNTS
#DATATYPE    : YY
#XPERCHAN    : 7.862, 7.881   eV per channel (separate by commas if more than one detector)
#OFFSET      : 18.5, -22.4         eV of first channel  (separate by commas if more than one detector
#SIGNALTYPE  : XRF
#YP_TEMP     : 3.294
#LIVETIME    : 9.14317, 9.13986   seconds (separate by commas if more than one detector)
#REALTIME    : 10, 10.0   seconds (separate by commas if more than one detector)
#SPECTRUM    : start of spectrum data
0, 0
0, 0
0, 0
0, 0
0, 0
0, 0
0, 0
1, 0
2, 1
2, 2
0, 2
20, 24
36, 25
3, 5
12, 11
125, 148
836, 887
146, 133
25, 18
4, 5
2, 3
7, 5
6, 3
7, 7
34, 17
26, 46
12, 20
15, 10
5, 5
5, 7
5, 5
4, 5
22, 31
563, 682
965, 976
89, 87
99, 119
141, 148
13, 13
4, 3
9, 9
31, 34
14, 22
4, 2
4, 6
11, 9
6, 9
3, 1
9, 10
43, 33
29, 20
3, 6
8, 9
24, 33
49, 36
19, 8
9, 16
202, 314
1166, 1279
728, 673
75, 42
8, 8
14, 12
57, 58
217, 184
108, 95
13, 14
38, 4
39, 4
16, 4
3, 3
3, 6
4, 2
5, 3
5, 6
7, 6
8, 8
5, 10
3, 13
3, 5
3, 5
1, 5
3, 5
2, 5
6, 6
3, 8
2, 5
5, 8
2, 9
1, 13
5, 5
10, 3
5, 3
1, 5
4, 2
3, 8
1, 8
4, 4
9, 2
5, 0
4, 1
4, 2
1, 3
1, 4
2, 3
1, 7
2, 2
2, 2
4, 4
0, 5
4, 1
8, 0
3, 3
0, 3
3, 1
1, 0
2, 2
0, 0
3, 2
0, 1
0, 0
1, 3
3, 1
2, 1
1, 1
0, 1
4, 0
1, 1
2, 1
0, 1
1, 1
1, 1
0, 1
0, 1
0, 0
2, 0
1, 1
3, 0
0, 1
0, 0
0, 0
0, 1
0, 1
0, 0
0, 1
0, 1
1, 0
0, 1
0, 0
1, 0
0, 0
0, 0
1, 0
1, 0
0, 1
2, 0
0, 0
0, 0
0, 0
1, 0
1, 0
0, 0
0, 0
0, 0
0, 0
0, 0
0, 0
0, 0
2, 0
0, 0
1, 0
0, 1
0, 0
0, 0
1, 0
0, 0
2, 0
0, 0
0, 0
0, 0
0, 0
0, 0
0, 0
0, 0
0, 0
0, 0
0, 0
0, 0
0, 1
0, 0
0, 0
0, 0
0, 0
0, 0
0, 0
0, 0
0, 0
0, 0
0, 0
0, 0
0, 0
0, 0
0, 0
0, 0
0, 0
0, 0
0, 0
0, 0
0, 0
0, 0
0, 0
0, 0
0, 0
0, 0
0, 0
0, 0
0, 0
0, 0
0, 0
0, 0
0, 0
0, 0
0, 0
0, 0
0, 0
0, 0
0, 0
0, 0
0, 0
0, 0
0, 0
0, 0
0, 0
0, 0
0, 0
0, 0
0, 0
0, 0
0, 0
0, 0
0, 0
0, 0
0, 0
0, 0
0, 0
0, 0
0, 0
0, 0
0, 0
0, 0
0, 0
0, 0
0, 0
0, 0
0, 0
0, 0
0, 0
0, 0
0, 0
0, 0
0, 0
0, 0
0, 0
0, 0
0, 0
0, 0
0, 0
0, 0
0, 0
0, 0
0, 0
0, 0
0, 0
0, 0
0, 0
0, 0
0, 0
0, 0
0, 0
0, 0
0, 0
0, 0
0, 0
0, 0
0, 0
0, 0
0, 0
0, 0
0, 0
0, 0
0, 0
0, 0
0, 0
0, 0
#ENDOFDATA     end of spectrum data

File: ps__0257_0689790785_000rfs_shot_3318.msa
#FORMAT      : EMSA/MAS spectral data file
#VERSION     : TC202v2.0 PIXL
#TITLE       : N/A
#DATE        :       Date in the format DD-MMM-YYYY, for example 07-JUL-2010
#TIME        :             The time of day at which the spectrum was recorded, in 24-hour format
#OWNER       : PIXL Flight Model       (PIXL will use this to indicate which instrument took the data.)
#NPOINTS     : 4096     Number of data points in the spectrum (This can be zero for configuration only files)
#NCOLUMNS    : 2     Number of data columns in the spectrum (This can be zero for configuration only files)
#XUNITS      : eV
#YUNITS      : COUNTS
#DATATYPE    : YY
#XPERCHAN    : 7.862, 7.881   eV per channel (separate by commas if more than one detector)
#OFFSET      : 18.5, -22.4         eV of first channel  (separate by commas if more than one detector
#SIGNALTYPE  : XRF
#YP_TEMP     : 3.133
#LIVETIME    : 9.14228, 9.13229   seconds (separate by commas if more than one detector)
#REALTIME    : 10, 10.0   seconds (separate by commas if more than one detector)
#SPECTRUM    : start of spectrum data
0, 0
0, 0
0, 0
0, 0
0, 0
0, 0
0, 0
0, 0
1, 0
1, 1
2, 4
27, 19
30, 36
3, 5
5, 15
130, 107
829, 880
149, 126
18, 17
5, 7
4, 6
12, 7
4, 7
6, 3
39, 36
29, 51
26, 25
11, 20
6, 5
3, 5
4, 9
4, 3
29, 31
572, 614
893, 884
98, 88
85, 104
112, 117
7, 10
2, 3
13, 10
28, 35
15, 21
12, 3
6, 7
13, 11
2, 4
2, 5
7, 15
49, 38
37, 24
11, 7
3, 5
27, 44
43, 50
15, 12
22, 21
241, 288
1201, 1324
772, 654
69, 38
11, 14
10, 12
46, 70
198, 221
101, 92
16, 18
25, 7
23, 7
17, 5
4, 2
7, 7
5, 2
4, 5
7, 6
6, 6
5, 4
4, 17
4, 6
3, 7
6, 4
3, 11
4, 3
0, 10
5, 9
5, 18
1, 2
5, 10
3, 13
3, 9
5, 4
6, 8
5, 7
5, 5
4, 7
1, 3
3, 4
3, 3
2, 2
2, 4
3, 1
3, 2
5, 5
5, 3
1, 3
1, 2
4, 4
3, 2
4, 2
4, 3
5, 2
2, 1
2, 2
0, 1
3, 3
3, 1
5, 0
3, 1
2, 2
2, 1
3, 1
0, 2
0, 0
1, 3
4, 1
0, 1
1, 1
2, 3
1, 1
1, 5
0, 1
2, 0
1, 2
0, 0
2, 0
2, 1
1, 1
2, 1
2, 1
0, 0
0, 1
2, 0
1, 1
0, 0
1, 1
0, 0
0, 1
0, 0
1, 0
1, 1
0, 0
0, 0
0, 0
0, 1
0, 0
1, 0
0, 0
0, 1
0, 0
2, 0
0, 0
0, 0
0, 0
1, 0
2, 0
0, 0
1, 0
1, 1
0, 0
0, 0
0, 0
0, 0
0, 0
0, 0
0, 0
1, 0
1, 0
0, 0
0, 0
0, 0
0, 0
0, 0
0, 0
0, 1
0, 0
0, 0
0, 0
0, 0
1, 0
0, 0
0, 0
0, 0
0, 0
0, 0
0, 0
0, 0
0, 0
0, 0
1, 0
0, 0
0, 0
0, 0
0, 0
0, 0
0, 0
0, 0
0, 0
0, 0
0, 0
0, 0
0, 0
0, 0
0, 0
0, 0
0, 0
0, 0
0, 0
0, 0
0, 0
0, 0
0, 0
0, 0
0, 0
0, 0
0, 0
0, 0
0, 0
0, 0
0, 0
0, 0
0, 0
0, 0
0, 0
0, 0
0, 0
0, 0
0, 0
0, 0
0, 0
0, 0
0, 0
0, 0
0, 0
0, 0
0, 0
0, 0
0, 0
0, 0
0, 0
0, 0
0, 0
0, 0
0, 0
0, 0
0, 0
0, 0
0, 0
0, 0
0, 0
0, 0
0, 0
0, 0
0, 0
0, 0
0, 0
0, 0
0, 0
0, 0
0, 0
0, 0
0, 0
0, 0
0, 0
0, 0
0, 0
0, 0
0, 0
0, 0
0, 0
0, 0
0, 0
0, 0
0, 0
0, 0
0, 0
0, 0
0, 0
0, 0
0, 0
0, 0
0, 0
0, 0
0, 0
0, 0
#ENDOFDATA     end of spectrum data

File: ps__0257_0689790785_000rfs_shot_3320.msa
#FORMAT      : EMSA/MAS spectral data file
#VERSION     : TC202v2.0 PIXL
#TITLE       : N/A
#DATE        :       Date in the format DD-MMM-YYYY, for example 07-JUL-2010
#TIME        :             The time of day at which the spectrum was recorded, in 24-hour format
#OWNER       : PIXL Flight Model       (PIXL will use this to indicate which instrument took the data.)
#NPOINTS     : 4096     Number of data points in the spectrum (This can be zero for configuration only files)
#NCOLUMNS    : 2     Number of data columns in the spectrum (This can be zero for configuration only files)
#XUNITS      : eV
#YUNITS      : COUNTS
#DATATYPE    : YY
#XPERCHAN    : 7.862, 7.881   eV per channel (separate by commas if more than one detector)
#OFFSET      : 18.5, -22.4         eV of first channel  (separate by commas if more than one detector
#SIGNALTYPE  : XRF
#YP_TEMP     : 3.198
#LIVETIME    : 9.02857, 9.02182   seconds (separate by commas if more than one detector)
#REALTIME    : 10, 10.0   seconds (separate by commas if more than one detector)
#SPECTRUM    : start of spectrum data
0, 0
0, 0
0, 0
0, 0
0, 0
0, 0
0, 0
0, 0
0, 0
1, 0
2, 0
25, 33
37, 37
5, 5
3, 8
85, 86
528, 537
84, 80
7, 11
1, 5
2, 4
18, 13
11, 7
17, 13
61, 65
83, 60
28, 31
16, 22
7, 8
5, 4
7, 6
7, 2
10, 9
156, 146
232, 217
36, 23
26, 36
38, 44
9, 7
6, 6
13, 9
18, 21
20, 18
18, 13
14, 6
11, 6
13, 3
8, 4
13, 16
24, 18
20, 20
16, 12
13, 14
60, 90
94, 76
30, 35
26, 40
561, 645
3036, 3267
1834, 1659
128, 101
23, 22
28, 30
125, 156
484, 459
239, 209
10, 17
6, 4
14, 9
8, 6
5, 9
5, 6
0, 10
10, 4
6, 5
5, 11
5, 19
4, 10
5, 4
7, 4
2, 5
7, 4
3, 5
7, 4
5, 4
5, 3
4, 4
2, 6
4, 2
6, 8
7, 3
1, 5
1, 2
2, 6
2, 3
1, 3
2, 4
1, 2
1, 0
5, 3
4, 1
1, 1
5, 1
4, 2
4, 3
4, 1
2, 3
2, 3
3, 1
1, 3
1, 2
2, 1
1, 3
1, 2
2, 0
6, 1
8, 3
1, 2
0, 1
0, 2
1, 4
2, 2
1, 1
0, 1
1, 0
0, 1
0, 1
2, 0
0, 3
0, 0
0, 1
0, 2
2, 0
1, 1
0, 2
0, 0
1, 0
1, 0
0, 0
0, 0
0, 0
1, 0
0, 0
0, 1
0, 0
0, 0
0, 0
1, 0
0, 0
1, 1
2, 0
0, 0
0, 0
2, 0
1, 0
0, 0
0, 0
0, 0
1, 0
0, 0
0, 0
0, 0
1, 0
0, 0
0, 0
0, 0
0, 0
0, 0
1, 0
1, 0
0, 0
0, 0
0, 1
1, 0
0, 0
0, 0
0, 0
0, 0
1, 0
0, 0
0, 0
0, 0
0, 1
1, 1
0, 0
1, 0
1, 0
0, 0
0, 0
1, 0
0, 0
0, 0
0, 1
0, 0
0, 0
0, 0
1, 0
0, 0
1, 0
0, 0
0, 0
0, 0
0, 0
0, 0
1, 0
0, 0
0, 0
0, 0
0, 0
0, 0
0, 0
0, 0
0, 0
0, 0
0, 0
0, 0
0, 0
0, 0
0, 0
0, 0
0, 0
0, 0
0, 0
0, 0
0, 0
0, 0
0, 0
0, 0
0, 0
0, 0
0, 0
0, 0
0, 0
0, 0
0, 0
0, 0
0, 0
0, 0
0, 0
0, 0
0, 0
0, 0
0, 0
0, 0
0, 0
0, 0
0, 0
0, 0
0, 0
0, 0
0, 0
0, 0
0, 0
0, 0
0, 0
0, 0
0, 0
0, 0
0, 0
0, 0
0, 0
0, 0
0, 0
0, 0
0, 0
0, 0
0, 0
0, 0
0, 0
0, 0
0, 0
0, 0
0, 0
0, 0
0, 0
0, 0
0, 0
0, 0
0, 0
0, 0
0, 0
0, 0
0, 0
0, 0
0, 0
0, 0
0, 0
0, 0
0, 0
0, 0
0, 0
0, 0
0, 0
0, 0
#ENDOFDATA     end of spectrum data