Folder: data-repository/host_upload/12-01-2023/Dourbes (shot-by-shot)/upload_4 (part 13)

File: ps__0257_0689790785_000rfs_shot_3218.msa
#FORMAT      : EMSA/MAS spectral data file
#VERSION     : TC202v2.0 PIXL
#TITLE       : N/A
#DATE        :       Date in the format DD-MMM-YYYY, for example 07-JUL-2010
#TIME        :             The time of day at which the spectrum was recorded, in 24-hour format
#OWNER       : PIXL Flight Model       (PIXL will use this to indicate which instrument took the data.)
#NPOINTS     : 4096     Number of data points in the spectrum (This can be zero for configuration only files)
#NCOLUMNS    : 2     Number of data columns in the spectrum (This can be zero for configuration only files)
#XUNITS      : eV
#YUNITS      : COUNTS
#DATATYPE    : YY
#XPERCHAN    : 7.862, 7.881   eV per channel (separate by commas if more than one detector)
#OFFSET      : 18.5, -22.4         eV of first channel  (separate by commas if more than one detector
#SIGNALTYPE  : XRF
#YP_TEMP     : 3.39
#LIVETIME    : 9.01591, 9.03484   seconds (separate by commas if more than one detector)
#REALTIME    : 10, 10.0   seconds (separate by commas if more than one detector)
#SPECTRUM    : start of spectrum data
0, 0
0, 0
0, 0
0, 0
0, 0
0, 0
0, 0
1, 0
1, 1
2, 3
0, 2
35, 28
40, 26
2, 2
5, 6
79, 73
539, 470
101, 76
3, 4
4, 7
47, 13
150, 138
53, 45
10, 18
46, 51
43, 53
24, 22
14, 18
1, 4
2, 1
1, 5
3, 2
3, 3
24, 29
29, 70
7, 11
5, 7
8, 10
7, 4
6, 5
8, 6
7, 11
12, 15
14, 16
11, 9
11, 7
11, 10
5, 7
7, 10
9, 57
9, 94
14, 23
16, 13
71, 63
117, 107
42, 13
40, 42
589, 653
3446, 3187
2154, 1505
161, 106
26, 15
34, 27
159, 156
490, 483
282, 220
24, 13
3, 6
8, 7
10, 4
3, 4
3, 2
4, 4
7, 4
8, 6
10, 2
7, 5
6, 2
5, 7
4, 8
7, 10
7, 11
8, 1
6, 4
2, 6
2, 4
3, 4
1, 3
2, 8
2, 1
1, 2
2, 3
2, 0
3, 1
3, 4
1, 3
5, 6
2, 3
0, 6
4, 6
2, 5
5, 3
4, 0
4, 0
3, 2
4, 4
0, 1
2, 3
2, 4
0, 3
2, 3
1, 3
3, 3
3, 2
5, 1
3, 2
6, 9
5, 1
0, 2
2, 3
1, 1
1, 1
1, 4
0, 0
1, 0
0, 1
1, 0
1, 0
2, 2
1, 1
2, 1
2, 3
0, 0
1, 2
0, 4
1, 0
1, 1
1, 0
2, 0
0, 1
0, 0
0, 1
0, 0
1, 0
0, 1
2, 0
0, 0
0, 2
0, 0
0, 0
0, 0
0, 3
1, 0
0, 0
1, 0
0, 0
0, 0
2, 0
0, 0
0, 0
0, 0
0, 1
0, 0
0, 1
0, 0
0, 0
1, 0
0, 1
0, 0
0, 0
0, 0
0, 0
0, 0
0, 0
0, 0
0, 0
0, 0
0, 0
0, 2
0, 0
1, 0
0, 0
0, 0
0, 0
0, 0
0, 0
0, 0
0, 0
0, 0
0, 0
0, 0
0, 0
0, 0
0, 0
0, 0
0, 0
0, 0
0, 0
0, 0
0, 0
0, 0
0, 0
0, 0
0, 0
0, 0
0, 0
0, 0
0, 0
0, 0
0, 0
0, 0
0, 1
0, 0
0, 0
0, 0
0, 0
0, 0
0, 0
0, 0
0, 0
0, 0
0, 0
0, 0
0, 0
0, 0
0, 0
0, 0
0, 0
0, 0
0, 0
0, 0
0, 0
0, 0
0, 0
0, 0
0, 0
0, 0
0, 0
0, 0
0, 0
0, 0
0, 0
0, 0
0, 0
0, 0
0, 0
0, 0
0, 0
0, 0
0, 0
0, 0
0, 0
0, 0
0, 0
0, 0
0, 0
0, 0
0, 0
0, 0
0, 0
0, 0
0, 0
0, 0
0, 0
0, 0
0, 0
0, 0
0, 0
0, 0
0, 0
0, 0
0, 0
0, 0
0, 0
0, 0
0, 0
0, 0
0, 0
0, 0
0, 0
0, 0
0, 0
0, 0
0, 0
0, 0
0, 0
0, 0
0, 0
0, 0
0, 0
0, 0
0, 0
0, 0
0, 0
#ENDOFDATA     end of spectrum data

File: ps__0257_0689790785_000rfs_shot_3221.msa
#FORMAT      : EMSA/MAS spectral data file
#VERSION     : TC202v2.0 PIXL
#TITLE       : N/A
#DATE        :       Date in the format DD-MMM-YYYY, for example 07-JUL-2010
#TIME        :             The time of day at which the spectrum was recorded, in 24-hour format
#OWNER       : PIXL Flight Model       (PIXL will use this to indicate which instrument took the data.)
#NPOINTS     : 4096     Number of data points in the spectrum (This can be zero for configuration only files)
#NCOLUMNS    : 2     Number of data columns in the spectrum (This can be zero for configuration only files)
#XUNITS      : eV
#YUNITS      : COUNTS
#DATATYPE    : YY
#XPERCHAN    : 7.862, 7.881   eV per channel (separate by commas if more than one detector)
#OFFSET      : 18.5, -22.4         eV of first channel  (separate by commas if more than one detector
#SIGNALTYPE  : XRF
#YP_TEMP     : 2.909
#LIVETIME    : 9.05951, 9.07307   seconds (separate by commas if more than one detector)
#REALTIME    : 10, 10.0   seconds (separate by commas if more than one detector)
#SPECTRUM    : start of spectrum data
0, 0
0, 0
0, 0
0, 0
0, 0
0, 0
0, 0
0, 0
1, 2
2, 1
2, 2
29, 26
34, 25
2, 3
2, 10
119, 119
742, 683
126, 106
8, 8
1, 2
14, 5
44, 46
15, 17
29, 19
148, 148
106, 103
60, 39
26, 19
14, 12
5, 4
4, 4
8, 3
5, 6
44, 43
54, 68
7, 9
7, 5
16, 11
11, 9
8, 6
6, 8
22, 10
15, 22
19, 9
12, 15
15, 13
13, 17
17, 9
19, 17
13, 25
13, 35
11, 21
15, 15
31, 41
68, 57
23, 17
38, 31
464, 558
2564, 2648
1599, 1273
124, 92
24, 20
24, 28
145, 150
402, 390
223, 180
24, 12
4, 5
11, 10
5, 2
3, 4
5, 8
1, 5
5, 6
6, 2
8, 10
6, 7
6, 1
4, 6
9, 6
4, 12
6, 5
5, 8
6, 7
3, 6
10, 8
3, 2
8, 6
6, 10
7, 7
6, 5
5, 2
2, 6
4, 4
2, 3
5, 2
7, 3
6, 3
2, 7
2, 2
6, 5
4, 5
4, 2
2, 3
3, 1
4, 1
1, 2
2, 3
1, 2
1, 4
4, 4
4, 3
2, 3
3, 5
0, 2
1, 4
4, 2
4, 1
0, 1
2, 1
3, 4
2, 1
2, 1
4, 1
1, 0
1, 0
0, 1
2, 2
2, 1
2, 1
1, 0
1, 1
2, 3
2, 2
0, 2
0, 0
1, 3
0, 1
0, 1
0, 1
1, 0
1, 2
1, 1
0, 0
1, 1
1, 2
0, 1
0, 1
1, 1
0, 0
0, 2
1, 1
0, 1
0, 1
1, 0
0, 0
1, 0
1, 0
0, 0
0, 0
0, 0
1, 1
0, 0
0, 1
0, 1
0, 0
0, 0
1, 0
1, 0
1, 0
0, 0
1, 1
1, 0
0, 0
0, 0
0, 0
0, 0
0, 0
0, 0
0, 0
0, 0
0, 0
0, 0
0, 0
0, 0
0, 1
0, 0
0, 1
0, 0
0, 0
0, 0
0, 0
0, 1
0, 0
0, 0
0, 0
0, 0
0, 0
0, 0
0, 0
0, 0
0, 0
0, 0
0, 0
0, 0
0, 0
0, 0
0, 0
0, 0
0, 0
0, 1
0, 0
0, 0
0, 0
0, 0
0, 0
0, 0
0, 0
0, 0
0, 0
0, 0
0, 0
0, 0
0, 1
0, 0
0, 0
0, 0
0, 0
0, 0
0, 0
0, 0
0, 0
0, 0
0, 0
0, 0
0, 0
0, 0
0, 0
0, 0
0, 0
0, 0
0, 0
0, 0
0, 0
0, 0
0, 0
0, 0
0, 0
0, 0
0, 0
0, 0
0, 0
0, 0
0, 0
0, 0
0, 0
0, 0
0, 0
0, 0
0, 0
0, 0
0, 0
0, 0
0, 0
0, 0
0, 0
0, 0
0, 0
0, 0
0, 0
0, 0
0, 0
0, 0
0, 0
0, 0
0, 0
0, 0
0, 0
0, 0
0, 0
0, 0
0, 0
0, 0
0, 0
0, 0
0, 0
0, 0
0, 0
0, 0
0, 0
0, 0
0, 0
0, 0
0, 0
#ENDOFDATA     end of spectrum data

File: ps__0257_0689790785_000rfs_shot_3223.msa
#FORMAT      : EMSA/MAS spectral data file
#VERSION     : TC202v2.0 PIXL
#TITLE       : N/A
#DATE        :       Date in the format DD-MMM-YYYY, for example 07-JUL-2010
#TIME        :             The time of day at which the spectrum was recorded, in 24-hour format
#OWNER       : PIXL Flight Model       (PIXL will use this to indicate which instrument took the data.)
#NPOINTS     : 4096     Number of data points in the spectrum (This can be zero for configuration only files)
#NCOLUMNS    : 2     Number of data columns in the spectrum (This can be zero for configuration only files)
#XUNITS      : eV
#YUNITS      : COUNTS
#DATATYPE    : YY
#XPERCHAN    : 7.862, 7.881   eV per channel (separate by commas if more than one detector)
#OFFSET      : 18.5, -22.4         eV of first channel  (separate by commas if more than one detector
#SIGNALTYPE  : XRF
#YP_TEMP     : 2.909
#LIVETIME    : 8.96644, 8.97446   seconds (separate by commas if more than one detector)
#REALTIME    : 10, 10.0   seconds (separate by commas if more than one detector)
#SPECTRUM    : start of spectrum data
0, 0
0, 0
0, 0
0, 0
0, 0
0, 0
0, 0
0, 0
0, 0
5, 5
1, 1
28, 27
23, 35
4, 4
1, 1
10, 10
79, 62
13, 22
6, 2
3, 1
3, 3
17, 13
7, 5
14, 14
97, 108
109, 85
34, 36
39, 31
16, 10
7, 7
6, 7
9, 0
7, 11
161, 151
246, 187
28, 27
31, 32
33, 32
31, 9
13, 8
16, 12
19, 15
29, 54
23, 33
12, 8
21, 15
9, 13
14, 12
17, 19
21, 18
11, 18
19, 13
30, 19
118, 107
160, 144
34, 38
57, 46
694, 816
3827, 3836
2402, 1913
180, 119
33, 21
37, 46
178, 175
577, 575
297, 272
20, 14
4, 8
4, 3
4, 3
5, 2
7, 3
9, 2
4, 3
1, 1
8, 6
4, 5
5, 8
5, 2
10, 3
4, 7
6, 10
6, 4
3, 7
4, 4
5, 6
5, 4
1, 5
6, 3
2, 2
2, 4
5, 4
8, 2
2, 3
5, 2
6, 4
1, 3
3, 4
2, 1
5, 5
6, 3
3, 3
1, 3
8, 3
1, 5
5, 4
3, 0
7, 1
2, 1
0, 4
0, 2
0, 1
3, 6
3, 2
3, 2
5, 4
6, 3
6, 2
2, 2
0, 1
1, 1
0, 4
0, 3
0, 0
1, 2
1, 0
1, 0
4, 0
1, 4
0, 1
0, 0
0, 3
3, 0
1, 1
1, 1
1, 1
2, 0
1, 0
0, 0
1, 1
0, 0
1, 0
0, 2
0, 1
0, 2
1, 0
1, 0
0, 0
1, 0
0, 0
1, 0
0, 0
0, 0
0, 0
0, 1
0, 2
0, 0
0, 0
2, 0
0, 0
1, 0
1, 0
1, 0
0, 0
1, 0
0, 0
0, 0
0, 0
0, 0
0, 0
0, 0
1, 0
0, 1
0, 0
0, 0
0, 0
1, 0
0, 0
1, 0
0, 0
0, 0
0, 0
0, 1
0, 0
0, 0
0, 0
1, 0
0, 0
0, 0
0, 0
0, 0
0, 0
0, 0
0, 0
0, 0
0, 0
0, 0
0, 0
0, 0
0, 0
0, 0
0, 0
0, 0
0, 0
0, 0
0, 0
0, 0
0, 0
0, 0
0, 0
0, 0
0, 0
0, 0
0, 0
0, 0
0, 0
0, 0
0, 0
0, 0
0, 0
0, 0
0, 1
0, 0
0, 0
0, 0
0, 0
0, 0
0, 0
0, 0
0, 0
0, 0
0, 0
0, 0
0, 0
0, 0
0, 0
0, 0
0, 0
0, 0
0, 0
0, 0
0, 0
0, 0
0, 0
0, 0
0, 0
0, 0
0, 0
0, 0
0, 0
0, 0
0, 0
0, 0
0, 0
0, 0
0, 0
0, 0
0, 0
0, 0
0, 0
0, 0
0, 0
0, 0
0, 0
0, 0
0, 0
0, 0
0, 0
0, 0
0, 0
0, 0
0, 0
0, 0
0, 0
0, 0
0, 0
0, 0
0, 0
0, 0
0, 0
0, 0
0, 0
0, 0
0, 0
0, 0
0, 0
0, 0
0, 0
0, 0
0, 0
0, 0
0, 0
0, 0
0, 0
#ENDOFDATA     end of spectrum data

File: ps__0257_0689790785_000rfs_shot_3226.msa
#FORMAT      : EMSA/MAS spectral data file
#VERSION     : TC202v2.0 PIXL
#TITLE       : N/A
#DATE        :       Date in the format DD-MMM-YYYY, for example 07-JUL-2010
#TIME        :             The time of day at which the spectrum was recorded, in 24-hour format
#OWNER       : PIXL Flight Model       (PIXL will use this to indicate which instrument took the data.)
#NPOINTS     : 4096     Number of data points in the spectrum (This can be zero for configuration only files)
#NCOLUMNS    : 2     Number of data columns in the spectrum (This can be zero for configuration only files)
#XUNITS      : eV
#YUNITS      : COUNTS
#DATATYPE    : YY
#XPERCHAN    : 7.862, 7.881   eV per channel (separate by commas if more than one detector)
#OFFSET      : 18.5, -22.4         eV of first channel  (separate by commas if more than one detector
#SIGNALTYPE  : XRF
#YP_TEMP     : 3.069
#LIVETIME    : 8.99261, 8.97616   seconds (separate by commas if more than one detector)
#REALTIME    : 10, 10.0   seconds (separate by commas if more than one detector)
#SPECTRUM    : start of spectrum data
0, 0
0, 0
0, 0
0, 0
0, 0
0, 0
0, 0
0, 0
1, 0
2, 4
2, 3
22, 16
23, 18
3, 1
7, 6
90, 67
516, 522
84, 113
3, 7
1, 3
13, 12
73, 89
21, 31
33, 31
145, 200
135, 126
52, 54
27, 29
10, 7
4, 5
6, 3
3, 4
7, 6
70, 75
116, 120
14, 15
18, 18
17, 15
9, 11
5, 7
9, 12
16, 25
31, 31
20, 22
17, 6
21, 12
17, 16
6, 14
13, 22
9, 21
22, 16
11, 10
20, 21
88, 92
102, 149
29, 37
34, 45
611, 833
3361, 3832
2086, 1954
181, 147
28, 30
31, 48
119, 190
528, 593
287, 244
26, 19
5, 6
7, 15
14, 9
5, 6
3, 4
3, 8
8, 6
6, 8
6, 3
13, 7
7, 7
3, 7
6, 2
11, 7
5, 3
5, 4
4, 8
4, 3
7, 5
4, 3
6, 4
5, 2
2, 3
2, 0
8, 10
7, 6
8, 5
2, 4
2, 5
3, 1
8, 3
5, 0
3, 0
2, 4
1, 1
1, 2
1, 3
1, 9
4, 3
2, 1
2, 5
3, 5
1, 2
2, 2
1, 1
3, 0
1, 3
0, 6
3, 2
5, 6
2, 4
3, 2
1, 2
0, 1
4, 1
0, 4
2, 1
1, 1
2, 0
0, 0
4, 0
1, 1
0, 0
0, 0
2, 0
2, 0
1, 0
0, 2
1, 0
0, 0
0, 0
1, 1
0, 0
0, 0
1, 3
0, 1
0, 0
1, 0
0, 1
1, 0
0, 0
1, 0
0, 0
1, 1
0, 1
0, 0
0, 0
0, 1
1, 0
0, 0
0, 1
0, 0
0, 1
0, 1
0, 0
0, 0
0, 1
0, 1
0, 2
1, 1
1, 1
0, 0
0, 0
0, 0
0, 0
0, 0
0, 0
0, 0
0, 1
0, 0
0, 1
0, 0
0, 0
0, 0
0, 0
0, 0
0, 0
0, 0
0, 0
0, 0
0, 0
0, 0
0, 0
0, 0
0, 0
0, 0
0, 0
0, 0
0, 0
0, 0
0, 0
0, 0
0, 0
0, 0
0, 0
0, 0
0, 0
0, 0
0, 0
0, 0
0, 0
0, 0
0, 0
0, 0
0, 0
0, 0
0, 0
0, 0
0, 0
0, 0
0, 0
0, 0
0, 0
0, 0
0, 0
1, 0
0, 0
0, 0
0, 0
0, 0
0, 0
0, 0
0, 0
0, 0
0, 0
0, 0
0, 0
0, 0
0, 0
0, 0
0, 0
0, 0
0, 0
0, 0
0, 0
0, 0
0, 0
0, 0
0, 0
0, 0
0, 0
0, 0
0, 0
0, 0
0, 0
0, 0
0, 0
0, 0
0, 0
0, 0
0, 0
0, 0
0, 0
0, 0
0, 0
0, 0
0, 0
0, 0
0, 0
0, 0
0, 0
0, 0
0, 0
0, 0
0, 0
0, 0
0, 0
0, 0
0, 0
0, 0
0, 0
0, 0
0, 0
0, 0
0, 0
0, 0
0, 0
0, 0
0, 0
0, 0
0, 0
0, 0
0, 0
0, 0
0, 0
0, 0
0, 0
#ENDOFDATA     end of spectrum data

File: ps__0257_0689790785_000rfs_shot_3228.msa
#FORMAT      : EMSA/MAS spectral data file
#VERSION     : TC202v2.0 PIXL
#TITLE       : N/A
#DATE        :       Date in the format DD-MMM-YYYY, for example 07-JUL-2010
#TIME        :             The time of day at which the spectrum was recorded, in 24-hour format
#OWNER       : PIXL Flight Model       (PIXL will use this to indicate which instrument took the data.)
#NPOINTS     : 4096     Number of data points in the spectrum (This can be zero for configuration only files)
#NCOLUMNS    : 2     Number of data columns in the spectrum (This can be zero for configuration only files)
#XUNITS      : eV
#YUNITS      : COUNTS
#DATATYPE    : YY
#XPERCHAN    : 7.862, 7.881   eV per channel (separate by commas if more than one detector)
#OFFSET      : 18.5, -22.4         eV of first channel  (separate by commas if more than one detector
#SIGNALTYPE  : XRF
#YP_TEMP     : 3.165
#LIVETIME    : 9.01847, 9.00865   seconds (separate by commas if more than one detector)
#REALTIME    : 10, 10.0   seconds (separate by commas if more than one detector)
#SPECTRUM    : start of spectrum data
0, 0
0, 0
0, 0
0, 0
0, 0
0, 0
0, 0
0, 0
2, 2
5, 4
1, 5
23, 26
30, 31
8, 12
22, 15
91, 72
519, 578
72, 92
6, 8
3, 0
11, 11
72, 68
16, 19
30, 46
180, 207
123, 136
46, 64
26, 33
14, 11
7, 11
13, 23
17, 16
11, 8
49, 65
71, 95
8, 8
8, 12
13, 20
6, 8
7, 8
10, 8
24, 24
20, 30
21, 13
11, 14
11, 8
13, 12
14, 9
12, 18
18, 25
10, 14
14, 11
22, 17
73, 78
77, 89
26, 25
46, 53
549, 777
2999, 3600
1891, 1746
146, 134
27, 15
36, 33
134, 152
457, 549
258, 235
17, 20
5, 9
6, 11
4, 7
4, 6
6, 6
3, 4
7, 7
6, 3
7, 4
1, 6
2, 8
9, 10
6, 5
2, 5
3, 9
7, 4
5, 7
6, 3
6, 5
1, 3
8, 9
5, 3
5, 2
3, 5
3, 3
4, 3
6, 8
1, 5
2, 4
3, 1
0, 6
4, 1
3, 2
1, 6
5, 2
3, 1
3, 1
1, 1
1, 0
5, 3
3, 1
1, 1
2, 0
3, 0
2, 2
0, 1
5, 0
1, 2
5, 6
6, 8
4, 3
0, 3
1, 0
1, 1
3, 1
0, 0
4, 1
1, 0
1, 1
3, 0
1, 0
2, 0
0, 1
3, 2
1, 0
2, 2
1, 1
0, 2
0, 0
2, 0
0, 1
0, 0
1, 0
3, 1
0, 1
0, 0
0, 1
0, 1
0, 1
0, 1
0, 0
0, 0
2, 0
0, 0
0, 0
0, 1
0, 0
0, 0
0, 0
0, 0
0, 0
0, 0
1, 0
0, 0
0, 0
0, 0
0, 1
0, 1
0, 0
0, 0
0, 1
0, 0
0, 0
0, 0
0, 0
0, 0
0, 0
0, 0
1, 0
0, 1
1, 0
0, 0
0, 0
0, 0
1, 1
0, 1
0, 1
1, 0
0, 0
0, 0
0, 1
0, 0
0, 1
0, 0
0, 0
0, 0
0, 0
0, 0
0, 0
0, 0
0, 0
0, 0
0, 0
0, 0
1, 0
0, 0
0, 0
0, 0
0, 0
0, 0
0, 0
0, 0
0, 0
0, 0
0, 0
0, 0
0, 0
0, 0
0, 0
0, 0
0, 0
0, 0
0, 0
0, 0
0, 0
0, 0
0, 0
0, 0
0, 0
0, 0
0, 0
0, 0
0, 0
0, 0
0, 0
0, 0
0, 0
0, 0
0, 0
0, 0
0, 0
0, 0
0, 0
0, 0
0, 0
0, 0
0, 0
0, 0
0, 0
0, 0
0, 0
0, 0
0, 0
0, 0
0, 0
0, 0
0, 0
0, 0
0, 0
0, 0
0, 0
0, 0
0, 0
0, 0
0, 0
0, 0
0, 0
0, 0
0, 0
0, 0
0, 0
0, 0
0, 0
0, 0
0, 0
0, 0
0, 0
0, 0
0, 0
0, 0
0, 0
0, 0
0, 0
0, 0
0, 0
0, 0
0, 0
0, 0
0, 0
0, 0
0, 0
0, 0
0, 0
0, 0
0, 0
0, 0
0, 0
#ENDOFDATA     end of spectrum data

File: ps__0257_0689790785_000rfs_shot_3230.msa
#FORMAT      : EMSA/MAS spectral data file
#VERSION     : TC202v2.0 PIXL
#TITLE       : N/A
#DATE        :       Date in the format DD-MMM-YYYY, for example 07-JUL-2010
#TIME        :             The time of day at which the spectrum was recorded, in 24-hour format
#OWNER       : PIXL Flight Model       (PIXL will use this to indicate which instrument took the data.)
#NPOINTS     : 4096     Number of data points in the spectrum (This can be zero for configuration only files)
#NCOLUMNS    : 2     Number of data columns in the spectrum (This can be zero for configuration only files)
#XUNITS      : eV
#YUNITS      : COUNTS
#DATATYPE    : YY
#XPERCHAN    : 7.862, 7.881   eV per channel (separate by commas if more than one detector)
#OFFSET      : 18.5, -22.4         eV of first channel  (separate by commas if more than one detector
#SIGNALTYPE  : XRF
#YP_TEMP     : 3.326
#LIVETIME    : 9.08724, 9.08496   seconds (separate by commas if more than one detector)
#REALTIME    : 10, 10.0   seconds (separate by commas if more than one detector)
#SPECTRUM    : start of spectrum data
0, 0
0, 0
0, 0
0, 0
0, 0
0, 0
0, 0
0, 0
1, 3
3, 2
3, 5
27, 19
34, 19
6, 11
16, 14
74, 90
517, 511
110, 76
4, 5
0, 5
9, 4
30, 35
17, 17
39, 29
173, 206
164, 141
44, 59
27, 30
9, 11
4, 10
23, 12
5, 7
7, 5
63, 48
82, 84
10, 9
13, 18
21, 12
12, 3
12, 5
4, 10
24, 14
32, 23
23, 13
15, 8
19, 13
15, 15
13, 11
12, 19
14, 13
17, 12
13, 16
25, 18
58, 45
65, 63
20, 26
26, 37
456, 545
2363, 2543
1546, 1304
99, 94
20, 17
30, 25
99, 120
397, 387
196, 160
29, 20
6, 6
6, 10
9, 6
8, 9
6, 9
8, 8
6, 11
6, 2
7, 4
6, 6
8, 2
11, 3
13, 8
9, 4
9, 10
10, 7
2, 5
6, 3
9, 4
5, 6
3, 6
4, 8
4, 6
6, 3
2, 9
7, 6
4, 4
4, 4
5, 4
2, 2
1, 1
2, 6
5, 4
4, 4
3, 6
1, 0
4, 1
1, 5
3, 2
3, 1
3, 2
4, 3
1, 3
3, 1
3, 3
1, 2
1, 1
0, 3
2, 3
2, 7
6, 3
2, 2
1, 1
3, 3
3, 1
3, 4
0, 1
2, 2
1, 0
1, 1
1, 1
1, 3
2, 2
3, 0
1, 2
0, 0
1, 2
1, 1
1, 1
0, 0
4, 1
1, 0
0, 3
2, 1
1, 0
0, 2
0, 1
1, 0
2, 1
1, 2
1, 0
0, 0
0, 1
0, 0
1, 1
0, 0
0, 0
0, 0
0, 0
0, 0
0, 1
1, 0
0, 0
0, 0
0, 0
1, 0
1, 0
0, 0
1, 0
0, 0
0, 0
0, 1
0, 1
0, 0
0, 0
0, 1
0, 0
0, 1
0, 0
0, 0
0, 0
0, 0
0, 0
0, 0
0, 0
0, 2
0, 0
0, 0
0, 0
0, 0
0, 0
0, 0
0, 0
0, 0
0, 0
0, 0
0, 1
0, 0
0, 0
0, 0
1, 0
0, 0
0, 0
0, 0
0, 0
0, 0
0, 0
0, 0
0, 0
0, 0
0, 0
0, 0
0, 0
0, 0
1, 0
0, 0
1, 0
0, 0
0, 0
0, 0
0, 0
0, 0
0, 0
0, 0
0, 0
0, 0
0, 0
0, 0
0, 0
0, 0
0, 0
0, 0
0, 0
0, 0
0, 0
0, 0
0, 0
0, 0
0, 0
0, 0
0, 0
0, 0
0, 0
0, 0
0, 0
0, 0
0, 0
0, 0
0, 0
0, 0
0, 0
0, 0
0, 0
0, 0
0, 0
0, 0
0, 0
0, 0
0, 0
0, 0
0, 0
0, 0
0, 0
0, 0
0, 0
0, 0
0, 0
0, 0
0, 0
0, 0
0, 0
0, 0
0, 0
0, 0
0, 0
0, 0
0, 0
0, 0
0, 0
0, 0
0, 0
0, 0
0, 0
0, 0
0, 0
0, 0
0, 0
0, 0
0, 0
0, 0
0, 0
0, 0
0, 0
0, 0
0, 0
0, 0
0, 0
#ENDOFDATA     end of spectrum data

File: ps__0257_0689790785_000rfs_shot_3232.msa
#FORMAT      : EMSA/MAS spectral data file
#VERSION     : TC202v2.0 PIXL
#TITLE       : N/A
#DATE        :       Date in the format DD-MMM-YYYY, for example 07-JUL-2010
#TIME        :             The time of day at which the spectrum was recorded, in 24-hour format
#OWNER       : PIXL Flight Model       (PIXL will use this to indicate which instrument took the data.)
#NPOINTS     : 4096     Number of data points in the spectrum (This can be zero for configuration only files)
#NCOLUMNS    : 2     Number of data columns in the spectrum (This can be zero for configuration only files)
#XUNITS      : eV
#YUNITS      : COUNTS
#DATATYPE    : YY
#XPERCHAN    : 7.862, 7.881   eV per channel (separate by commas if more than one detector)
#OFFSET      : 18.5, -22.4         eV of first channel  (separate by commas if more than one detector
#SIGNALTYPE  : XRF
#YP_TEMP     : 2.781
#LIVETIME    : 9.07743, 9.07652   seconds (separate by commas if more than one detector)
#REALTIME    : 10, 10.0   seconds (separate by commas if more than one detector)
#SPECTRUM    : start of spectrum data
0, 0
0, 0
0, 0
0, 0
0, 0
0, 0
0, 0
0, 1
1, 5
1, 5
3, 3
25, 15
30, 17
13, 8
17, 22
82, 94
564, 710
127, 87
12, 15
12, 10
5, 6
22, 25
8, 9
26, 37
185, 197
155, 129
63, 65
32, 36
11, 10
10, 3
21, 23
8, 8
5, 5
53, 51
88, 75
8, 11
12, 11
14, 19
6, 13
6, 12
10, 7
17, 17
16, 27
28, 9
18, 11
13, 19
16, 7
11, 14
20, 7
11, 17
17, 18
14, 12
22, 19
53, 50
64, 55
26, 11
23, 38
493, 576
2511, 2684
1538, 1372
120, 104
36, 25
28, 33
107, 113
347, 394
220, 187
16, 17
3, 9
10, 9
10, 8
6, 6
6, 7
14, 10
5, 8
5, 5
10, 8
7, 4
6, 10
7, 8
11, 6
5, 8
3, 9
3, 5
7, 6
5, 6
7, 3
3, 4
2, 6
0, 7
7, 5
0, 12
6, 5
5, 8
4, 7
5, 7
3, 4
6, 5
2, 3
7, 4
5, 5
2, 6
3, 0
4, 5
3, 3
1, 4
3, 3
1, 2
4, 6
2, 3
2, 1
0, 1
1, 3
2, 5
1, 5
3, 4
2, 4
3, 4
3, 2
4, 3
2, 1
3, 4
4, 4
2, 3
2, 5
1, 1
0, 1
1, 1
0, 1
3, 2
0, 2
3, 2
0, 1
2, 2
0, 1
0, 0
0, 1
2, 1
0, 1
1, 0
0, 0
0, 1
2, 0
1, 1
1, 0
0, 1
0, 0
0, 0
1, 0
1, 0
2, 0
0, 2
1, 1
0, 0
0, 0
0, 1
2, 0
0, 1
0, 0
0, 1
1, 0
0, 1
0, 1
0, 0
0, 1
0, 0
0, 0
1, 0
1, 0
0, 0
0, 1
0, 1
1, 0
0, 0
0, 0
0, 0
1, 0
0, 0
0, 0
0, 0
0, 0
0, 0
1, 0
0, 0
0, 0
0, 0
0, 0
0, 0
0, 0
0, 0
0, 0
0, 0
0, 0
0, 0
0, 0
0, 0
0, 0
0, 0
0, 0
0, 0
0, 0
0, 0
0, 0
0, 0
0, 0
0, 0
0, 0
0, 0
0, 0
0, 0
0, 0
0, 0
0, 0
0, 0
0, 0
0, 0
0, 0
0, 0
0, 0
0, 0
0, 0
0, 0
0, 0
0, 0
0, 0
0, 0
0, 0
0, 0
0, 0
0, 0
0, 0
0, 0
0, 0
0, 0
0, 0
0, 0
0, 0
0, 0
0, 0
0, 0
0, 0
0, 0
0, 0
0, 0
0, 0
0, 0
0, 0
0, 0
0, 0
0, 0
0, 0
0, 0
0, 0
0, 0
0, 0
0, 0
0, 0
0, 0
0, 0
0, 0
0, 0
0, 0
0, 0
0, 0
0, 0
0, 0
0, 0
0, 0
0, 0
0, 0
0, 0
0, 0
0, 0
0, 0
0, 0
0, 0
0, 0
0, 0
0, 0
0, 0
0, 0
0, 0
0, 0
0, 0
0, 0
0, 0
0, 0
0, 0
0, 0
0, 0
0, 0
0, 0
0, 0
0, 0
0, 0
#ENDOFDATA     end of spectrum data

File: ps__0257_0689790785_000rfs_shot_3234.msa
#FORMAT      : EMSA/MAS spectral data file
#VERSION     : TC202v2.0 PIXL
#TITLE       : N/A
#DATE        :       Date in the format DD-MMM-YYYY, for example 07-JUL-2010
#TIME        :             The time of day at which the spectrum was recorded, in 24-hour format
#OWNER       : PIXL Flight Model       (PIXL will use this to indicate which instrument took the data.)
#NPOINTS     : 4096     Number of data points in the spectrum (This can be zero for configuration only files)
#NCOLUMNS    : 2     Number of data columns in the spectrum (This can be zero for configuration only files)
#XUNITS      : eV
#YUNITS      : COUNTS
#DATATYPE    : YY
#XPERCHAN    : 7.862, 7.881   eV per channel (separate by commas if more than one detector)
#OFFSET      : 18.5, -22.4         eV of first channel  (separate by commas if more than one detector
#SIGNALTYPE  : XRF
#YP_TEMP     : 2.941
#LIVETIME    : 9.11689, 9.12852   seconds (separate by commas if more than one detector)
#REALTIME    : 10, 10.0   seconds (separate by commas if more than one detector)
#SPECTRUM    : start of spectrum data
0, 0
0, 0
0, 0
0, 0
0, 0
0, 0
0, 0
1, 0
2, 6
4, 6
4, 5
27, 19
28, 22
8, 7
17, 18
81, 53
551, 521
99, 75
8, 7
3, 4
2, 8
34, 25
18, 13
47, 44
254, 251
168, 153
65, 54
32, 29
8, 11
10, 7
28, 17
9, 11
9, 6
28, 46
59, 67
4, 9
7, 8
16, 20
9, 15
10, 7
10, 6
18, 18
24, 23
29, 11
12, 9
15, 15
9, 13
12, 19
12, 21
15, 17
7, 11
14, 10
15, 9
46, 34
48, 44
23, 23
26, 25
378, 466
2025, 2088
1219, 1086
86, 70
23, 16
28, 26
97, 109
313, 340
186, 153
19, 15
7, 12
7, 8
6, 3
4, 3
6, 6
5, 6
7, 6
11, 16
10, 7
4, 11
12, 9
9, 10
8, 9
4, 6
7, 6
5, 8
8, 7
2, 1
9, 7
8, 8
8, 4
1, 6
3, 3
4, 6
8, 4
4, 4
4, 5
6, 2
10, 5
7, 1
2, 4
3, 3
4, 2
2, 9
3, 3
4, 3
2, 2
4, 5
2, 3
3, 4
2, 3
2, 1
2, 0
4, 6
5, 2
1, 2
1, 3
3, 2
4, 1
4, 3
4, 5
1, 4
2, 0
0, 1
1, 4
3, 1
1, 0
0, 0
2, 0
0, 2
1, 2
3, 1
0, 2
3, 0
0, 3
0, 0
1, 0
2, 1
0, 0
1, 1
2, 0
0, 1
1, 2
1, 1
2, 0
0, 0
0, 2
1, 1
0, 1
0, 1
1, 2
0, 0
0, 0
0, 0
0, 1
0, 0
0, 1
0, 1
0, 0
0, 1
0, 0
0, 0
0, 0
1, 0
1, 0
0, 0
1, 0
0, 0
0, 0
1, 0
0, 1
1, 0
0, 1
0, 1
0, 1
0, 0
0, 0
0, 0
0, 0
0, 0
0, 0
0, 0
0, 0
0, 0
0, 0
0, 0
0, 0
0, 0
0, 1
0, 0
0, 0
0, 0
0, 0
0, 0
0, 0
0, 0
0, 0
0, 0
0, 0
0, 0
0, 0
0, 0
0, 1
0, 0
0, 0
0, 0
0, 0
0, 0
0, 0
0, 0
0, 0
0, 0
0, 0
0, 0
0, 0
0, 0
0, 0
0, 0
0, 0
0, 0
0, 0
0, 0
0, 0
0, 0
0, 0
0, 0
0, 0
0, 0
0, 0
0, 0
0, 0
0, 0
0, 0
0, 0
0, 0
0, 0
0, 0
0, 0
0, 0
0, 0
0, 0
0, 0
0, 0
0, 0
0, 0
0, 0
0, 0
0, 0
0, 0
0, 0
0, 0
0, 0
0, 0
0, 0
0, 0
0, 0
0, 0
0, 0
0, 0
0, 0
0, 0
0, 0
0, 0
0, 0
0, 0
0, 0
0, 0
0, 0
0, 0
0, 0
0, 0
0, 0
0, 0
0, 0
0, 0
0, 0
0, 0
0, 0
0, 0
0, 0
0, 0
0, 0
0, 0
0, 0
0, 0
0, 0
0, 0
0, 0
0, 0
0, 0
0, 0
0, 0
0, 0
0, 0
0, 0
0, 0
0, 0
#ENDOFDATA     end of spectrum data

File: ps__0257_0689790785_000rfs_shot_3235.msa
#FORMAT      : EMSA/MAS spectral data file
#VERSION     : TC202v2.0 PIXL
#TITLE       : N/A
#DATE        :       Date in the format DD-MMM-YYYY, for example 07-JUL-2010
#TIME        :             The time of day at which the spectrum was recorded, in 24-hour format
#OWNER       : PIXL Flight Model       (PIXL will use this to indicate which instrument took the data.)
#NPOINTS     : 4096     Number of data points in the spectrum (This can be zero for configuration only files)
#NCOLUMNS    : 2     Number of data columns in the spectrum (This can be zero for configuration only files)
#XUNITS      : eV
#YUNITS      : COUNTS
#DATATYPE    : YY
#XPERCHAN    : 7.862, 7.881   eV per channel (separate by commas if more than one detector)
#OFFSET      : 18.5, -22.4         eV of first channel  (separate by commas if more than one detector
#SIGNALTYPE  : XRF
#YP_TEMP     : 2.845
#LIVETIME    : 9.0638, 9.05343   seconds (separate by commas if more than one detector)
#REALTIME    : 10, 10.0   seconds (separate by commas if more than one detector)
#SPECTRUM    : start of spectrum data
0, 0
0, 0
0, 0
0, 0
0, 0
0, 0
0, 0
0, 0
3, 5
4, 3
0, 1
23, 20
21, 30
8, 5
13, 9
73, 82
542, 538
91, 80
6, 7
2, 2
8, 9
56, 72
25, 19
46, 51
231, 267
145, 142
49, 66
23, 31
11, 13
4, 0
13, 17
11, 7
3, 6
53, 50
66, 62
14, 7
8, 11
17, 17
13, 13
8, 5
7, 12
17, 19
22, 25
12, 14
17, 5
10, 20
8, 15
10, 19
7, 22
18, 14
16, 9
5, 12
17, 12
39, 61
74, 81
26, 28
23, 44
473, 658
2607, 2968
1579, 1435
116, 102
21, 14
35, 28
142, 147
405, 439
235, 203
26, 18
6, 5
11, 5
10, 6
3, 5
6, 6
3, 5
5, 9
8, 11
6, 9
5, 9
9, 8
7, 4
7, 3
6, 6
7, 5
6, 7
5, 6
1, 4
5, 4
5, 5
5, 5
1, 5
4, 5
3, 2
4, 7
2, 3
5, 4
1, 6
3, 4
1, 4
3, 2
1, 2
3, 3
1, 4
1, 0
2, 4
3, 1
4, 3
3, 2
3, 0
2, 5
3, 3
3, 4
1, 2
3, 3
1, 1
0, 2
2, 0
1, 3
3, 6
3, 7
0, 3
0, 1
5, 6
3, 3
5, 3
1, 1
1, 0
2, 3
2, 0
2, 0
0, 0
0, 2
1, 0
0, 2
1, 1
1, 2
2, 2
2, 2
1, 3
0, 0
2, 1
1, 0
0, 2
0, 0
0, 0
0, 1
0, 1
0, 0
2, 0
0, 1
0, 0
1, 0
1, 1
1, 0
0, 0
0, 1
0, 0
0, 0
0, 0
1, 0
0, 0
0, 0
0, 0
0, 0
0, 1
0, 0
0, 0
0, 2
0, 0
0, 0
0, 0
1, 0
0, 0
1, 0
0, 0
1, 0
0, 0
0, 0
0, 0
1, 0
0, 0
0, 0
0, 0
0, 0
0, 1
0, 0
0, 0
0, 0
0, 1
0, 0
0, 1
0, 0
0, 0
0, 0
0, 0
0, 0
0, 0
0, 0
0, 0
0, 1
0, 0
0, 0
0, 0
0, 0
0, 0
0, 0
0, 0
0, 0
0, 0
0, 0
0, 0
0, 0
0, 0
0, 0
0, 0
0, 1
0, 0
0, 0
0, 0
0, 1
0, 0
0, 0
0, 0
0, 0
0, 0
0, 0
0, 0
0, 0
0, 0
0, 0
0, 0
0, 0
0, 0
0, 0
0, 0
0, 0
0, 0
0, 0
0, 0
0, 0
0, 0
0, 0
0, 0
0, 0
0, 0
0, 0
0, 0
0, 0
0, 0
0, 0
0, 0
0, 0
0, 0
0, 0
0, 0
0, 0
0, 0
0, 0
0, 0
0, 0
0, 0
0, 0
0, 0
0, 0
0, 0
0, 0
0, 0
0, 0
0, 0
0, 0
0, 0
0, 0
0, 0
0, 0
0, 0
0, 0
0, 0
0, 0
0, 0
0, 0
0, 0
0, 0
0, 0
0, 0
0, 0
0, 0
0, 0
0, 0
0, 0
0, 0
0, 0
0, 0
0, 0
0, 0
0, 0
0, 0
#ENDOFDATA     end of spectrum data