Folder: data-repository/host_upload/12-01-2023/Dourbes (shot-by-shot)/upload_4 (part 10)

File: ps__0257_0689790785_000rfs_shot_3167.msa
#FORMAT      : EMSA/MAS spectral data file
#VERSION     : TC202v2.0 PIXL
#TITLE       : N/A
#DATE        :       Date in the format DD-MMM-YYYY, for example 07-JUL-2010
#TIME        :             The time of day at which the spectrum was recorded, in 24-hour format
#OWNER       : PIXL Flight Model       (PIXL will use this to indicate which instrument took the data.)
#NPOINTS     : 4096     Number of data points in the spectrum (This can be zero for configuration only files)
#NCOLUMNS    : 2     Number of data columns in the spectrum (This can be zero for configuration only files)
#XUNITS      : eV
#YUNITS      : COUNTS
#DATATYPE    : YY
#XPERCHAN    : 7.862, 7.881   eV per channel (separate by commas if more than one detector)
#OFFSET      : 18.5, -22.4         eV of first channel  (separate by commas if more than one detector
#SIGNALTYPE  : XRF
#YP_TEMP     : 2.973
#LIVETIME    : 9.00393, 9.00002   seconds (separate by commas if more than one detector)
#REALTIME    : 10, 10.0   seconds (separate by commas if more than one detector)
#SPECTRUM    : start of spectrum data
0, 0
0, 0
0, 0
0, 0
0, 0
0, 0
0, 0
0, 0
0, 1
1, 0
2, 0
22, 23
35, 35
1, 4
5, 2
92, 72
502, 459
82, 79
6, 3
0, 3
3, 3
2, 3
4, 1
8, 7
21, 25
25, 28
23, 18
15, 11
6, 4
5, 3
1, 3
4, 1
1, 0
15, 15
12, 32
8, 32
36, 86
17, 9
4, 3
1, 5
12, 2
6, 9
29, 19
15, 15
7, 9
5, 9
8, 10
5, 4
14, 11
20, 11
13, 8
23, 10
21, 17
54, 69
91, 88
31, 27
27, 27
684, 800
3777, 3764
2261, 1940
185, 133
20, 6
22, 33
147, 196
543, 565
303, 245
23, 18
3, 9
6, 9
8, 2
4, 6
2, 23
3, 15
1, 11
9, 3
7, 4
3, 7
1, 6
3, 3
6, 5
2, 8
6, 6
4, 2
1, 0
0, 5
2, 3
4, 4
11, 2
6, 1
1, 1
4, 3
2, 3
1, 1
10, 2
14, 4
6, 0
2, 4
3, 1
3, 5
2, 12
0, 6
3, 3
1, 4
2, 1
1, 2
1, 1
1, 3
1, 0
3, 3
0, 4
0, 1
2, 1
4, 1
1, 3
4, 3
5, 2
5, 5
6, 4
0, 1
0, 0
1, 3
1, 3
1, 5
0, 3
0, 1
0, 1
2, 0
0, 1
3, 0
0, 2
1, 1
5, 0
1, 0
0, 0
1, 1
0, 2
1, 2
0, 1
0, 0
0, 1
0, 2
1, 1
0, 1
0, 0
3, 0
0, 0
0, 0
0, 0
0, 0
0, 1
0, 0
0, 0
1, 0
0, 1
0, 1
1, 0
1, 0
1, 0
1, 0
0, 0
0, 0
0, 1
0, 0
1, 0
0, 0
0, 0
0, 0
0, 2
0, 0
0, 0
0, 0
1, 0
0, 0
1, 0
0, 0
0, 1
0, 0
0, 0
1, 0
0, 0
0, 1
0, 0
1, 0
0, 0
0, 0
0, 0
0, 0
0, 0
0, 1
0, 1
0, 0
0, 0
0, 0
0, 0
0, 0
0, 0
0, 0
0, 0
0, 0
0, 0
0, 0
0, 0
0, 0
0, 0
0, 0
0, 0
0, 0
0, 0
0, 0
0, 0
0, 0
0, 0
0, 0
0, 0
0, 0
0, 0
1, 0
0, 0
0, 0
0, 0
0, 0
0, 0
0, 0
0, 0
0, 0
0, 0
0, 0
0, 0
0, 0
0, 0
0, 0
0, 0
0, 0
0, 0
0, 0
1, 0
0, 0
0, 0
0, 0
0, 0
0, 0
0, 0
0, 0
0, 0
0, 0
0, 0
0, 0
0, 0
0, 0
0, 0
0, 0
0, 0
0, 0
0, 0
0, 0
0, 0
0, 0
0, 0
0, 0
0, 0
0, 0
0, 0
0, 0
0, 0
0, 0
0, 0
0, 0
0, 0
0, 0
0, 0
0, 0
0, 0
0, 0
0, 0
0, 0
0, 0
0, 0
0, 0
0, 0
0, 0
0, 0
0, 0
0, 0
0, 0
0, 0
0, 0
0, 0
0, 0
0, 0
0, 0
0, 0
0, 0
0, 0
0, 0
#ENDOFDATA     end of spectrum data

File: ps__0257_0689790785_000rfs_shot_3168.msa
#FORMAT      : EMSA/MAS spectral data file
#VERSION     : TC202v2.0 PIXL
#TITLE       : N/A
#DATE        :       Date in the format DD-MMM-YYYY, for example 07-JUL-2010
#TIME        :             The time of day at which the spectrum was recorded, in 24-hour format
#OWNER       : PIXL Flight Model       (PIXL will use this to indicate which instrument took the data.)
#NPOINTS     : 4096     Number of data points in the spectrum (This can be zero for configuration only files)
#NCOLUMNS    : 2     Number of data columns in the spectrum (This can be zero for configuration only files)
#XUNITS      : eV
#YUNITS      : COUNTS
#DATATYPE    : YY
#XPERCHAN    : 7.862, 7.881   eV per channel (separate by commas if more than one detector)
#OFFSET      : 18.5, -22.4         eV of first channel  (separate by commas if more than one detector
#SIGNALTYPE  : XRF
#YP_TEMP     : 3.294
#LIVETIME    : 8.99795, 9.00193   seconds (separate by commas if more than one detector)
#REALTIME    : 10, 10.0   seconds (separate by commas if more than one detector)
#SPECTRUM    : start of spectrum data
0, 0
0, 0
0, 0
0, 0
0, 0
0, 0
0, 0
0, 0
1, 0
1, 1
1, 1
35, 29
38, 40
5, 3
2, 7
72, 82
465, 475
91, 77
2, 9
3, 4
3, 2
5, 1
4, 4
5, 5
23, 38
28, 39
19, 18
4, 23
2, 0
4, 3
1, 1
2, 4
2, 2
17, 23
30, 28
8, 24
31, 40
10, 8
5, 9
2, 2
3, 7
8, 18
15, 19
18, 16
6, 6
6, 7
9, 10
6, 9
8, 12
8, 19
13, 9
12, 10
12, 14
69, 76
96, 93
27, 16
37, 39
720, 818
3716, 3790
2260, 1826
177, 115
18, 22
28, 47
158, 191
547, 556
291, 228
34, 15
7, 14
5, 6
7, 2
5, 3
7, 9
4, 5
8, 6
5, 7
8, 6
7, 8
0, 5
3, 3
4, 3
2, 7
3, 6
5, 6
2, 1
4, 4
4, 7
1, 2
5, 0
4, 0
2, 3
3, 4
2, 3
5, 3
3, 3
3, 6
4, 4
2, 1
3, 2
1, 5
3, 9
1, 1
3, 2
1, 3
6, 3
2, 4
2, 0
1, 1
2, 1
3, 2
2, 4
3, 2
3, 1
2, 4
2, 0
2, 1
4, 6
7, 8
5, 4
3, 2
4, 1
0, 2
3, 2
5, 2
3, 2
2, 0
1, 1
1, 1
1, 0
2, 0
2, 1
7, 3
2, 1
2, 0
1, 0
0, 2
0, 1
1, 0
0, 0
0, 0
1, 1
0, 0
1, 0
1, 0
2, 0
0, 0
0, 0
0, 0
3, 0
0, 0
0, 1
3, 1
0, 1
1, 1
0, 0
1, 1
0, 0
1, 0
0, 1
0, 0
0, 1
0, 0
1, 0
0, 0
0, 0
0, 0
0, 2
0, 1
0, 1
0, 0
0, 1
0, 1
0, 0
0, 0
0, 1
2, 0
0, 1
0, 0
0, 0
0, 0
0, 0
0, 0
1, 0
0, 0
0, 0
1, 0
0, 0
0, 0
0, 0
0, 0
1, 0
0, 0
0, 0
0, 0
0, 0
0, 0
0, 1
0, 0
0, 0
0, 0
0, 0
0, 0
0, 0
0, 0
0, 0
0, 0
0, 0
0, 0
0, 0
0, 0
0, 0
0, 0
0, 0
0, 0
0, 0
0, 0
0, 0
0, 1
0, 0
0, 0
0, 0
0, 0
0, 0
0, 0
0, 0
0, 0
0, 0
0, 0
0, 0
0, 0
0, 0
0, 0
0, 0
0, 0
0, 0
0, 0
0, 0
0, 0
0, 0
0, 0
0, 0
0, 0
0, 0
0, 0
0, 0
0, 0
0, 0
0, 0
0, 0
0, 0
0, 0
0, 0
0, 0
0, 0
0, 0
0, 0
0, 0
0, 0
0, 0
0, 0
0, 0
0, 0
0, 0
0, 0
0, 0
0, 0
0, 0
0, 0
0, 0
0, 0
0, 0
0, 0
0, 0
0, 0
0, 0
0, 0
0, 0
0, 0
0, 0
0, 0
0, 0
0, 0
0, 0
0, 0
0, 0
0, 0
0, 0
0, 0
0, 0
0, 0
0, 0
0, 0
0, 0
0, 0
0, 0
#ENDOFDATA     end of spectrum data

File: ps__0257_0689790785_000rfs_shot_3172.msa
#FORMAT      : EMSA/MAS spectral data file
#VERSION     : TC202v2.0 PIXL
#TITLE       : N/A
#DATE        :       Date in the format DD-MMM-YYYY, for example 07-JUL-2010
#TIME        :             The time of day at which the spectrum was recorded, in 24-hour format
#OWNER       : PIXL Flight Model       (PIXL will use this to indicate which instrument took the data.)
#NPOINTS     : 4096     Number of data points in the spectrum (This can be zero for configuration only files)
#NCOLUMNS    : 2     Number of data columns in the spectrum (This can be zero for configuration only files)
#XUNITS      : eV
#YUNITS      : COUNTS
#DATATYPE    : YY
#XPERCHAN    : 7.862, 7.881   eV per channel (separate by commas if more than one detector)
#OFFSET      : 18.5, -22.4         eV of first channel  (separate by commas if more than one detector
#SIGNALTYPE  : XRF
#YP_TEMP     : 3.069
#LIVETIME    : 8.98312, 8.99251   seconds (separate by commas if more than one detector)
#REALTIME    : 10, 10.0   seconds (separate by commas if more than one detector)
#SPECTRUM    : start of spectrum data
0, 0
0, 0
0, 0
0, 0
0, 0
0, 0
0, 0
0, 0
2, 1
0, 2
2, 3
29, 25
50, 44
2, 2
4, 3
63, 87
497, 525
81, 78
2, 8
1, 4
2, 2
10, 6
6, 3
7, 8
34, 43
29, 37
23, 22
12, 10
6, 6
2, 5
2, 1
0, 1
1, 4
15, 16
20, 16
26, 9
196, 11
111, 7
12, 6
1, 5
2, 7
14, 11
12, 18
12, 9
6, 8
5, 20
3, 16
11, 7
11, 3
9, 11
16, 14
18, 6
16, 16
71, 56
89, 85
28, 27
39, 37
692, 819
3569, 3879
2116, 1967
164, 112
16, 17
25, 38
138, 199
495, 594
280, 259
30, 32
2, 6
7, 13
3, 5
4, 1
6, 6
17, 5
12, 2
6, 5
3, 1
4, 1
3, 10
0, 8
6, 6
3, 3
2, 4
3, 4
2, 4
0, 1
1, 4
1, 1
7, 2
3, 4
3, 2
3, 4
2, 4
3, 2
6, 4
9, 4
5, 1
0, 2
1, 0
3, 5
0, 7
5, 6
5, 0
2, 0
1, 4
0, 6
3, 0
1, 2
2, 1
2, 0
2, 1
6, 2
2, 0
5, 2
1, 4
1, 1
2, 8
6, 11
4, 6
0, 2
2, 4
0, 1
0, 4
1, 0
2, 1
2, 0
0, 1
0, 3
0, 0
1, 0
0, 1
2, 0
6, 0
1, 1
0, 0
0, 0
1, 0
1, 1
1, 0
1, 2
0, 2
0, 0
3, 0
0, 1
0, 0
0, 0
0, 0
0, 1
0, 0
0, 0
0, 0
0, 0
0, 0
0, 1
0, 0
0, 0
0, 0
1, 1
0, 0
0, 1
1, 0
1, 0
0, 0
0, 0
0, 0
1, 1
0, 0
1, 1
0, 2
1, 0
0, 0
0, 0
0, 0
0, 0
0, 1
0, 0
0, 0
0, 0
0, 0
1, 0
0, 0
0, 0
0, 0
0, 0
0, 0
1, 0
0, 0
0, 0
0, 0
0, 0
0, 0
0, 0
0, 0
0, 0
0, 0
0, 0
0, 0
0, 0
0, 0
0, 0
0, 0
0, 0
0, 0
0, 0
0, 1
0, 0
1, 0
0, 0
0, 0
0, 0
0, 0
0, 0
0, 0
0, 0
0, 0
0, 0
0, 0
0, 0
0, 0
0, 0
0, 0
0, 0
0, 0
0, 0
0, 0
0, 0
0, 0
0, 0
0, 0
0, 0
0, 0
0, 0
0, 0
0, 0
0, 0
0, 0
0, 0
0, 0
0, 0
0, 0
0, 0
0, 0
0, 0
0, 0
0, 0
0, 0
0, 0
0, 0
0, 0
0, 0
0, 0
0, 0
0, 0
0, 0
0, 0
0, 0
0, 0
0, 0
0, 0
0, 0
0, 0
0, 0
0, 0
0, 0
0, 0
0, 0
0, 0
0, 0
0, 0
0, 0
0, 0
0, 0
0, 0
0, 0
0, 0
0, 0
0, 0
0, 0
0, 0
0, 0
0, 0
0, 0
0, 0
0, 0
0, 0
0, 0
0, 0
0, 0
0, 0
0, 0
0, 0
0, 0
0, 0
0, 0
0, 0
#ENDOFDATA     end of spectrum data

File: ps__0257_0689790785_000rfs_shot_3174.msa
#FORMAT      : EMSA/MAS spectral data file
#VERSION     : TC202v2.0 PIXL
#TITLE       : N/A
#DATE        :       Date in the format DD-MMM-YYYY, for example 07-JUL-2010
#TIME        :             The time of day at which the spectrum was recorded, in 24-hour format
#OWNER       : PIXL Flight Model       (PIXL will use this to indicate which instrument took the data.)
#NPOINTS     : 4096     Number of data points in the spectrum (This can be zero for configuration only files)
#NCOLUMNS    : 2     Number of data columns in the spectrum (This can be zero for configuration only files)
#XUNITS      : eV
#YUNITS      : COUNTS
#DATATYPE    : YY
#XPERCHAN    : 7.862, 7.881   eV per channel (separate by commas if more than one detector)
#OFFSET      : 18.5, -22.4         eV of first channel  (separate by commas if more than one detector
#SIGNALTYPE  : XRF
#YP_TEMP     : 3.037
#LIVETIME    : 9.02347, 9.07611   seconds (separate by commas if more than one detector)
#REALTIME    : 10, 10.0   seconds (separate by commas if more than one detector)
#SPECTRUM    : start of spectrum data
0, 0
0, 0
0, 0
0, 0
0, 0
0, 0
0, 0
0, 0
0, 0
2, 0
5, 2
25, 17
38, 29
6, 6
12, 6
98, 60
554, 514
89, 72
13, 7
1, 4
2, 2
8, 3
5, 3
8, 8
35, 34
36, 26
20, 20
11, 12
5, 7
5, 4
5, 7
4, 2
12, 10
152, 143
300, 241
37, 26
86, 62
79, 40
8, 9
3, 5
4, 5
19, 12
22, 21
22, 15
19, 6
18, 14
8, 4
5, 3
11, 13
22, 14
26, 12
9, 4
8, 8
56, 50
82, 68
26, 24
37, 20
590, 574
3312, 2688
1992, 1371
155, 80
17, 12
21, 19
125, 135
472, 395
281, 197
24, 18
7, 3
7, 7
1, 5
6, 1
6, 9
7, 8
8, 4
6, 8
4, 6
8, 4
6, 6
2, 4
2, 1
2, 0
3, 6
0, 2
0, 7
4, 4
2, 3
5, 2
7, 4
2, 3
5, 2
5, 7
3, 6
6, 3
9, 7
10, 7
5, 2
3, 2
4, 3
4, 5
2, 1
1, 2
6, 2
3, 1
4, 0
3, 2
4, 3
2, 1
1, 3
6, 0
2, 1
1, 2
1, 1
1, 4
3, 5
0, 2
6, 4
4, 4
5, 2
2, 0
2, 2
3, 0
1, 1
3, 1
1, 1
0, 1
1, 0
3, 0
0, 0
3, 1
5, 1
4, 5
3, 1
1, 0
1, 0
1, 1
1, 0
0, 0
0, 1
2, 1
0, 0
0, 1
0, 1
0, 0
0, 0
1, 0
0, 0
1, 0
0, 0
0, 0
1, 0
1, 1
0, 0
3, 1
0, 0
0, 0
0, 0
0, 0
2, 0
0, 0
1, 1
1, 1
1, 0
0, 0
0, 0
0, 1
0, 1
1, 1
0, 0
0, 1
0, 0
0, 0
1, 0
1, 0
1, 0
0, 1
0, 1
0, 0
0, 0
0, 0
0, 0
0, 0
0, 0
0, 0
3, 0
0, 0
1, 0
0, 0
0, 0
0, 0
0, 0
0, 0
0, 0
0, 0
0, 0
0, 0
0, 0
0, 0
0, 0
0, 0
0, 0
0, 0
0, 0
0, 0
0, 0
0, 0
0, 0
0, 0
0, 0
0, 0
0, 0
0, 0
0, 0
0, 0
0, 0
0, 0
0, 0
0, 0
0, 0
0, 0
0, 0
0, 0
0, 0
0, 0
0, 0
0, 0
0, 0
0, 0
0, 0
0, 0
0, 0
0, 0
0, 0
0, 0
0, 0
0, 0
0, 0
0, 0
0, 0
0, 0
0, 0
0, 0
0, 0
0, 0
0, 0
0, 0
0, 0
0, 0
0, 0
0, 0
0, 0
0, 0
0, 0
0, 0
0, 0
0, 0
0, 0
0, 0
0, 0
0, 0
0, 0
0, 0
0, 0
0, 0
0, 0
0, 0
0, 0
0, 0
0, 0
0, 0
0, 0
0, 0
0, 0
0, 0
0, 0
0, 0
0, 0
0, 0
0, 0
0, 0
0, 0
0, 0
0, 0
0, 0
0, 0
0, 0
0, 0
0, 0
0, 0
0, 0
0, 0
0, 0
0, 0
0, 0
0, 0
#ENDOFDATA     end of spectrum data

File: ps__0257_0689790785_000rfs_shot_3175.msa
#FORMAT      : EMSA/MAS spectral data file
#VERSION     : TC202v2.0 PIXL
#TITLE       : N/A
#DATE        :       Date in the format DD-MMM-YYYY, for example 07-JUL-2010
#TIME        :             The time of day at which the spectrum was recorded, in 24-hour format
#OWNER       : PIXL Flight Model       (PIXL will use this to indicate which instrument took the data.)
#NPOINTS     : 4096     Number of data points in the spectrum (This can be zero for configuration only files)
#NCOLUMNS    : 2     Number of data columns in the spectrum (This can be zero for configuration only files)
#XUNITS      : eV
#YUNITS      : COUNTS
#DATATYPE    : YY
#XPERCHAN    : 7.862, 7.881   eV per channel (separate by commas if more than one detector)
#OFFSET      : 18.5, -22.4         eV of first channel  (separate by commas if more than one detector
#SIGNALTYPE  : XRF
#YP_TEMP     : 3.037
#LIVETIME    : 9.03567, 9.01875   seconds (separate by commas if more than one detector)
#REALTIME    : 10, 10.0   seconds (separate by commas if more than one detector)
#SPECTRUM    : start of spectrum data
0, 0
0, 0
0, 0
0, 0
0, 0
0, 0
0, 0
0, 0
1, 0
1, 3
2, 0
28, 15
40, 27
9, 4
7, 14
80, 93
525, 589
86, 87
8, 13
3, 3
3, 5
14, 16
4, 7
12, 3
38, 45
49, 45
31, 24
11, 6
5, 6
2, 4
8, 2
3, 0
9, 17
114, 141
209, 234
22, 36
35, 36
46, 39
11, 8
12, 5
10, 13
31, 36
20, 22
21, 16
15, 16
25, 15
9, 17
9, 6
11, 9
37, 28
32, 29
18, 17
11, 13
47, 46
84, 92
29, 28
42, 46
597, 730
3147, 3366
1902, 1709
151, 124
9, 15
33, 24
116, 150
490, 499
268, 243
27, 12
7, 11
5, 11
4, 4
7, 7
4, 2
4, 6
10, 5
3, 5
6, 7
5, 9
5, 8
6, 4
2, 4
3, 5
1, 4
5, 6
1, 4
3, 4
3, 4
5, 3
7, 4
4, 1
8, 4
3, 6
2, 3
8, 5
7, 4
6, 4
5, 3
3, 0
3, 2
3, 1
3, 2
1, 5
0, 1
2, 0
1, 3
0, 1
1, 2
1, 1
3, 1
2, 2
0, 3
0, 1
4, 1
3, 0
2, 1
1, 1
5, 5
13, 4
5, 8
2, 2
1, 1
1, 0
1, 2
3, 0
1, 3
2, 0
3, 0
1, 1
1, 2
1, 1
2, 0
4, 1
2, 1
0, 0
1, 1
3, 0
0, 1
0, 2
1, 0
1, 0
1, 0
0, 0
0, 0
1, 0
0, 0
0, 0
0, 1
0, 0
1, 0
0, 0
0, 0
1, 1
0, 0
0, 1
0, 0
1, 0
1, 1
0, 0
1, 1
0, 0
1, 0
0, 0
0, 0
0, 0
1, 0
0, 1
0, 0
0, 0
0, 1
0, 0
0, 0
0, 0
0, 0
0, 0
1, 0
0, 0
0, 1
0, 1
0, 0
0, 1
0, 0
0, 0
0, 0
0, 0
0, 0
0, 0
0, 0
0, 0
0, 0
0, 0
0, 0
0, 0
0, 0
0, 0
0, 0
0, 0
0, 0
0, 0
1, 0
0, 0
0, 0
0, 0
0, 0
0, 0
0, 0
0, 0
0, 0
0, 0
0, 0
0, 0
0, 0
0, 0
0, 0
0, 0
0, 0
0, 0
0, 0
0, 0
0, 0
0, 0
0, 0
0, 0
0, 0
0, 0
0, 0
0, 0
0, 0
0, 0
0, 0
0, 0
0, 0
0, 0
0, 0
0, 0
0, 0
0, 0
0, 0
0, 0
0, 0
0, 0
0, 0
0, 0
0, 0
0, 0
0, 0
0, 0
0, 0
0, 0
0, 0
0, 0
0, 0
0, 0
0, 0
0, 0
0, 0
0, 0
0, 0
0, 0
0, 0
0, 0
0, 0
0, 0
0, 0
0, 0
0, 0
0, 0
0, 0
0, 0
0, 0
0, 0
0, 0
0, 0
0, 0
0, 0
0, 0
0, 0
0, 0
0, 0
0, 0
0, 0
0, 0
0, 0
0, 0
0, 0
0, 0
0, 0
0, 0
0, 0
0, 0
0, 0
0, 0
0, 0
0, 0
0, 0
0, 0
#ENDOFDATA     end of spectrum data

File: ps__0257_0689790785_000rfs_shot_3176.msa
#FORMAT      : EMSA/MAS spectral data file
#VERSION     : TC202v2.0 PIXL
#TITLE       : N/A
#DATE        :       Date in the format DD-MMM-YYYY, for example 07-JUL-2010
#TIME        :             The time of day at which the spectrum was recorded, in 24-hour format
#OWNER       : PIXL Flight Model       (PIXL will use this to indicate which instrument took the data.)
#NPOINTS     : 4096     Number of data points in the spectrum (This can be zero for configuration only files)
#NCOLUMNS    : 2     Number of data columns in the spectrum (This can be zero for configuration only files)
#XUNITS      : eV
#YUNITS      : COUNTS
#DATATYPE    : YY
#XPERCHAN    : 7.862, 7.881   eV per channel (separate by commas if more than one detector)
#OFFSET      : 18.5, -22.4         eV of first channel  (separate by commas if more than one detector
#SIGNALTYPE  : XRF
#YP_TEMP     : 3.005
#LIVETIME    : 9.00716, 9.00119   seconds (separate by commas if more than one detector)
#REALTIME    : 10, 10.0   seconds (separate by commas if more than one detector)
#SPECTRUM    : start of spectrum data
0, 0
0, 0
0, 0
0, 0
0, 0
0, 0
0, 0
0, 0
1, 0
3, 2
4, 1
35, 29
28, 38
2, 0
6, 6
69, 88
503, 490
101, 84
7, 2
0, 1
0, 3
9, 5
7, 6
4, 5
45, 32
42, 25
17, 29
14, 14
7, 4
5, 1
6, 1
2, 1
2, 6
33, 32
39, 40
20, 17
34, 44
25, 10
5, 5
2, 3
4, 5
10, 17
14, 16
16, 10
14, 8
11, 15
6, 14
8, 10
10, 16
9, 14
12, 11
19, 10
17, 13
54, 71
103, 88
32, 24
61, 41
644, 843
3510, 3798
2170, 1843
147, 122
16, 14
15, 30
166, 170
477, 587
300, 256
21, 26
3, 8
3, 9
5, 5
6, 7
3, 7
7, 10
8, 7
3, 0
4, 2
5, 9
4, 4
1, 9
3, 3
2, 5
1, 5
5, 2
2, 4
5, 3
0, 3
3, 3
10, 2
2, 2
3, 2
6, 6
3, 2
3, 3
6, 5
8, 4
8, 3
2, 0
3, 2
2, 3
3, 8
3, 2
1, 1
3, 1
2, 3
2, 0
1, 3
3, 1
0, 1
5, 0
3, 1
2, 0
4, 2
1, 5
0, 4
4, 3
1, 4
6, 6
3, 4
4, 2
0, 1
0, 1
1, 1
0, 3
0, 1
1, 2
2, 0
1, 0
0, 0
1, 1
2, 0
6, 1
2, 0
2, 1
0, 0
1, 0
0, 1
0, 1
2, 0
0, 0
0, 0
0, 0
0, 1
1, 0
0, 0
0, 0
0, 0
0, 0
0, 0
0, 0
0, 0
0, 0
0, 0
0, 1
1, 0
0, 0
0, 0
0, 0
1, 1
0, 0
1, 0
1, 1
1, 0
0, 0
0, 0
0, 0
0, 0
1, 0
0, 0
0, 0
1, 0
0, 0
0, 0
0, 0
0, 0
0, 0
0, 0
0, 0
0, 0
0, 0
0, 0
0, 0
0, 0
1, 1
0, 0
0, 0
0, 0
0, 0
0, 0
0, 0
0, 0
1, 0
0, 0
0, 0
0, 0
0, 0
0, 0
0, 0
0, 0
0, 0
0, 0
0, 0
0, 0
0, 0
0, 0
0, 0
0, 0
0, 0
0, 1
1, 0
0, 0
0, 1
0, 0
0, 0
0, 0
0, 0
0, 0
0, 0
0, 0
0, 0
0, 0
0, 0
0, 0
0, 0
0, 0
0, 0
0, 0
0, 0
0, 0
0, 0
0, 0
0, 0
0, 0
0, 0
0, 0
0, 0
0, 0
0, 0
0, 0
0, 0
0, 0
0, 0
0, 0
0, 0
0, 0
0, 0
0, 0
0, 0
0, 0
0, 0
0, 0
0, 0
0, 0
0, 0
0, 0
0, 0
0, 0
0, 0
0, 0
0, 0
0, 0
0, 0
0, 0
0, 0
0, 0
0, 0
0, 0
0, 0
0, 0
0, 0
0, 0
0, 0
0, 0
0, 0
0, 0
0, 0
0, 0
0, 0
0, 0
0, 0
0, 0
0, 0
0, 0
0, 0
0, 0
0, 0
0, 0
0, 0
0, 0
0, 0
0, 0
0, 0
0, 0
0, 0
0, 0
#ENDOFDATA     end of spectrum data

File: ps__0257_0689790785_000rfs_shot_3177.msa
#FORMAT      : EMSA/MAS spectral data file
#VERSION     : TC202v2.0 PIXL
#TITLE       : N/A
#DATE        :       Date in the format DD-MMM-YYYY, for example 07-JUL-2010
#TIME        :             The time of day at which the spectrum was recorded, in 24-hour format
#OWNER       : PIXL Flight Model       (PIXL will use this to indicate which instrument took the data.)
#NPOINTS     : 4096     Number of data points in the spectrum (This can be zero for configuration only files)
#NCOLUMNS    : 2     Number of data columns in the spectrum (This can be zero for configuration only files)
#XUNITS      : eV
#YUNITS      : COUNTS
#DATATYPE    : YY
#XPERCHAN    : 7.862, 7.881   eV per channel (separate by commas if more than one detector)
#OFFSET      : 18.5, -22.4         eV of first channel  (separate by commas if more than one detector
#SIGNALTYPE  : XRF
#YP_TEMP     : 3.005
#LIVETIME    : 9.05394, 9.04522   seconds (separate by commas if more than one detector)
#REALTIME    : 10, 10.0   seconds (separate by commas if more than one detector)
#SPECTRUM    : start of spectrum data
0, 0
0, 0
0, 0
0, 0
0, 0
0, 0
0, 0
0, 0
1, 0
3, 1
5, 3
18, 24
20, 29
37, 33
54, 45
121, 91
728, 661
132, 88
12, 4
0, 2
6, 2
2, 6
2, 3
4, 5
32, 43
32, 21
19, 16
8, 18
5, 5
7, 6
59, 48
23, 23
10, 10
19, 31
33, 23
4, 17
24, 45
14, 12
7, 5
6, 3
6, 5
15, 16
20, 14
13, 12
10, 7
3, 11
7, 13
8, 4
9, 5
17, 7
16, 12
18, 5
5, 12
35, 45
82, 75
27, 23
57, 46
522, 636
2931, 3195
1971, 1592
133, 98
23, 11
20, 33
142, 127
452, 437
239, 220
15, 19
4, 4
6, 11
8, 7
2, 14
3, 16
5, 16
7, 7
4, 4
4, 7
1, 6
3, 13
7, 5
4, 7
6, 8
4, 5
4, 4
6, 3
3, 7
4, 1
1, 4
7, 6
2, 4
1, 4
6, 6
5, 2
2, 6
6, 4
9, 4
7, 0
3, 3
2, 1
5, 7
1, 7
0, 5
3, 1
4, 4
2, 7
2, 3
2, 2
5, 2
1, 2
1, 1
4, 2
2, 2
3, 3
2, 4
2, 3
3, 0
0, 3
9, 4
8, 4
1, 2
1, 1
0, 0
2, 0
5, 1
0, 2
1, 1
0, 3
1, 0
0, 0
2, 0
3, 0
6, 0
1, 0
1, 0
0, 0
0, 2
1, 1
0, 1
0, 2
1, 3
0, 1
0, 1
0, 0
0, 1
1, 0
0, 0
1, 1
0, 2
1, 0
0, 1
0, 0
0, 0
1, 1
0, 1
0, 0
0, 0
0, 0
1, 1
0, 1
1, 0
2, 0
1, 0
0, 0
0, 0
0, 0
0, 1
0, 0
0, 0
1, 0
0, 1
0, 1
0, 0
0, 1
0, 0
0, 2
1, 0
0, 0
1, 0
0, 0
0, 0
0, 0
0, 0
0, 0
0, 0
0, 0
0, 0
0, 0
1, 0
0, 0
0, 0
0, 0
0, 0
1, 0
0, 0
0, 0
0, 0
1, 1
0, 0
0, 0
0, 0
0, 0
0, 0
0, 0
0, 1
0, 0
0, 0
0, 0
0, 0
0, 0
0, 0
0, 0
0, 0
0, 0
0, 0
0, 0
0, 0
0, 0
0, 0
0, 0
0, 0
0, 0
0, 0
0, 0
0, 0
0, 0
0, 0
0, 0
0, 0
0, 0
0, 0
0, 0
0, 0
0, 0
0, 0
0, 0
0, 0
0, 0
0, 0
0, 0
0, 0
0, 0
0, 0
0, 0
0, 0
0, 0
0, 0
0, 0
0, 0
0, 0
0, 0
0, 0
0, 0
0, 0
0, 0
0, 0
0, 0
0, 0
0, 0
0, 0
0, 0
0, 0
0, 0
0, 0
0, 0
0, 0
0, 0
0, 0
0, 0
0, 0
0, 0
0, 0
0, 0
0, 0
0, 0
0, 0
0, 0
0, 0
0, 0
0, 0
0, 0
0, 0
0, 0
0, 0
0, 0
0, 0
0, 0
0, 0
0, 0
0, 0
0, 0
0, 0
0, 0
0, 0
0, 0
0, 0
#ENDOFDATA     end of spectrum data

File: ps__0257_0689790785_000rfs_shot_3178.msa
#FORMAT      : EMSA/MAS spectral data file
#VERSION     : TC202v2.0 PIXL
#TITLE       : N/A
#DATE        :       Date in the format DD-MMM-YYYY, for example 07-JUL-2010
#TIME        :             The time of day at which the spectrum was recorded, in 24-hour format
#OWNER       : PIXL Flight Model       (PIXL will use this to indicate which instrument took the data.)
#NPOINTS     : 4096     Number of data points in the spectrum (This can be zero for configuration only files)
#NCOLUMNS    : 2     Number of data columns in the spectrum (This can be zero for configuration only files)
#XUNITS      : eV
#YUNITS      : COUNTS
#DATATYPE    : YY
#XPERCHAN    : 7.862, 7.881   eV per channel (separate by commas if more than one detector)
#OFFSET      : 18.5, -22.4         eV of first channel  (separate by commas if more than one detector
#SIGNALTYPE  : XRF
#YP_TEMP     : 3.23
#LIVETIME    : 9.20456, 9.20742   seconds (separate by commas if more than one detector)
#REALTIME    : 10, 10.0   seconds (separate by commas if more than one detector)
#SPECTRUM    : start of spectrum data
0, 0
0, 0
0, 0
0, 0
0, 0
0, 0
0, 0
0, 0
1, 0
4, 3
4, 1
15, 12
13, 13
40, 50
64, 123
138, 144
820, 929
123, 114
0, 3
2, 0
2, 0
6, 3
4, 3
13, 6
28, 42
40, 20
18, 17
11, 18
2, 16
7, 17
94, 96
46, 42
8, 13
40, 57
59, 57
9, 5
7, 15
8, 11
3, 4
9, 3
6, 4
13, 15
12, 14
10, 13
1, 9
9, 13
8, 8
8, 9
4, 7
10, 9
13, 17
4, 5
12, 8
29, 20
31, 20
14, 8
24, 18
209, 240
1094, 1145
613, 574
59, 47
13, 26
17, 25
54, 55
196, 215
111, 84
12, 18
12, 10
18, 8
5, 5
12, 8
9, 5
13, 9
11, 11
16, 9
13, 8
14, 9
9, 7
10, 7
12, 11
11, 4
5, 13
4, 6
11, 2
6, 9
6, 2
2, 0
4, 1
4, 7
12, 4
9, 5
4, 3
5, 6
6, 3
3, 9
7, 5
3, 5
6, 3
1, 6
10, 7
2, 3
2, 3
7, 6
4, 6
5, 0
5, 4
2, 5
2, 1
4, 2
2, 2
3, 5
3, 4
4, 4
2, 3
5, 2
3, 0
4, 3
2, 1
1, 2
2, 1
4, 1
2, 3
1, 2
3, 2
0, 2
1, 4
4, 0
3, 1
0, 1
5, 1
2, 1
1, 2
3, 0
1, 1
0, 2
0, 1
1, 1
0, 3
0, 0
0, 1
0, 0
1, 3
0, 3
0, 2
2, 1
1, 1
3, 0
0, 0
1, 0
0, 0
1, 0
4, 2
0, 1
0, 0
0, 0
0, 0
0, 1
0, 0
0, 1
0, 0
1, 0
0, 0
1, 0
0, 0
0, 0
0, 2
0, 0
0, 0
0, 0
0, 1
1, 1
0, 0
0, 0
0, 0
0, 0
0, 0
2, 0
0, 0
0, 0
0, 0
0, 0
0, 0
0, 0
0, 0
0, 0
0, 0
0, 0
0, 0
0, 0
0, 0
0, 0
0, 0
0, 1
0, 0
0, 0
0, 0
0, 0
0, 0
0, 1
0, 0
0, 0
0, 0
0, 0
1, 0
0, 0
0, 0
0, 0
0, 0
0, 0
0, 0
0, 0
0, 0
0, 0
0, 0
0, 0
0, 0
0, 0
0, 0
0, 0
0, 0
0, 0
0, 0
0, 0
0, 0
0, 0
0, 0
0, 0
0, 0
0, 0
0, 0
0, 0
0, 0
0, 0
0, 0
0, 0
0, 0
0, 0
0, 0
0, 0
0, 0
0, 0
0, 0
0, 0
0, 0
0, 0
0, 0
0, 0
0, 0
0, 0
0, 0
0, 0
0, 0
0, 0
0, 0
0, 0
0, 0
0, 0
0, 0
0, 0
0, 0
0, 0
0, 0
0, 0
0, 0
0, 0
0, 0
0, 0
0, 0
0, 0
0, 0
0, 0
0, 0
0, 0
0, 0
0, 0
0, 0
0, 0
0, 0
0, 0
0, 0
0, 0
0, 0
0, 0
0, 0
0, 0
0, 0
0, 0
0, 0
0, 0
0, 0
0, 0
0, 0
0, 0
0, 0
#ENDOFDATA     end of spectrum data

File: ps__0257_0689790785_000rfs_shot_3180.msa
#FORMAT      : EMSA/MAS spectral data file
#VERSION     : TC202v2.0 PIXL
#TITLE       : N/A
#DATE        :       Date in the format DD-MMM-YYYY, for example 07-JUL-2010
#TIME        :             The time of day at which the spectrum was recorded, in 24-hour format
#OWNER       : PIXL Flight Model       (PIXL will use this to indicate which instrument took the data.)
#NPOINTS     : 4096     Number of data points in the spectrum (This can be zero for configuration only files)
#NCOLUMNS    : 2     Number of data columns in the spectrum (This can be zero for configuration only files)
#XUNITS      : eV
#YUNITS      : COUNTS
#DATATYPE    : YY
#XPERCHAN    : 7.862, 7.881   eV per channel (separate by commas if more than one detector)
#OFFSET      : 18.5, -22.4         eV of first channel  (separate by commas if more than one detector
#SIGNALTYPE  : XRF
#YP_TEMP     : 2.877
#LIVETIME    : 9.00359, 9.00785   seconds (separate by commas if more than one detector)
#REALTIME    : 10, 10.0   seconds (separate by commas if more than one detector)
#SPECTRUM    : start of spectrum data
0, 0
0, 0
0, 0
0, 0
0, 0
0, 0
0, 0
1, 0
0, 0
1, 0
0, 2
31, 20
39, 48
5, 3
6, 4
99, 77
512, 493
84, 65
4, 4
9, 0
2, 2
3, 5
3, 2
3, 4
25, 22
28, 26
20, 20
9, 4
5, 5
7, 2
4, 4
5, 3
1, 2
44, 43
65, 51
8, 9
10, 6
12, 8
3, 1
7, 3
5, 3
7, 11
16, 24
16, 14
3, 7
9, 5
6, 4
3, 6
8, 8
11, 11
7, 8
8, 11
4, 11
74, 58
102, 89
30, 23
48, 41
638, 756
3586, 3806
2317, 1866
193, 100
15, 70
19, 85
138, 163
548, 540
312, 263
12, 41
19, 9
10, 7
4, 5
1, 3
4, 16
3, 8
5, 7
7, 4
5, 8
1, 2
3, 5
5, 3
8, 4
3, 2
2, 5
0, 1
1, 1
0, 0
4, 4
3, 3
3, 3
0, 4
4, 3
7, 8
0, 6
4, 4
3, 1
2, 1
3, 1
1, 4
3, 1
1, 2
3, 3
3, 5
4, 1
2, 1
1, 2
1, 2
2, 2
1, 2
1, 4
1, 0
0, 2
3, 1
1, 1
2, 4
1, 1
0, 1
4, 2
13, 8
1, 4
1, 4
0, 1
0, 3
1, 1
2, 4
1, 5
3, 0
2, 0
0, 0
2, 2
0, 1
2, 1
0, 0
0, 1
1, 0
4, 1
0, 1
1, 0
1, 1
1, 0
0, 0
0, 0
0, 1
0, 0
0, 0
0, 0
1, 0
0, 1
0, 0
0, 0
0, 0
0, 0
0, 0
1, 1
1, 1
0, 0
0, 0
0, 0
0, 0
1, 0
0, 0
1, 0
0, 0
0, 0
1, 0
0, 1
0, 0
0, 0
0, 0
0, 1
0, 0
0, 0
0, 0
0, 0
1, 0
0, 0
0, 0
1, 0
0, 0
0, 0
0, 0
0, 0
0, 0
0, 0
0, 0
0, 0
0, 0
0, 1
0, 0
0, 0
0, 0
0, 0
0, 0
0, 0
0, 0
0, 0
0, 0
0, 0
0, 0
0, 0
0, 0
0, 0
0, 0
0, 0
0, 0
0, 0
0, 0
0, 0
0, 0
0, 0
0, 0
0, 0
0, 0
0, 0
1, 0
0, 0
0, 0
0, 0
0, 0
0, 0
0, 0
0, 0
0, 0
0, 0
0, 0
0, 0
0, 0
0, 0
0, 0
0, 0
0, 0
0, 0
0, 0
0, 0
0, 0
0, 0
0, 0
0, 0
0, 0
0, 0
0, 0
0, 0
0, 0
0, 0
0, 0
0, 0
0, 0
0, 0
0, 0
0, 0
0, 0
0, 0
0, 0
0, 0
0, 0
0, 0
0, 0
0, 0
0, 0
0, 0
0, 0
0, 0
0, 0
0, 0
0, 0
0, 0
0, 0
0, 0
0, 0
0, 0
0, 0
0, 0
0, 0
0, 0
0, 0
0, 0
0, 0
0, 0
0, 0
0, 0
0, 0
0, 0
0, 0
0, 0
0, 0
0, 0
0, 0
0, 0
0, 0
0, 0
0, 0
0, 0
0, 0
0, 0
0, 0
0, 0
#ENDOFDATA     end of spectrum data