Folder: data-repository/host_upload/12-01-2023/Dourbes (shot-by-shot)/upload_4 (part 12)

File: ps__0257_0689790785_000rfs_shot_3199.msa
#FORMAT      : EMSA/MAS spectral data file
#VERSION     : TC202v2.0 PIXL
#TITLE       : N/A
#DATE        :       Date in the format DD-MMM-YYYY, for example 07-JUL-2010
#TIME        :             The time of day at which the spectrum was recorded, in 24-hour format
#OWNER       : PIXL Flight Model       (PIXL will use this to indicate which instrument took the data.)
#NPOINTS     : 4096     Number of data points in the spectrum (This can be zero for configuration only files)
#NCOLUMNS    : 2     Number of data columns in the spectrum (This can be zero for configuration only files)
#XUNITS      : eV
#YUNITS      : COUNTS
#DATATYPE    : YY
#XPERCHAN    : 7.862, 7.881   eV per channel (separate by commas if more than one detector)
#OFFSET      : 18.5, -22.4         eV of first channel  (separate by commas if more than one detector
#SIGNALTYPE  : XRF
#YP_TEMP     : 2.973
#LIVETIME    : 9.01548, 9.01407   seconds (separate by commas if more than one detector)
#REALTIME    : 10, 10.0   seconds (separate by commas if more than one detector)
#SPECTRUM    : start of spectrum data
0, 0
0, 0
0, 0
0, 0
0, 0
0, 0
0, 0
0, 0
0, 1
1, 0
0, 0
30, 27
35, 31
5, 8
12, 10
81, 83
529, 580
91, 87
7, 5
1, 4
1, 0
21, 13
6, 6
8, 15
62, 62
60, 64
27, 23
18, 13
2, 4
5, 5
13, 20
4, 7
6, 4
27, 26
30, 31
8, 5
11, 9
15, 11
2, 5
7, 10
21, 14
28, 37
24, 31
20, 13
7, 8
7, 11
8, 7
8, 4
12, 15
18, 12
4, 8
8, 9
13, 13
52, 66
80, 100
28, 51
26, 49
642, 813
3182, 3731
2026, 1737
143, 115
53, 20
79, 17
132, 161
502, 537
263, 231
31, 18
6, 6
6, 6
4, 2
2, 5
2, 4
5, 4
4, 8
8, 1
2, 8
7, 5
6, 5
8, 2
7, 5
3, 5
4, 4
6, 3
4, 3
6, 4
3, 1
3, 2
3, 3
2, 4
0, 4
3, 3
3, 4
2, 3
1, 3
6, 2
1, 1
4, 1
3, 3
1, 1
2, 4
0, 1
2, 4
2, 3
6, 1
2, 0
1, 3
1, 1
4, 2
0, 0
1, 4
0, 1
2, 2
2, 2
1, 1
0, 2
0, 2
7, 8
2, 7
1, 0
2, 2
1, 1
1, 2
1, 2
4, 1
0, 0
0, 1
0, 2
0, 0
1, 1
4, 0
2, 0
2, 0
1, 1
1, 0
0, 1
1, 0
1, 0
0, 0
0, 0
2, 0
0, 0
1, 1
0, 2
0, 1
0, 0
0, 0
0, 0
0, 0
0, 0
1, 1
0, 1
0, 0
0, 0
0, 1
0, 0
0, 0
1, 0
1, 0
0, 0
0, 0
0, 0
0, 0
0, 0
0, 0
0, 0
0, 0
0, 0
0, 0
1, 0
0, 1
0, 0
0, 0
2, 0
0, 0
0, 0
0, 0
0, 1
0, 0
0, 0
1, 0
0, 0
0, 0
1, 0
0, 0
0, 0
0, 0
0, 0
0, 0
0, 0
0, 0
0, 0
0, 0
1, 0
0, 0
1, 0
0, 0
0, 0
0, 0
0, 0
0, 0
0, 0
0, 0
0, 0
0, 0
0, 0
0, 0
0, 0
0, 0
0, 0
0, 0
0, 0
0, 0
0, 0
0, 0
0, 0
0, 0
0, 0
0, 0
0, 0
0, 0
0, 0
0, 0
0, 0
0, 0
0, 0
0, 0
0, 0
0, 0
0, 0
0, 0
0, 0
0, 0
0, 1
0, 0
0, 0
0, 0
0, 0
0, 0
0, 0
0, 0
0, 0
0, 0
0, 0
0, 0
0, 0
0, 0
0, 0
0, 0
0, 0
0, 0
0, 0
0, 0
0, 0
0, 0
0, 0
0, 0
0, 0
0, 0
0, 0
0, 0
0, 0
0, 0
0, 0
0, 0
0, 0
0, 0
0, 0
0, 0
0, 0
0, 0
0, 0
0, 0
0, 0
0, 0
0, 0
0, 0
0, 0
0, 0
0, 0
0, 0
0, 0
0, 0
0, 0
0, 0
0, 0
0, 0
0, 0
0, 0
0, 0
0, 0
0, 0
0, 0
0, 0
0, 0
#ENDOFDATA     end of spectrum data

File: ps__0257_0689790785_000rfs_shot_3201.msa
#FORMAT      : EMSA/MAS spectral data file
#VERSION     : TC202v2.0 PIXL
#TITLE       : N/A
#DATE        :       Date in the format DD-MMM-YYYY, for example 07-JUL-2010
#TIME        :             The time of day at which the spectrum was recorded, in 24-hour format
#OWNER       : PIXL Flight Model       (PIXL will use this to indicate which instrument took the data.)
#NPOINTS     : 4096     Number of data points in the spectrum (This can be zero for configuration only files)
#NCOLUMNS    : 2     Number of data columns in the spectrum (This can be zero for configuration only files)
#XUNITS      : eV
#YUNITS      : COUNTS
#DATATYPE    : YY
#XPERCHAN    : 7.862, 7.881   eV per channel (separate by commas if more than one detector)
#OFFSET      : 18.5, -22.4         eV of first channel  (separate by commas if more than one detector
#SIGNALTYPE  : XRF
#YP_TEMP     : 3.005
#LIVETIME    : 9.04522, 9.03158   seconds (separate by commas if more than one detector)
#REALTIME    : 10, 10.0   seconds (separate by commas if more than one detector)
#SPECTRUM    : start of spectrum data
0, 0
0, 0
0, 0
0, 0
0, 0
0, 0
0, 0
0, 1
1, 1
2, 0
1, 4
25, 23
31, 29
3, 2
7, 9
92, 107
600, 697
100, 108
6, 8
2, 5
7, 3
27, 34
12, 14
13, 22
110, 106
82, 73
22, 31
13, 16
9, 4
2, 4
6, 6
5, 3
5, 2
17, 26
40, 46
7, 6
8, 8
5, 8
3, 8
6, 2
4, 15
20, 19
29, 31
15, 14
7, 9
11, 17
6, 12
6, 11
23, 17
42, 13
45, 14
12, 19
11, 23
41, 54
69, 75
25, 25
29, 39
579, 758
2968, 3403
1707, 1661
115, 107
25, 16
30, 21
120, 163
434, 535
226, 231
22, 22
7, 13
6, 5
7, 5
5, 2
4, 4
1, 4
9, 6
19, 7
18, 6
5, 3
3, 4
4, 11
10, 2
3, 2
3, 5
5, 5
5, 4
6, 9
4, 2
5, 0
3, 3
4, 9
1, 4
4, 3
4, 5
4, 9
3, 7
3, 13
1, 8
1, 4
1, 2
2, 1
2, 1
2, 3
1, 3
1, 1
1, 1
0, 1
1, 3
3, 5
2, 3
3, 0
3, 2
3, 5
2, 1
2, 1
1, 1
1, 1
2, 6
9, 5
3, 8
1, 0
1, 0
4, 2
2, 2
1, 3
5, 2
0, 0
1, 1
2, 1
0, 1
1, 2
0, 1
0, 0
1, 0
2, 1
0, 1
0, 0
0, 1
0, 3
0, 1
0, 0
0, 0
0, 0
0, 0
1, 0
0, 1
2, 2
1, 1
0, 0
0, 0
0, 0
0, 0
0, 1
0, 0
0, 0
1, 0
0, 0
0, 0
1, 0
0, 0
0, 0
1, 0
1, 1
0, 0
0, 1
0, 0
0, 0
1, 0
1, 0
0, 0
0, 0
1, 1
0, 0
1, 0
0, 0
0, 1
0, 0
0, 0
0, 0
0, 1
0, 0
1, 0
0, 0
0, 0
0, 0
1, 0
0, 0
0, 0
0, 0
0, 0
0, 0
0, 0
0, 0
0, 0
0, 0
0, 0
0, 0
0, 0
0, 0
0, 0
0, 0
0, 0
0, 0
0, 0
0, 0
0, 0
0, 0
0, 0
0, 0
0, 0
0, 0
0, 0
0, 0
0, 0
0, 0
0, 0
0, 0
0, 0
0, 0
0, 0
0, 0
0, 0
0, 0
0, 0
0, 0
0, 0
0, 0
0, 0
0, 0
0, 0
0, 0
0, 0
0, 0
0, 0
0, 0
0, 0
0, 0
0, 0
0, 0
0, 0
0, 0
0, 0
0, 0
0, 0
0, 0
0, 0
0, 0
0, 0
0, 0
0, 0
0, 0
0, 0
0, 0
0, 0
0, 0
0, 0
0, 0
0, 0
0, 0
0, 0
0, 0
0, 0
0, 0
0, 0
0, 0
0, 0
0, 0
0, 0
0, 0
0, 0
0, 0
0, 0
0, 0
0, 0
0, 0
0, 0
0, 0
0, 0
0, 0
0, 0
0, 0
0, 0
0, 0
0, 0
0, 0
0, 0
0, 0
0, 0
0, 0
0, 0
0, 0
0, 0
0, 0
0, 0
0, 0
0, 0
#ENDOFDATA     end of spectrum data

File: ps__0257_0689790785_000rfs_shot_3202.msa
#FORMAT      : EMSA/MAS spectral data file
#VERSION     : TC202v2.0 PIXL
#TITLE       : N/A
#DATE        :       Date in the format DD-MMM-YYYY, for example 07-JUL-2010
#TIME        :             The time of day at which the spectrum was recorded, in 24-hour format
#OWNER       : PIXL Flight Model       (PIXL will use this to indicate which instrument took the data.)
#NPOINTS     : 4096     Number of data points in the spectrum (This can be zero for configuration only files)
#NCOLUMNS    : 2     Number of data columns in the spectrum (This can be zero for configuration only files)
#XUNITS      : eV
#YUNITS      : COUNTS
#DATATYPE    : YY
#XPERCHAN    : 7.862, 7.881   eV per channel (separate by commas if more than one detector)
#OFFSET      : 18.5, -22.4         eV of first channel  (separate by commas if more than one detector
#SIGNALTYPE  : XRF
#YP_TEMP     : 3.005
#LIVETIME    : 9.12568, 9.10955   seconds (separate by commas if more than one detector)
#REALTIME    : 10, 10.0   seconds (separate by commas if more than one detector)
#SPECTRUM    : start of spectrum data
0, 0
0, 0
0, 0
0, 0
0, 0
0, 0
0, 0
0, 0
2, 1
1, 1
0, 2
24, 21
24, 31
12, 12
26, 29
111, 116
599, 710
115, 108
17, 27
18, 13
10, 11
42, 56
23, 16
30, 32
129, 154
94, 73
46, 54
16, 22
3, 4
11, 6
44, 38
25, 23
9, 13
47, 59
61, 79
11, 21
6, 16
11, 12
7, 2
10, 6
8, 13
25, 28
21, 20
18, 16
11, 29
11, 30
7, 13
12, 10
30, 13
53, 1
18, 9
11, 5
11, 12
20, 60
35, 48
17, 17
23, 23
359, 441
1886, 2240
1194, 1044
88, 63
15, 9
27, 18
120, 102
305, 353
160, 148
13, 16
7, 2
5, 12
13, 10
7, 4
6, 5
8, 7
4, 9
5, 7
8, 5
4, 7
9, 4
7, 8
4, 4
11, 4
12, 4
7, 8
6, 4
4, 11
8, 5
4, 10
3, 3
4, 5
5, 7
2, 6
3, 4
6, 5
1, 7
6, 4
4, 5
4, 6
4, 8
4, 2
6, 2
3, 8
2, 3
5, 5
1, 7
2, 5
2, 9
5, 4
1, 5
3, 3
4, 0
1, 4
2, 4
4, 1
1, 2
1, 3
1, 3
3, 4
2, 3
1, 3
1, 1
2, 5
3, 1
4, 6
2, 2
2, 3
2, 1
2, 0
2, 0
2, 1
2, 1
1, 1
0, 1
0, 0
0, 1
0, 0
0, 2
2, 0
1, 1
1, 1
0, 0
0, 0
0, 3
2, 0
0, 1
0, 1
1, 2
0, 1
0, 1
0, 0
0, 1
1, 0
0, 1
0, 3
0, 0
0, 0
0, 0
1, 1
0, 0
0, 1
0, 0
0, 0
0, 1
0, 2
0, 1
0, 0
0, 0
0, 0
1, 0
0, 0
0, 0
0, 0
0, 2
0, 0
0, 1
0, 0
0, 0
1, 0
0, 0
0, 0
0, 0
0, 0
0, 1
0, 0
0, 0
0, 1
0, 0
0, 0
0, 0
0, 0
0, 0
0, 0
0, 0
0, 0
0, 0
0, 0
0, 0
0, 1
0, 0
0, 0
0, 0
0, 0
0, 0
0, 0
0, 0
0, 0
0, 1
1, 0
0, 0
0, 0
0, 0
0, 0
0, 0
0, 0
0, 0
0, 0
0, 0
0, 0
0, 0
0, 0
0, 0
0, 0
0, 0
0, 0
0, 0
0, 0
0, 0
0, 0
0, 0
0, 0
0, 0
0, 0
0, 0
0, 0
0, 0
0, 0
0, 0
0, 0
0, 0
0, 0
0, 0
0, 0
0, 0
0, 0
0, 0
0, 0
0, 0
0, 0
0, 0
0, 0
0, 0
0, 0
0, 0
0, 0
0, 0
0, 0
0, 0
0, 0
0, 0
0, 0
0, 0
0, 0
0, 0
0, 0
0, 0
0, 0
0, 0
0, 0
0, 0
0, 0
0, 0
0, 0
0, 0
0, 0
0, 0
0, 0
0, 0
0, 0
0, 0
0, 0
0, 0
0, 0
0, 0
0, 0
0, 0
0, 0
0, 0
0, 0
0, 0
0, 0
0, 0
0, 0
0, 0
0, 0
0, 0
#ENDOFDATA     end of spectrum data

File: ps__0257_0689790785_000rfs_shot_3204.msa
#FORMAT      : EMSA/MAS spectral data file
#VERSION     : TC202v2.0 PIXL
#TITLE       : N/A
#DATE        :       Date in the format DD-MMM-YYYY, for example 07-JUL-2010
#TIME        :             The time of day at which the spectrum was recorded, in 24-hour format
#OWNER       : PIXL Flight Model       (PIXL will use this to indicate which instrument took the data.)
#NPOINTS     : 4096     Number of data points in the spectrum (This can be zero for configuration only files)
#NCOLUMNS    : 2     Number of data columns in the spectrum (This can be zero for configuration only files)
#XUNITS      : eV
#YUNITS      : COUNTS
#DATATYPE    : YY
#XPERCHAN    : 7.862, 7.881   eV per channel (separate by commas if more than one detector)
#OFFSET      : 18.5, -22.4         eV of first channel  (separate by commas if more than one detector
#SIGNALTYPE  : XRF
#YP_TEMP     : 3.069
#LIVETIME    : 9.16615, 9.1574   seconds (separate by commas if more than one detector)
#REALTIME    : 10, 10.0   seconds (separate by commas if more than one detector)
#SPECTRUM    : start of spectrum data
0, 0
0, 0
0, 0
0, 0
0, 0
0, 0
0, 0
0, 3
1, 3
7, 3
5, 3
22, 23
29, 14
31, 21
49, 58
119, 116
731, 765
112, 108
16, 14
11, 10
9, 9
81, 74
27, 23
37, 32
186, 161
197, 125
56, 68
24, 23
6, 8
8, 12
57, 85
33, 29
23, 8
68, 77
67, 96
14, 18
9, 23
9, 24
6, 9
7, 2
12, 18
26, 23
14, 38
11, 38
11, 38
19, 39
10, 25
20, 13
31, 8
30, 14
14, 13
7, 11
6, 6
15, 27
33, 34
12, 23
17, 22
221, 336
1289, 1565
818, 711
92, 57
23, 10
40, 24
83, 78
184, 244
130, 101
15, 16
8, 5
11, 7
13, 6
6, 5
10, 6
1, 1
10, 12
4, 5
6, 3
4, 4
6, 8
5, 6
5, 9
5, 5
5, 7
2, 4
9, 7
8, 7
4, 7
7, 5
5, 4
4, 3
2, 8
4, 7
4, 7
5, 4
3, 4
4, 3
2, 6
4, 7
14, 5
4, 2
5, 2
2, 6
3, 1
4, 4
3, 3
2, 3
2, 3
2, 1
2, 1
5, 3
1, 3
2, 2
2, 1
3, 0
2, 4
0, 2
8, 1
4, 3
2, 1
3, 0
0, 1
2, 2
1, 2
4, 2
1, 3
2, 2
0, 4
2, 2
3, 1
2, 0
0, 0
0, 0
0, 1
1, 0
2, 0
2, 1
1, 0
1, 3
0, 0
0, 1
0, 0
2, 0
1, 0
0, 0
0, 0
1, 1
2, 0
1, 0
0, 0
1, 0
0, 0
0, 0
0, 0
0, 1
1, 0
0, 1
0, 0
0, 0
1, 0
0, 1
1, 1
0, 0
1, 1
1, 0
1, 0
1, 0
0, 0
0, 0
0, 0
0, 1
0, 0
0, 0
0, 0
0, 0
0, 0
0, 0
0, 0
0, 1
0, 0
0, 0
0, 1
0, 0
0, 0
0, 0
0, 0
0, 0
0, 1
0, 0
0, 0
0, 0
0, 0
0, 0
0, 0
0, 0
0, 0
0, 0
0, 0
0, 0
0, 0
0, 0
0, 0
0, 0
0, 0
0, 0
0, 0
0, 0
0, 0
1, 0
0, 0
0, 0
0, 0
0, 0
0, 0
0, 0
0, 0
0, 0
0, 0
0, 0
0, 0
0, 0
0, 0
0, 0
0, 0
0, 0
0, 0
0, 0
0, 0
0, 0
0, 0
0, 0
0, 0
0, 0
0, 0
0, 0
0, 0
0, 0
0, 0
0, 0
0, 0
0, 0
0, 0
0, 0
0, 0
0, 0
0, 0
0, 0
0, 0
0, 0
0, 0
0, 0
0, 0
0, 0
0, 0
0, 0
0, 0
0, 0
0, 0
0, 0
0, 0
0, 0
0, 0
0, 0
0, 0
0, 0
0, 0
0, 0
0, 0
0, 0
0, 0
0, 0
0, 0
0, 0
0, 0
0, 0
0, 0
0, 0
0, 0
0, 0
0, 0
0, 0
0, 0
0, 0
0, 0
0, 0
0, 0
0, 0
0, 0
0, 0
0, 0
0, 0
0, 0
0, 0
0, 0
0, 0
0, 0
#ENDOFDATA     end of spectrum data

File: ps__0257_0689790785_000rfs_shot_3206.msa
#FORMAT      : EMSA/MAS spectral data file
#VERSION     : TC202v2.0 PIXL
#TITLE       : N/A
#DATE        :       Date in the format DD-MMM-YYYY, for example 07-JUL-2010
#TIME        :             The time of day at which the spectrum was recorded, in 24-hour format
#OWNER       : PIXL Flight Model       (PIXL will use this to indicate which instrument took the data.)
#NPOINTS     : 4096     Number of data points in the spectrum (This can be zero for configuration only files)
#NCOLUMNS    : 2     Number of data columns in the spectrum (This can be zero for configuration only files)
#XUNITS      : eV
#YUNITS      : COUNTS
#DATATYPE    : YY
#XPERCHAN    : 7.862, 7.881   eV per channel (separate by commas if more than one detector)
#OFFSET      : 18.5, -22.4         eV of first channel  (separate by commas if more than one detector
#SIGNALTYPE  : XRF
#YP_TEMP     : 3.165
#LIVETIME    : 8.94011, 8.98626   seconds (separate by commas if more than one detector)
#REALTIME    : 10, 10.0   seconds (separate by commas if more than one detector)
#SPECTRUM    : start of spectrum data
0, 0
0, 0
0, 0
0, 0
0, 0
0, 0
0, 1
0, 0
10, 1
30, 1
8, 0
29, 23
37, 24
7, 3
7, 8
75, 86
538, 499
87, 95
8, 3
2, 2
17, 21
141, 158
54, 48
50, 17
1079, 143
1614, 86
130, 43
28, 21
13, 11
2, 2
9, 8
4, 4
6, 6
36, 39
47, 56
10, 9
22, 7
13, 10
10, 10
6, 9
10, 12
21, 24
27, 71
18, 33
4, 9
11, 16
13, 17
9, 10
9, 8
18, 16
8, 19
3, 12
12, 20
56, 63
84, 66
25, 21
40, 31
603, 779
3384, 3601
2029, 1744
152, 118
41, 17
70, 27
128, 182
506, 513
252, 260
24, 21
5, 10
9, 11
4, 4
1, 5
2, 8
7, 8
4, 4
7, 8
6, 7
2, 7
6, 8
7, 7
1, 4
4, 3
3, 3
9, 2
9, 7
7, 10
4, 8
5, 6
7, 2
4, 1
6, 5
3, 1
2, 2
5, 3
2, 1
0, 2
4, 1
1, 3
8, 2
6, 2
13, 5
4, 5
8, 6
2, 1
0, 3
2, 2
2, 1
2, 0
0, 4
0, 2
2, 1
5, 4
2, 2
4, 1
0, 2
1, 0
1, 6
5, 13
4, 3
2, 3
1, 2
0, 2
0, 2
1, 2
1, 0
1, 1
1, 2
0, 0
0, 0
2, 0
0, 0
0, 0
1, 2
0, 1
1, 1
1, 0
0, 0
0, 0
0, 1
0, 0
2, 0
0, 0
1, 0
2, 1
0, 3
0, 0
0, 0
0, 0
2, 0
0, 0
0, 0
0, 1
0, 0
0, 0
0, 0
0, 1
0, 1
0, 0
0, 0
0, 0
1, 1
0, 0
0, 0
0, 0
0, 0
0, 0
0, 0
0, 0
0, 0
0, 0
0, 1
0, 1
0, 0
0, 2
0, 0
1, 0
0, 0
0, 0
1, 1
0, 0
0, 0
1, 0
0, 0
0, 0
1, 0
0, 0
0, 0
0, 0
0, 0
0, 0
0, 0
0, 0
0, 0
0, 0
0, 0
0, 0
0, 0
0, 0
0, 0
0, 1
0, 0
0, 0
0, 0
0, 0
0, 0
0, 0
0, 0
0, 0
0, 0
0, 0
0, 0
0, 0
0, 0
0, 0
0, 0
0, 0
0, 0
0, 0
0, 0
0, 0
0, 0
0, 0
0, 0
0, 0
0, 0
0, 0
0, 0
0, 0
0, 0
0, 0
0, 0
0, 0
0, 0
0, 0
0, 0
0, 0
0, 0
0, 0
0, 0
0, 0
0, 0
0, 0
0, 0
0, 0
0, 0
0, 0
0, 1
0, 0
0, 0
0, 0
0, 0
0, 0
0, 0
0, 0
0, 0
0, 0
0, 0
0, 0
0, 0
0, 0
0, 0
0, 0
0, 0
0, 0
0, 0
0, 0
0, 0
0, 0
0, 0
0, 0
0, 0
0, 0
0, 0
0, 0
0, 0
0, 0
0, 0
0, 0
0, 0
0, 0
0, 0
0, 0
0, 0
0, 0
0, 0
0, 0
0, 0
0, 0
0, 0
0, 0
0, 0
0, 0
0, 0
0, 0
0, 0
#ENDOFDATA     end of spectrum data

File: ps__0257_0689790785_000rfs_shot_3210.msa
#FORMAT      : EMSA/MAS spectral data file
#VERSION     : TC202v2.0 PIXL
#TITLE       : N/A
#DATE        :       Date in the format DD-MMM-YYYY, for example 07-JUL-2010
#TIME        :             The time of day at which the spectrum was recorded, in 24-hour format
#OWNER       : PIXL Flight Model       (PIXL will use this to indicate which instrument took the data.)
#NPOINTS     : 4096     Number of data points in the spectrum (This can be zero for configuration only files)
#NCOLUMNS    : 2     Number of data columns in the spectrum (This can be zero for configuration only files)
#XUNITS      : eV
#YUNITS      : COUNTS
#DATATYPE    : YY
#XPERCHAN    : 7.862, 7.881   eV per channel (separate by commas if more than one detector)
#OFFSET      : 18.5, -22.4         eV of first channel  (separate by commas if more than one detector
#SIGNALTYPE  : XRF
#YP_TEMP     : 3.133
#LIVETIME    : 8.98881, 8.9978   seconds (separate by commas if more than one detector)
#REALTIME    : 10, 10.0   seconds (separate by commas if more than one detector)
#SPECTRUM    : start of spectrum data
0, 0
0, 0
0, 0
0, 0
0, 0
0, 0
0, 0
0, 0
3, 3
8, 7
7, 1
25, 22
35, 41
2, 1
2, 1
22, 21
153, 158
26, 26
13, 7
1, 4
6, 10
37, 43
17, 11
28, 20
295, 140
364, 123
51, 55
32, 24
12, 9
4, 5
7, 5
7, 0
5, 6
96, 109
150, 140
17, 22
16, 23
17, 29
5, 10
11, 4
8, 10
15, 23
20, 47
17, 34
17, 10
14, 22
17, 10
13, 16
14, 17
20, 6
15, 18
7, 8
26, 18
70, 77
102, 110
26, 42
52, 42
622, 817
3571, 3697
2155, 1836
159, 124
49, 21
58, 47
162, 159
484, 546
323, 268
20, 17
3, 4
9, 4
4, 2
3, 6
4, 5
8, 9
5, 4
6, 9
4, 5
5, 1
4, 5
3, 5
4, 5
3, 2
1, 2
4, 4
6, 7
6, 9
4, 6
4, 0
1, 5
9, 4
3, 6
3, 4
4, 2
4, 4
4, 6
3, 6
0, 1
1, 8
10, 5
4, 3
5, 3
4, 4
1, 4
3, 3
2, 3
2, 5
3, 2
1, 1
2, 1
2, 1
0, 0
0, 3
6, 1
0, 3
0, 3
2, 1
0, 11
10, 10
7, 7
3, 1
0, 0
0, 0
6, 2
3, 4
2, 2
0, 2
1, 0
0, 0
2, 1
0, 0
0, 0
0, 0
1, 0
3, 1
1, 0
0, 1
3, 0
2, 1
0, 1
1, 1
1, 0
2, 0
1, 0
1, 0
0, 0
0, 0
0, 0
0, 0
1, 1
0, 1
1, 0
0, 0
0, 0
0, 0
0, 0
0, 1
0, 1
0, 0
1, 0
0, 0
1, 0
0, 1
0, 0
1, 1
1, 0
0, 0
0, 1
1, 0
0, 0
0, 1
0, 2
0, 0
0, 0
0, 0
0, 0
0, 0
0, 0
0, 0
0, 0
0, 0
2, 0
0, 0
0, 0
0, 1
0, 1
0, 1
0, 0
0, 0
0, 0
0, 0
0, 0
0, 0
0, 0
0, 0
0, 0
0, 0
0, 0
0, 0
0, 1
0, 0
0, 0
0, 0
0, 0
0, 0
0, 0
0, 0
0, 0
0, 0
0, 0
0, 0
0, 0
0, 0
0, 0
0, 0
0, 0
0, 0
0, 0
0, 0
0, 0
0, 0
0, 0
0, 0
0, 0
0, 0
0, 0
0, 0
0, 0
0, 0
0, 0
0, 0
0, 0
0, 0
0, 0
0, 0
0, 0
0, 0
0, 0
0, 0
0, 0
0, 0
0, 0
0, 0
0, 0
0, 0
0, 0
0, 0
0, 0
0, 0
0, 0
0, 0
0, 0
0, 0
0, 0
0, 0
0, 0
0, 0
0, 0
0, 0
0, 0
0, 0
0, 0
0, 0
0, 0
0, 0
0, 0
0, 0
0, 0
0, 0
0, 0
0, 0
0, 0
0, 0
0, 0
0, 0
0, 0
0, 0
0, 0
0, 0
0, 0
0, 0
0, 0
0, 0
0, 0
0, 0
0, 0
0, 0
0, 0
0, 0
0, 0
0, 0
0, 0
0, 0
0, 0
0, 0
0, 0
#ENDOFDATA     end of spectrum data

File: ps__0257_0689790785_000rfs_shot_3211.msa
#FORMAT      : EMSA/MAS spectral data file
#VERSION     : TC202v2.0 PIXL
#TITLE       : N/A
#DATE        :       Date in the format DD-MMM-YYYY, for example 07-JUL-2010
#TIME        :             The time of day at which the spectrum was recorded, in 24-hour format
#OWNER       : PIXL Flight Model       (PIXL will use this to indicate which instrument took the data.)
#NPOINTS     : 4096     Number of data points in the spectrum (This can be zero for configuration only files)
#NCOLUMNS    : 2     Number of data columns in the spectrum (This can be zero for configuration only files)
#XUNITS      : eV
#YUNITS      : COUNTS
#DATATYPE    : YY
#XPERCHAN    : 7.862, 7.881   eV per channel (separate by commas if more than one detector)
#OFFSET      : 18.5, -22.4         eV of first channel  (separate by commas if more than one detector
#SIGNALTYPE  : XRF
#YP_TEMP     : 3.294
#LIVETIME    : 8.96185, 8.98029   seconds (separate by commas if more than one detector)
#REALTIME    : 10, 10.0   seconds (separate by commas if more than one detector)
#SPECTRUM    : start of spectrum data
0, 0
0, 0
0, 0
0, 0
0, 0
0, 0
0, 0
0, 0
5, 0
19, 4
8, 1
22, 29
49, 38
2, 2
4, 1
50, 59
291, 329
61, 55
9, 4
2, 3
22, 17
85, 135
35, 31
48, 34
632, 151
1080, 120
74, 42
23, 23
8, 8
7, 5
5, 2
8, 5
8, 4
68, 85
95, 121
19, 11
12, 19
20, 20
4, 13
3, 12
7, 9
21, 31
26, 61
16, 41
7, 14
8, 15
10, 10
13, 15
14, 14
24, 12
14, 10
9, 12
9, 16
75, 85
96, 107
38, 29
44, 48
620, 873
3288, 3807
2168, 1877
156, 121
55, 19
73, 25
144, 163
519, 542
260, 262
25, 17
8, 7
6, 9
3, 7
4, 3
5, 10
0, 5
6, 7
3, 4
6, 5
7, 8
3, 2
3, 9
7, 5
5, 4
5, 6
4, 6
5, 0
4, 12
5, 5
3, 8
7, 4
3, 5
4, 1
5, 3
0, 3
6, 4
3, 0
2, 2
5, 3
0, 8
3, 4
7, 3
9, 2
6, 4
2, 2
1, 3
2, 1
0, 2
3, 1
1, 2
1, 2
0, 0
2, 2
4, 3
4, 0
1, 1
1, 0
1, 1
1, 3
9, 6
3, 2
3, 4
1, 0
0, 0
1, 0
5, 1
0, 0
2, 0
0, 0
0, 0
1, 1
1, 0
1, 1
2, 1
0, 0
1, 0
0, 0
1, 1
1, 1
0, 1
1, 1
0, 0
2, 1
0, 0
0, 0
0, 1
1, 1
0, 0
1, 1
0, 0
0, 0
2, 0
0, 0
1, 0
0, 0
0, 0
0, 0
0, 0
1, 0
0, 0
0, 0
0, 0
0, 0
0, 0
3, 0
1, 0
0, 0
0, 1
0, 0
0, 1
1, 1
0, 0
0, 0
0, 0
0, 0
0, 0
2, 0
0, 0
1, 0
0, 0
0, 0
0, 0
0, 0
1, 0
0, 0
0, 0
1, 0
0, 0
0, 0
0, 0
0, 0
0, 0
0, 0
0, 0
0, 0
0, 0
0, 0
1, 0
0, 0
0, 0
0, 0
0, 0
0, 0
0, 0
0, 0
0, 0
0, 0
0, 0
0, 0
0, 0
0, 0
0, 0
0, 0
0, 0
0, 0
0, 0
0, 0
0, 0
0, 0
0, 0
0, 0
0, 0
0, 0
0, 1
0, 0
0, 0
0, 1
0, 0
0, 0
0, 0
0, 0
0, 0
0, 0
0, 0
0, 0
0, 0
0, 0
0, 0
0, 0
0, 0
0, 0
0, 0
0, 0
0, 0
0, 0
0, 0
0, 0
0, 0
0, 0
0, 0
0, 0
0, 0
0, 0
0, 0
0, 0
0, 0
0, 0
0, 0
0, 0
0, 0
0, 0
0, 0
0, 0
0, 0
0, 0
0, 0
0, 0
0, 0
0, 0
0, 0
0, 0
0, 0
0, 0
0, 0
0, 0
0, 0
0, 0
0, 0
0, 0
0, 0
0, 0
0, 0
0, 0
0, 0
0, 0
0, 0
0, 0
0, 0
0, 0
0, 0
0, 0
0, 0
0, 0
0, 0
0, 0
0, 0
0, 0
#ENDOFDATA     end of spectrum data

File: ps__0257_0689790785_000rfs_shot_3216.msa
#FORMAT      : EMSA/MAS spectral data file
#VERSION     : TC202v2.0 PIXL
#TITLE       : N/A
#DATE        :       Date in the format DD-MMM-YYYY, for example 07-JUL-2010
#TIME        :             The time of day at which the spectrum was recorded, in 24-hour format
#OWNER       : PIXL Flight Model       (PIXL will use this to indicate which instrument took the data.)
#NPOINTS     : 4096     Number of data points in the spectrum (This can be zero for configuration only files)
#NCOLUMNS    : 2     Number of data columns in the spectrum (This can be zero for configuration only files)
#XUNITS      : eV
#YUNITS      : COUNTS
#DATATYPE    : YY
#XPERCHAN    : 7.862, 7.881   eV per channel (separate by commas if more than one detector)
#OFFSET      : 18.5, -22.4         eV of first channel  (separate by commas if more than one detector
#SIGNALTYPE  : XRF
#YP_TEMP     : 2.973
#LIVETIME    : 9.0492, 9.02388   seconds (separate by commas if more than one detector)
#REALTIME    : 10, 10.0   seconds (separate by commas if more than one detector)
#SPECTRUM    : start of spectrum data
0, 0
0, 0
0, 0
0, 0
0, 0
0, 0
0, 0
0, 0
0, 1
2, 2
1, 2
27, 28
32, 35
3, 1
3, 3
80, 84
466, 504
100, 98
1, 7
1, 3
35, 3
40, 22
4, 9
8, 12
68, 101
73, 99
37, 41
15, 24
5, 6
2, 4
1, 6
1, 4
6, 4
46, 73
90, 106
11, 18
11, 7
11, 13
6, 11
9, 10
11, 11
11, 15
20, 22
15, 22
6, 6
11, 10
5, 9
8, 8
6, 8
14, 55
16, 60
10, 24
21, 9
62, 55
93, 100
20, 28
33, 43
500, 714
2830, 3241
1758, 1624
145, 99
20, 20
30, 30
116, 156
440, 491
248, 208
11, 24
4, 8
9, 10
2, 9
4, 8
5, 9
10, 6
5, 6
6, 6
2, 7
5, 2
5, 7
3, 4
7, 9
3, 14
2, 10
7, 3
4, 6
4, 10
3, 3
4, 6
3, 4
2, 3
3, 3
2, 3
2, 9
5, 4
3, 3
3, 8
1, 4
0, 3
3, 1
3, 7
1, 5
3, 7
0, 2
0, 4
4, 2
3, 3
1, 1
4, 2
4, 1
2, 3
1, 3
5, 1
3, 2
3, 4
1, 3
1, 1
4, 4
3, 6
2, 6
1, 1
0, 0
1, 2
2, 1
1, 1
2, 1
1, 1
1, 0
2, 2
0, 0
0, 1
0, 2
2, 0
1, 1
1, 1
1, 1
0, 1
2, 0
1, 2
1, 0
0, 1
0, 0
1, 0
0, 0
1, 1
0, 1
0, 1
0, 1
0, 0
0, 2
0, 1
0, 0
0, 0
0, 0
0, 3
1, 1
0, 2
0, 0
0, 0
0, 0
0, 0
0, 0
0, 0
0, 0
1, 0
1, 2
0, 0
0, 0
0, 1
0, 0
1, 0
1, 0
0, 0
0, 0
0, 0
0, 1
0, 0
1, 0
1, 0
1, 0
0, 0
0, 0
0, 0
2, 1
0, 0
0, 0
0, 0
0, 0
0, 0
1, 0
0, 0
0, 0
0, 0
0, 0
1, 0
0, 0
0, 0
0, 0
0, 0
0, 0
0, 0
0, 0
0, 0
0, 0
0, 0
0, 0
0, 0
0, 0
0, 0
0, 0
0, 0
0, 0
0, 0
0, 0
0, 0
0, 0
0, 0
0, 0
0, 0
0, 0
0, 0
0, 0
0, 0
0, 0
0, 0
0, 0
0, 0
0, 0
0, 0
0, 0
0, 0
0, 0
0, 0
0, 0
0, 0
0, 0
0, 0
0, 0
0, 0
0, 0
0, 0
0, 0
0, 0
0, 0
0, 0
0, 0
0, 0
0, 0
0, 0
0, 0
0, 0
0, 0
0, 0
0, 0
0, 0
0, 0
0, 0
0, 0
0, 0
0, 0
0, 0
0, 0
0, 0
0, 0
0, 0
0, 0
0, 0
0, 0
0, 0
0, 0
0, 0
0, 0
0, 0
0, 0
0, 0
0, 0
0, 0
0, 0
0, 0
0, 0
0, 0
0, 0
0, 0
0, 0
0, 0
0, 0
0, 0
0, 0
0, 0
0, 0
0, 0
0, 0
0, 0
0, 0
0, 0
0, 0
#ENDOFDATA     end of spectrum data

File: ps__0257_0689790785_000rfs_shot_3217.msa
#FORMAT      : EMSA/MAS spectral data file
#VERSION     : TC202v2.0 PIXL
#TITLE       : N/A
#DATE        :       Date in the format DD-MMM-YYYY, for example 07-JUL-2010
#TIME        :             The time of day at which the spectrum was recorded, in 24-hour format
#OWNER       : PIXL Flight Model       (PIXL will use this to indicate which instrument took the data.)
#NPOINTS     : 4096     Number of data points in the spectrum (This can be zero for configuration only files)
#NCOLUMNS    : 2     Number of data columns in the spectrum (This can be zero for configuration only files)
#XUNITS      : eV
#YUNITS      : COUNTS
#DATATYPE    : YY
#XPERCHAN    : 7.862, 7.881   eV per channel (separate by commas if more than one detector)
#OFFSET      : 18.5, -22.4         eV of first channel  (separate by commas if more than one detector
#SIGNALTYPE  : XRF
#YP_TEMP     : 3.037
#LIVETIME    : 9.02853, 9.00895   seconds (separate by commas if more than one detector)
#REALTIME    : 10, 10.0   seconds (separate by commas if more than one detector)
#SPECTRUM    : start of spectrum data
0, 0
0, 0
0, 0
0, 0
0, 0
0, 0
0, 0
0, 1
1, 2
1, 1
0, 3
24, 22
33, 34
4, 5
5, 9
78, 63
506, 549
77, 91
4, 5
3, 2
42, 10
84, 63
18, 18
20, 12
65, 65
74, 69
32, 23
22, 12
10, 8
1, 4
3, 4
6, 1
1, 2
28, 51
34, 89
5, 19
4, 3
7, 15
9, 6
2, 5
4, 3
16, 10
18, 28
14, 16
6, 13
12, 9
8, 14
11, 7
13, 9
8, 49
14, 79
8, 25
8, 16
65, 69
111, 93
37, 20
41, 31
562, 739
3188, 3432
1932, 1723
153, 113
37, 19
42, 40
134, 170
462, 516
286, 219
21, 18
5, 4
9, 8
7, 6
3, 10
5, 3
4, 6
3, 7
7, 5
6, 3
3, 6
3, 5
4, 5
1, 6
9, 13
5, 13
4, 5
4, 5
3, 4
3, 1
4, 6
4, 2
5, 3
5, 2
1, 2
7, 1
3, 1
1, 4
1, 4
3, 1
4, 3
1, 4
2, 7
4, 11
0, 8
2, 4
8, 2
1, 1
1, 0
5, 1
5, 0
3, 1
2, 5
1, 2
2, 3
2, 4
4, 3
3, 2
2, 1
5, 1
4, 6
7, 3
3, 2
1, 2
2, 0
1, 2
2, 3
2, 4
0, 2
0, 0
2, 0
2, 1
0, 1
0, 0
0, 0
1, 2
0, 1
2, 0
0, 0
1, 2
1, 1
1, 0
1, 0
0, 0
1, 0
1, 1
1, 2
0, 1
0, 0
0, 1
0, 0
0, 0
0, 0
1, 0
0, 0
0, 0
0, 0
0, 0
2, 0
2, 0
0, 0
1, 0
0, 0
0, 0
0, 0
0, 0
0, 0
0, 0
0, 1
0, 0
0, 1
0, 0
0, 0
0, 0
0, 0
0, 0
0, 0
0, 0
0, 0
0, 0
0, 0
0, 0
0, 1
0, 0
1, 0
0, 0
0, 0
0, 0
0, 0
1, 0
0, 0
0, 1
0, 0
2, 1
0, 0
0, 0
0, 1
0, 1
0, 0
0, 0
0, 0
0, 0
0, 0
0, 0
0, 0
0, 0
0, 0
0, 0
0, 0
0, 0
0, 0
0, 0
0, 0
0, 0
0, 0
0, 0
0, 0
0, 0
0, 0
0, 0
0, 0
0, 0
0, 0
0, 0
0, 0
0, 0
0, 0
0, 0
0, 0
0, 0
0, 0
0, 0
0, 0
0, 0
0, 0
0, 0
0, 0
0, 0
0, 0
0, 0
0, 0
0, 0
0, 0
0, 0
0, 0
0, 0
0, 0
0, 0
0, 0
0, 0
0, 0
0, 0
0, 0
0, 0
0, 0
0, 0
0, 0
0, 0
0, 0
0, 0
0, 0
0, 0
0, 0
0, 0
0, 0
0, 0
0, 0
0, 0
0, 0
0, 0
0, 0
0, 0
0, 0
0, 0
0, 0
0, 0
0, 0
0, 0
0, 0
0, 0
0, 0
0, 0
0, 0
0, 0
0, 0
0, 0
0, 0
0, 0
0, 0
0, 0
0, 0
0, 0
0, 0
0, 0
0, 0
0, 0
0, 0
0, 0
#ENDOFDATA     end of spectrum data