Folder: data-repository/host_upload/02-11-2024/rqc/uplink1 (part 14)

File: ps__0567_0717304816_000rfs_shot_218.msa
#FORMAT      : EMSA/MAS spectral data file
#VERSION     : TC202v2.0 PIXL
#TITLE       : Novarupta (sol567) subset1
#DATE        : 02-11-2024      Date in the format DD-MMM-YYYY, for example 07-JUL-2010
#TIME        :             The time of day at which the spectrum was recorded, in 24-hour format
#OWNER       : PIXL Flight Model       (PIXL will use this to indicate which instrument took the data.)
#NPOINTS     : 4096     Number of data points in the spectrum (This can be zero for configuration only files)
#NCOLUMNS    : 2     Number of data columns in the spectrum (This can be zero for configuration only files)
#XUNITS      : eV
#YUNITS      : COUNTS
#DATATYPE    : YY
#XPERCHAN    : 7.862, 7.881   eV per channel (separate by commas if more than one detector)
#OFFSET      : 18.5, -22.4         eV of first channel  (separate by commas if more than one detector
#SIGNALTYPE  : XRF
#YP_TEMP     : 0.664
#LIVETIME    : 8.84076, 8.83219   seconds (separate by commas if more than one detector)
#REALTIME    : 10, 10.0   seconds (separate by commas if more than one detector)
#SPECTRUM    : start of spectrum data
0, 0
0, 0
0, 0
0, 0
0, 0
0, 0
0, 0
1, 2
4, 1
3, 1
3, 2
5, 6
17, 11
21, 21
36, 43
116, 128
479, 516
108, 99
26, 36
21, 25
45, 55
236, 283
108, 97
69, 77
207, 225
105, 105
66, 70
31, 28
5, 10
9, 11
29, 29
11, 15
11, 17
188, 212
326, 310
40, 48
37, 38
49, 52
11, 10
13, 14
23, 28
57, 68
38, 30
12, 12
13, 15
13, 21
13, 19
6, 13
13, 14
30, 37
17, 25
4, 17
10, 18
36, 39
47, 54
20, 20
33, 33
373, 463
1550, 1715
977, 957
119, 81
12, 17
18, 27
64, 112
217, 273
165, 126
29, 21
6, 10
10, 6
6, 5
6, 5
4, 12
9, 6
9, 5
4, 7
0, 10
9, 3
6, 8
12, 8
11, 14
5, 5
7, 5
3, 5
8, 3
7, 5
3, 4
5, 3
3, 3
2, 4
1, 1
3, 8
4, 5
1, 3
1, 4
3, 8
3, 3
5, 2
3, 7
3, 1
2, 2
6, 2
2, 2
2, 4
3, 3
5, 3
1, 3
4, 2
0, 1
2, 3
5, 0
4, 1
1, 4
1, 0
2, 3
0, 4
3, 1
1, 3
0, 2
3, 3
2, 3
3, 2
0, 2
2, 2
0, 1
0, 1
1, 0
1, 2
0, 1
0, 3
0, 1
0, 1
0, 0
1, 2
1, 0
0, 1
1, 1
0, 1
1, 0
0, 1
1, 0
1, 0
0, 2
0, 0
0, 2
0, 0
1, 0
0, 1
1, 0
1, 0
0, 1
0, 0
0, 0
0, 0
0, 1
0, 1
0, 0
0, 1
0, 0
0, 1
0, 1
0, 0
1, 1
0, 0
0, 0
0, 0
1, 2
1, 0
0, 0
0, 1
0, 1
0, 1
0, 0
0, 0
0, 0
0, 0
1, 0
0, 0
0, 0
0, 0
0, 1
0, 0
0, 0
0, 0
0, 0
0, 0
0, 0
0, 0
0, 0
0, 0
0, 0
0, 0
0, 0
0, 0
0, 0
0, 0
0, 0
0, 0
0, 0
0, 0
1, 0
0, 0
0, 0
0, 0
0, 0
0, 0
0, 0
0, 0
0, 0
0, 0
0, 0
0, 0
0, 0
0, 0
0, 0
0, 0
0, 0
0, 0
0, 0
0, 0
0, 0
0, 0
0, 0
0, 0
0, 0
0, 0
0, 0
0, 0
0, 0
0, 0
0, 0
0, 0
0, 0
0, 0
0, 0
0, 0
0, 0
0, 0
0, 0
0, 0
0, 0
0, 0
0, 0
0, 0
0, 0
0, 0
0, 0
0, 0
0, 0
0, 0
0, 0
0, 0
0, 0
0, 0
0, 0
0, 0
0, 0
0, 0
0, 0
0, 0
0, 0
0, 0
0, 0
0, 0
0, 0
0, 0
0, 0
0, 0
0, 0
0, 0
0, 0
0, 0
0, 0
0, 0
0, 0
0, 0
0, 0
0, 0
0, 0
0, 0
0, 0
0, 0
0, 0
0, 0
0, 0
0, 0
0, 0
0, 0
0, 0
0, 0
0, 0
0, 0
0, 0
0, 0
0, 0
#ENDOFDATA     end of spectrum data

File: ps__0567_0717304816_000rfs_shot_219.msa
#FORMAT      : EMSA/MAS spectral data file
#VERSION     : TC202v2.0 PIXL
#TITLE       : Novarupta (sol567) subset1
#DATE        : 02-11-2024      Date in the format DD-MMM-YYYY, for example 07-JUL-2010
#TIME        :             The time of day at which the spectrum was recorded, in 24-hour format
#OWNER       : PIXL Flight Model       (PIXL will use this to indicate which instrument took the data.)
#NPOINTS     : 4096     Number of data points in the spectrum (This can be zero for configuration only files)
#NCOLUMNS    : 2     Number of data columns in the spectrum (This can be zero for configuration only files)
#XUNITS      : eV
#YUNITS      : COUNTS
#DATATYPE    : YY
#XPERCHAN    : 7.862, 7.881   eV per channel (separate by commas if more than one detector)
#OFFSET      : 18.5, -22.4         eV of first channel  (separate by commas if more than one detector
#SIGNALTYPE  : XRF
#YP_TEMP     : 0.92
#LIVETIME    : 8.85311, 8.83383   seconds (separate by commas if more than one detector)
#REALTIME    : 10, 10.0   seconds (separate by commas if more than one detector)
#SPECTRUM    : start of spectrum data
0, 0
0, 0
0, 0
0, 0
0, 0
0, 0
0, 0
0, 2
2, 3
3, 1
2, 5
7, 16
15, 10
20, 27
33, 36
103, 132
420, 492
102, 111
28, 36
23, 23
59, 52
256, 329
109, 102
62, 88
197, 216
104, 110
61, 85
18, 41
9, 6
15, 5
28, 32
20, 18
12, 13
166, 222
298, 318
46, 45
40, 52
56, 44
10, 15
10, 10
18, 26
57, 73
35, 29
19, 11
14, 8
18, 23
9, 8
13, 8
11, 11
32, 32
26, 31
15, 10
11, 16
32, 46
42, 41
18, 19
18, 37
338, 510
1486, 1755
997, 957
118, 101
13, 14
21, 29
83, 102
252, 243
152, 135
20, 21
4, 7
15, 11
9, 7
2, 7
9, 6
4, 3
6, 5
5, 5
8, 8
6, 4
8, 12
8, 13
6, 6
3, 6
2, 9
7, 4
9, 4
3, 5
4, 4
5, 1
8, 8
10, 6
3, 3
7, 6
8, 5
3, 2
6, 4
5, 4
0, 3
6, 5
2, 2
2, 1
3, 3
4, 3
3, 4
0, 2
1, 1
2, 1
2, 1
3, 3
2, 2
3, 1
2, 5
0, 1
5, 0
3, 5
1, 3
2, 2
2, 4
3, 4
1, 2
1, 1
1, 0
0, 3
1, 2
1, 1
3, 2
0, 2
2, 3
0, 1
1, 0
1, 1
0, 0
1, 0
0, 0
0, 1
0, 2
0, 0
4, 0
0, 0
0, 2
2, 1
0, 0
0, 0
0, 2
0, 1
2, 0
0, 0
1, 1
0, 0
1, 0
1, 0
0, 0
0, 0
0, 1
1, 1
1, 0
0, 0
0, 0
0, 1
1, 0
1, 1
1, 0
0, 0
1, 0
1, 1
0, 0
0, 0
0, 1
0, 1
0, 0
0, 0
0, 0
0, 1
1, 2
1, 0
0, 0
0, 0
0, 1
0, 0
0, 0
0, 0
1, 0
0, 1
1, 0
0, 1
0, 1
0, 1
0, 0
0, 0
0, 0
0, 0
0, 0
0, 0
0, 1
0, 0
0, 0
0, 0
0, 0
0, 0
0, 0
0, 0
0, 0
0, 0
0, 0
0, 1
0, 0
0, 0
0, 0
0, 0
0, 0
0, 0
0, 0
0, 0
0, 0
0, 0
0, 0
0, 0
0, 0
0, 0
0, 0
0, 0
0, 0
0, 0
0, 0
0, 0
0, 0
0, 0
0, 0
0, 0
0, 0
0, 0
0, 0
0, 0
0, 0
0, 0
0, 0
0, 0
0, 0
0, 0
0, 0
0, 0
0, 0
0, 0
0, 0
0, 0
0, 0
0, 0
0, 0
0, 0
0, 0
0, 0
0, 0
0, 0
0, 0
0, 0
0, 0
0, 0
0, 0
0, 0
0, 0
0, 0
0, 0
0, 0
0, 0
0, 0
0, 0
0, 0
0, 0
0, 0
0, 0
0, 0
0, 0
0, 0
0, 0
0, 0
0, 0
0, 0
0, 0
0, 0
0, 0
0, 0
0, 0
0, 0
0, 0
0, 0
0, 0
0, 0
0, 0
0, 0
0, 0
0, 0
0, 0
0, 0
0, 0
0, 0
0, 0
#ENDOFDATA     end of spectrum data

File: ps__0567_0717304816_000rfs_shot_220.msa
#FORMAT      : EMSA/MAS spectral data file
#VERSION     : TC202v2.0 PIXL
#TITLE       : Novarupta (sol567) subset1
#DATE        : 02-11-2024      Date in the format DD-MMM-YYYY, for example 07-JUL-2010
#TIME        :             The time of day at which the spectrum was recorded, in 24-hour format
#OWNER       : PIXL Flight Model       (PIXL will use this to indicate which instrument took the data.)
#NPOINTS     : 4096     Number of data points in the spectrum (This can be zero for configuration only files)
#NCOLUMNS    : 2     Number of data columns in the spectrum (This can be zero for configuration only files)
#XUNITS      : eV
#YUNITS      : COUNTS
#DATATYPE    : YY
#XPERCHAN    : 7.862, 7.881   eV per channel (separate by commas if more than one detector)
#OFFSET      : 18.5, -22.4         eV of first channel  (separate by commas if more than one detector
#SIGNALTYPE  : XRF
#YP_TEMP     : 0.824
#LIVETIME    : 8.84667, 8.82329   seconds (separate by commas if more than one detector)
#REALTIME    : 10, 10.0   seconds (separate by commas if more than one detector)
#SPECTRUM    : start of spectrum data
0, 0
0, 0
0, 0
0, 0
0, 0
0, 0
0, 1
0, 0
0, 3
3, 4
3, 3
12, 12
16, 15
21, 24
38, 61
121, 133
462, 537
102, 108
32, 32
25, 29
57, 69
284, 291
95, 110
73, 84
226, 276
100, 123
70, 72
24, 31
7, 11
9, 7
21, 36
17, 23
15, 21
190, 262
284, 320
38, 54
40, 33
49, 36
13, 12
10, 5
20, 19
52, 58
30, 28
12, 20
14, 13
16, 11
8, 12
9, 8
10, 13
39, 33
26, 20
14, 9
14, 12
35, 35
56, 49
30, 16
31, 38
351, 511
1614, 1739
980, 1033
121, 95
17, 14
19, 27
84, 120
248, 258
140, 132
18, 18
7, 14
12, 11
8, 10
7, 4
5, 8
2, 1
2, 5
9, 11
4, 2
4, 7
8, 10
12, 15
7, 13
8, 4
5, 8
7, 6
6, 6
3, 1
5, 3
2, 8
3, 6
4, 3
3, 3
5, 6
2, 8
6, 3
4, 8
1, 3
3, 6
5, 5
1, 6
3, 0
5, 3
0, 6
2, 3
3, 1
2, 5
0, 4
1, 1
2, 2
1, 3
4, 4
1, 2
2, 2
4, 0
3, 3
2, 1
0, 1
2, 0
3, 5
3, 4
0, 0
1, 0
3, 1
4, 4
3, 3
2, 2
3, 1
2, 2
1, 0
0, 3
1, 2
1, 0
1, 1
0, 1
0, 0
3, 0
0, 2
0, 1
0, 0
0, 0
1, 0
1, 1
1, 0
0, 0
1, 3
1, 0
1, 1
1, 1
2, 0
1, 0
0, 0
1, 0
0, 1
0, 0
0, 0
0, 0
2, 0
0, 0
0, 1
0, 0
1, 0
1, 1
0, 1
1, 0
0, 0
0, 0
0, 0
0, 1
1, 0
0, 1
0, 0
1, 1
0, 0
0, 0
2, 1
0, 0
0, 0
1, 0
0, 0
0, 0
0, 0
0, 0
0, 0
0, 0
1, 0
0, 1
0, 0
0, 0
0, 0
0, 1
0, 0
0, 0
0, 0
0, 0
0, 0
0, 0
0, 0
0, 0
0, 0
0, 0
0, 0
0, 0
0, 0
0, 0
0, 0
0, 0
0, 0
0, 0
0, 0
0, 0
0, 0
0, 0
0, 0
0, 0
0, 0
0, 0
0, 0
0, 0
0, 0
0, 0
0, 0
0, 0
0, 0
0, 0
0, 0
0, 0
0, 0
0, 0
0, 0
1, 0
0, 0
0, 0
0, 0
0, 0
0, 0
0, 0
0, 0
0, 0
0, 0
0, 0
0, 0
0, 0
0, 0
0, 0
0, 0
0, 0
0, 0
0, 0
0, 0
0, 0
0, 0
0, 0
0, 0
0, 0
0, 0
0, 0
0, 0
0, 0
0, 0
0, 0
0, 0
0, 0
0, 0
0, 0
0, 0
0, 0
0, 0
0, 0
0, 0
0, 0
0, 0
0, 0
0, 0
0, 0
0, 0
0, 0
0, 0
0, 0
0, 0
0, 0
0, 0
0, 0
0, 0
0, 0
0, 0
0, 0
0, 0
0, 0
0, 0
0, 0
0, 0
0, 0
0, 0
0, 0
0, 0
0, 0
#ENDOFDATA     end of spectrum data

File: ps__0567_0717304816_000rfs_shot_221.msa
#FORMAT      : EMSA/MAS spectral data file
#VERSION     : TC202v2.0 PIXL
#TITLE       : Novarupta (sol567) subset1
#DATE        : 02-11-2024      Date in the format DD-MMM-YYYY, for example 07-JUL-2010
#TIME        :             The time of day at which the spectrum was recorded, in 24-hour format
#OWNER       : PIXL Flight Model       (PIXL will use this to indicate which instrument took the data.)
#NPOINTS     : 4096     Number of data points in the spectrum (This can be zero for configuration only files)
#NCOLUMNS    : 2     Number of data columns in the spectrum (This can be zero for configuration only files)
#XUNITS      : eV
#YUNITS      : COUNTS
#DATATYPE    : YY
#XPERCHAN    : 7.862, 7.881   eV per channel (separate by commas if more than one detector)
#OFFSET      : 18.5, -22.4         eV of first channel  (separate by commas if more than one detector
#SIGNALTYPE  : XRF
#YP_TEMP     : 0.504
#LIVETIME    : 8.8419, 8.83019   seconds (separate by commas if more than one detector)
#REALTIME    : 10, 10.0   seconds (separate by commas if more than one detector)
#SPECTRUM    : start of spectrum data
0, 0
0, 0
0, 0
0, 0
0, 0
0, 0
0, 0
0, 1
2, 7
1, 2
0, 3
11, 10
21, 9
21, 23
41, 42
103, 137
474, 547
117, 97
36, 29
26, 15
51, 49
279, 293
108, 105
67, 75
219, 218
105, 114
70, 68
32, 28
9, 7
11, 7
22, 26
25, 21
24, 22
203, 251
313, 360
54, 45
40, 45
53, 48
18, 12
8, 10
13, 24
70, 61
34, 29
10, 14
13, 16
10, 16
18, 12
11, 11
11, 16
32, 35
18, 25
19, 11
9, 16
45, 36
51, 48
22, 21
27, 37
371, 449
1609, 1730
1050, 919
127, 103
13, 13
17, 18
95, 135
254, 295
163, 134
25, 21
13, 18
19, 12
10, 7
9, 7
6, 3
5, 10
5, 10
11, 3
2, 8
9, 4
10, 8
11, 17
10, 9
8, 8
6, 5
5, 5
1, 3
6, 9
4, 3
5, 4
3, 7
6, 7
4, 3
4, 3
5, 7
4, 3
3, 5
4, 2
3, 4
2, 4
3, 1
4, 4
5, 3
5, 3
5, 3
5, 4
3, 4
1, 3
3, 5
5, 5
2, 4
4, 4
4, 7
3, 3
3, 0
0, 3
3, 2
1, 1
1, 1
3, 3
4, 0
5, 1
1, 0
0, 1
1, 2
0, 2
3, 1
2, 0
1, 2
0, 2
1, 1
1, 2
1, 2
1, 1
1, 0
2, 3
1, 1
1, 0
1, 0
3, 1
1, 1
2, 0
0, 2
0, 0
1, 0
1, 2
2, 1
1, 0
0, 0
0, 1
0, 1
0, 0
0, 0
0, 0
0, 0
0, 1
1, 1
1, 0
0, 0
2, 0
1, 0
0, 0
0, 0
0, 1
1, 0
0, 0
0, 0
0, 1
0, 1
0, 0
0, 0
0, 1
0, 1
0, 0
1, 0
0, 0
0, 0
0, 0
0, 1
0, 0
0, 0
0, 0
1, 0
0, 0
0, 0
0, 2
0, 0
1, 1
0, 0
0, 0
0, 0
0, 0
0, 0
0, 1
0, 0
0, 0
0, 0
0, 0
0, 0
0, 0
0, 0
0, 0
0, 0
0, 0
0, 0
0, 0
0, 0
0, 0
0, 0
0, 0
0, 0
0, 0
0, 0
0, 0
0, 0
0, 0
0, 0
0, 0
0, 0
0, 0
0, 0
0, 0
0, 0
0, 0
0, 0
0, 0
0, 0
0, 0
0, 0
0, 0
0, 0
0, 0
0, 0
0, 0
0, 0
0, 0
0, 0
0, 0
0, 0
0, 0
0, 0
0, 0
0, 0
0, 0
0, 0
0, 0
0, 0
0, 0
0, 0
0, 0
0, 0
0, 0
0, 0
0, 0
0, 0
0, 0
0, 0
0, 0
0, 0
0, 0
0, 0
0, 0
0, 0
0, 0
0, 0
0, 0
0, 0
0, 0
0, 0
0, 0
0, 0
0, 0
0, 0
0, 0
0, 0
0, 0
0, 0
0, 0
0, 0
0, 0
0, 0
0, 0
0, 0
0, 0
0, 0
0, 0
0, 0
0, 0
0, 0
0, 0
0, 0
0, 0
0, 0
0, 0
0, 0
0, 0
0, 0
#ENDOFDATA     end of spectrum data

File: ps__0567_0717304816_000rfs_shot_223.msa
#FORMAT      : EMSA/MAS spectral data file
#VERSION     : TC202v2.0 PIXL
#TITLE       : Novarupta (sol567) subset1
#DATE        : 02-11-2024      Date in the format DD-MMM-YYYY, for example 07-JUL-2010
#TIME        :             The time of day at which the spectrum was recorded, in 24-hour format
#OWNER       : PIXL Flight Model       (PIXL will use this to indicate which instrument took the data.)
#NPOINTS     : 4096     Number of data points in the spectrum (This can be zero for configuration only files)
#NCOLUMNS    : 2     Number of data columns in the spectrum (This can be zero for configuration only files)
#XUNITS      : eV
#YUNITS      : COUNTS
#DATATYPE    : YY
#XPERCHAN    : 7.862, 7.881   eV per channel (separate by commas if more than one detector)
#OFFSET      : 18.5, -22.4         eV of first channel  (separate by commas if more than one detector
#SIGNALTYPE  : XRF
#YP_TEMP     : 0.76
#LIVETIME    : 8.83918, 8.82267   seconds (separate by commas if more than one detector)
#REALTIME    : 10, 10.0   seconds (separate by commas if more than one detector)
#SPECTRUM    : start of spectrum data
0, 0
0, 0
0, 0
0, 0
0, 0
0, 0
0, 0
0, 1
2, 2
4, 2
6, 5
10, 6
12, 18
25, 29
55, 48
117, 130
465, 519
118, 112
36, 24
18, 28
54, 53
265, 304
106, 110
74, 70
241, 236
108, 126
79, 59
32, 36
8, 3
13, 8
18, 33
18, 9
20, 20
204, 246
323, 321
53, 53
41, 29
47, 56
12, 11
12, 8
19, 12
48, 61
40, 33
7, 9
12, 13
27, 24
16, 16
9, 16
14, 14
30, 31
21, 19
17, 18
7, 14
24, 24
52, 59
13, 29
21, 35
378, 504
1532, 1823
1048, 980
115, 96
25, 26
14, 20
96, 98
270, 273
147, 144
31, 14
11, 11
7, 14
9, 2
7, 9
10, 7
6, 6
6, 8
4, 14
5, 3
8, 9
9, 10
10, 14
6, 16
11, 7
3, 4
4, 5
3, 3
12, 2
4, 3
7, 7
6, 6
8, 3
4, 8
5, 5
4, 3
6, 6
2, 4
0, 7
5, 2
2, 4
6, 1
4, 2
3, 3
1, 1
4, 6
5, 3
3, 1
3, 5
3, 0
1, 1
6, 2
3, 4
1, 2
3, 1
4, 3
4, 4
6, 3
0, 4
4, 3
1, 3
4, 4
2, 2
1, 3
0, 2
1, 1
3, 3
1, 3
1, 2
0, 0
1, 4
0, 1
0, 2
0, 0
0, 0
0, 0
1, 0
0, 1
1, 1
2, 0
0, 1
1, 0
1, 0
1, 0
2, 2
0, 0
1, 1
1, 1
0, 2
0, 1
0, 0
1, 0
0, 0
0, 0
0, 1
0, 1
0, 0
0, 0
1, 0
0, 0
1, 0
0, 3
0, 0
0, 0
0, 0
1, 0
1, 0
0, 0
0, 0
0, 0
0, 0
0, 0
0, 0
0, 0
0, 0
0, 0
0, 0
0, 0
0, 0
0, 0
0, 0
0, 1
0, 0
0, 0
0, 0
0, 1
0, 0
0, 1
1, 0
0, 0
0, 0
0, 0
0, 1
0, 0
0, 0
0, 0
0, 0
0, 1
0, 0
0, 0
0, 0
0, 0
0, 0
1, 0
0, 0
0, 0
0, 0
0, 0
0, 0
0, 0
0, 0
0, 0
0, 0
0, 0
0, 0
0, 0
0, 0
0, 0
0, 0
0, 0
0, 0
0, 0
0, 0
0, 0
0, 0
0, 0
0, 0
0, 0
0, 0
0, 0
0, 0
0, 0
0, 0
0, 0
0, 0
0, 0
0, 0
0, 0
0, 0
0, 0
0, 0
0, 0
0, 0
0, 0
0, 0
0, 0
0, 0
0, 0
0, 0
0, 0
0, 0
0, 0
0, 0
0, 0
0, 0
0, 0
0, 0
0, 0
0, 0
0, 0
0, 0
0, 0
0, 0
0, 0
0, 0
0, 0
0, 0
0, 0
0, 0
0, 0
0, 0
0, 0
0, 0
0, 0
0, 0
0, 0
0, 0
0, 0
0, 0
0, 0
0, 0
0, 0
0, 0
0, 0
0, 0
0, 0
0, 0
0, 0
0, 0
0, 0
0, 0
0, 0
0, 0
0, 0
0, 0
0, 0
0, 0
0, 0
#ENDOFDATA     end of spectrum data

File: ps__0567_0717304816_000rfs_shot_236.msa
#FORMAT      : EMSA/MAS spectral data file
#VERSION     : TC202v2.0 PIXL
#TITLE       : Novarupta (sol567) subset1
#DATE        : 02-11-2024      Date in the format DD-MMM-YYYY, for example 07-JUL-2010
#TIME        :             The time of day at which the spectrum was recorded, in 24-hour format
#OWNER       : PIXL Flight Model       (PIXL will use this to indicate which instrument took the data.)
#NPOINTS     : 4096     Number of data points in the spectrum (This can be zero for configuration only files)
#NCOLUMNS    : 2     Number of data columns in the spectrum (This can be zero for configuration only files)
#XUNITS      : eV
#YUNITS      : COUNTS
#DATATYPE    : YY
#XPERCHAN    : 7.862, 7.881   eV per channel (separate by commas if more than one detector)
#OFFSET      : 18.5, -22.4         eV of first channel  (separate by commas if more than one detector
#SIGNALTYPE  : XRF
#YP_TEMP     : 1.017
#LIVETIME    : 8.83343, 8.81408   seconds (separate by commas if more than one detector)
#REALTIME    : 10, 10.0   seconds (separate by commas if more than one detector)
#SPECTRUM    : start of spectrum data
0, 0
0, 0
0, 0
0, 0
0, 0
0, 0
0, 0
0, 3
3, 5
3, 3
0, 3
7, 9
16, 11
23, 25
32, 59
89, 123
483, 531
135, 107
33, 46
31, 26
39, 61
264, 299
100, 117
69, 76
181, 233
101, 107
48, 52
26, 23
12, 12
8, 12
38, 22
21, 14
16, 16
189, 251
299, 311
51, 53
43, 47
60, 43
10, 16
7, 10
27, 18
49, 51
36, 35
18, 12
12, 14
17, 25
12, 16
6, 15
17, 20
19, 32
16, 19
13, 12
7, 10
21, 38
54, 47
23, 24
29, 42
362, 469
1530, 1875
1103, 1057
141, 99
14, 19
22, 24
83, 105
249, 276
151, 152
9, 17
9, 10
8, 8
9, 9
11, 3
9, 4
8, 5
10, 11
11, 6
6, 9
4, 12
7, 8
8, 14
11, 10
8, 5
5, 3
6, 6
6, 6
7, 4
6, 4
5, 6
5, 4
4, 4
6, 6
2, 7
5, 5
5, 2
4, 4
3, 2
2, 9
4, 3
3, 1
4, 3
4, 3
3, 4
4, 1
1, 3
4, 2
4, 4
3, 1
1, 0
2, 2
2, 2
3, 1
5, 0
0, 1
1, 3
0, 4
2, 5
1, 2
5, 5
1, 2
0, 0
2, 1
1, 1
0, 1
1, 1
0, 1
1, 0
2, 0
0, 2
3, 1
1, 3
3, 3
1, 3
0, 1
0, 2
0, 0
2, 1
1, 1
4, 0
1, 0
1, 1
0, 0
0, 1
0, 1
2, 1
1, 0
1, 0
0, 0
0, 1
1, 1
0, 0
0, 1
0, 0
1, 0
0, 0
1, 0
0, 0
0, 0
0, 0
1, 0
0, 1
0, 0
0, 0
0, 0
1, 1
0, 0
1, 0
0, 0
0, 0
1, 0
1, 0
0, 1
0, 0
0, 1
1, 0
2, 0
0, 0
0, 1
0, 0
1, 0
0, 0
0, 0
0, 0
0, 0
0, 0
1, 0
0, 0
1, 0
0, 0
0, 0
0, 0
0, 0
0, 0
0, 0
0, 0
0, 0
0, 0
0, 0
0, 0
0, 0
0, 0
0, 0
0, 0
0, 0
0, 0
0, 0
0, 1
0, 0
0, 1
0, 0
0, 0
0, 0
0, 0
0, 0
0, 0
0, 0
0, 0
0, 0
0, 0
0, 0
0, 0
0, 0
0, 0
0, 0
0, 0
0, 0
0, 0
0, 0
0, 0
0, 0
0, 0
0, 0
0, 0
0, 0
0, 0
0, 0
0, 0
0, 0
0, 0
0, 0
0, 0
0, 0
0, 0
0, 0
0, 0
0, 0
0, 0
0, 0
0, 0
0, 0
0, 0
0, 0
0, 0
0, 0
0, 0
0, 0
0, 0
0, 0
0, 0
0, 0
0, 0
0, 0
0, 0
0, 0
0, 0
0, 0
0, 0
0, 0
0, 0
0, 0
0, 0
0, 0
0, 0
0, 0
0, 0
0, 0
0, 0
0, 0
0, 0
0, 0
0, 0
0, 0
0, 0
0, 0
0, 0
0, 0
0, 0
0, 0
0, 0
0, 0
0, 0
0, 0
0, 0
0, 0
0, 0
0, 0
#ENDOFDATA     end of spectrum data

File: ps__0567_0717304816_000rfs_shot_237.msa
#FORMAT      : EMSA/MAS spectral data file
#VERSION     : TC202v2.0 PIXL
#TITLE       : Novarupta (sol567) subset1
#DATE        : 02-11-2024      Date in the format DD-MMM-YYYY, for example 07-JUL-2010
#TIME        :             The time of day at which the spectrum was recorded, in 24-hour format
#OWNER       : PIXL Flight Model       (PIXL will use this to indicate which instrument took the data.)
#NPOINTS     : 4096     Number of data points in the spectrum (This can be zero for configuration only files)
#NCOLUMNS    : 2     Number of data columns in the spectrum (This can be zero for configuration only files)
#XUNITS      : eV
#YUNITS      : COUNTS
#DATATYPE    : YY
#XPERCHAN    : 7.862, 7.881   eV per channel (separate by commas if more than one detector)
#OFFSET      : 18.5, -22.4         eV of first channel  (separate by commas if more than one detector
#SIGNALTYPE  : XRF
#YP_TEMP     : 1.049
#LIVETIME    : 8.82362, 8.81818   seconds (separate by commas if more than one detector)
#REALTIME    : 10, 10.0   seconds (separate by commas if more than one detector)
#SPECTRUM    : start of spectrum data
0, 0
0, 0
0, 0
0, 0
0, 0
0, 0
0, 0
0, 0
2, 3
3, 5
1, 3
15, 12
12, 14
24, 20
55, 54
125, 125
472, 488
123, 122
35, 31
16, 22
53, 63
287, 322
119, 113
77, 84
214, 200
107, 115
72, 62
30, 37
13, 20
8, 8
32, 29
18, 25
18, 19
213, 258
338, 314
52, 32
34, 66
43, 43
7, 11
9, 9
17, 23
51, 69
33, 38
15, 22
12, 10
17, 27
19, 15
8, 12
9, 18
25, 41
12, 19
8, 11
9, 13
35, 40
40, 62
17, 21
27, 43
376, 459
1599, 1801
1078, 971
133, 100
25, 16
18, 32
80, 100
278, 276
167, 131
19, 18
6, 11
12, 14
4, 7
11, 5
8, 5
8, 2
12, 8
5, 4
3, 7
8, 4
7, 7
12, 8
15, 15
3, 7
11, 11
4, 4
2, 2
10, 11
5, 5
3, 7
6, 7
3, 7
5, 6
5, 2
4, 3
6, 2
4, 7
4, 1
2, 2
4, 2
2, 3
4, 4
3, 4
5, 3
1, 3
3, 3
3, 4
0, 2
3, 1
3, 2
1, 1
1, 1
3, 2
2, 3
1, 2
1, 1
3, 3
3, 3
2, 4
3, 3
2, 2
0, 3
1, 1
0, 3
0, 3
1, 0
1, 1
1, 2
2, 1
0, 2
2, 2
1, 0
1, 1
4, 0
0, 2
0, 0
0, 0
2, 0
1, 0
0, 4
1, 0
1, 0
2, 0
0, 1
0, 1
1, 0
0, 0
0, 0
0, 1
1, 0
0, 1
1, 0
0, 0
2, 0
0, 0
1, 0
0, 2
0, 1
1, 0
0, 0
0, 0
1, 0
0, 0
0, 1
0, 0
0, 0
0, 0
2, 0
0, 1
0, 1
0, 0
0, 0
0, 0
1, 0
0, 0
0, 0
0, 0
1, 0
0, 0
0, 0
0, 1
0, 0
0, 0
0, 0
0, 0
0, 0
0, 0
1, 0
0, 0
0, 0
1, 0
0, 0
0, 0
0, 0
0, 0
0, 0
0, 0
0, 0
0, 0
0, 0
0, 0
0, 0
0, 0
0, 0
0, 0
0, 0
0, 0
0, 0
0, 0
0, 0
0, 0
0, 0
0, 0
0, 0
0, 0
0, 0
0, 0
0, 0
0, 0
0, 0
0, 0
0, 0
0, 0
0, 0
0, 0
0, 0
0, 0
0, 0
0, 0
0, 0
0, 0
0, 0
0, 0
0, 0
0, 0
0, 0
0, 0
0, 0
0, 0
0, 0
0, 0
0, 0
0, 0
0, 0
0, 0
0, 0
0, 0
0, 0
0, 0
0, 0
0, 0
0, 0
0, 0
0, 0
0, 0
0, 0
0, 0
0, 0
0, 0
0, 0
0, 0
0, 0
0, 0
0, 0
0, 0
0, 0
0, 0
0, 0
0, 0
0, 0
0, 0
0, 0
0, 0
0, 0
0, 0
0, 0
0, 0
0, 0
0, 0
0, 0
0, 0
0, 0
0, 0
0, 0
0, 0
0, 0
0, 0
0, 0
0, 0
0, 0
0, 0
0, 0
0, 0
0, 0
0, 0
0, 0
0, 0
#ENDOFDATA     end of spectrum data

File: ps__0567_0717304816_000rfs_shot_238.msa
#FORMAT      : EMSA/MAS spectral data file
#VERSION     : TC202v2.0 PIXL
#TITLE       : Novarupta (sol567) subset1
#DATE        : 02-11-2024      Date in the format DD-MMM-YYYY, for example 07-JUL-2010
#TIME        :             The time of day at which the spectrum was recorded, in 24-hour format
#OWNER       : PIXL Flight Model       (PIXL will use this to indicate which instrument took the data.)
#NPOINTS     : 4096     Number of data points in the spectrum (This can be zero for configuration only files)
#NCOLUMNS    : 2     Number of data columns in the spectrum (This can be zero for configuration only files)
#XUNITS      : eV
#YUNITS      : COUNTS
#DATATYPE    : YY
#XPERCHAN    : 7.862, 7.881   eV per channel (separate by commas if more than one detector)
#OFFSET      : 18.5, -22.4         eV of first channel  (separate by commas if more than one detector
#SIGNALTYPE  : XRF
#YP_TEMP     : 1.049
#LIVETIME    : 8.84038, 8.81105   seconds (separate by commas if more than one detector)
#REALTIME    : 10, 10.0   seconds (separate by commas if more than one detector)
#SPECTRUM    : start of spectrum data
0, 0
0, 0
0, 0
0, 0
0, 0
0, 0
0, 0
1, 1
4, 7
2, 2
0, 4
8, 15
13, 13
19, 28
38, 39
95, 147
505, 541
120, 124
27, 36
26, 28
42, 47
317, 357
100, 106
75, 81
196, 252
94, 114
53, 57
27, 35
10, 13
2, 10
26, 24
21, 18
15, 12
196, 218
320, 367
67, 44
38, 56
57, 48
11, 10
7, 8
15, 29
55, 66
33, 33
14, 13
14, 14
15, 26
14, 12
12, 21
5, 20
27, 25
26, 24
6, 13
27, 17
31, 56
39, 57
21, 28
28, 29
341, 494
1559, 1770
1041, 1010
130, 99
18, 16
20, 23
82, 105
224, 292
130, 142
17, 16
11, 10
7, 11
7, 8
9, 1
5, 7
6, 10
11, 10
5, 9
9, 6
7, 7
5, 11
8, 12
12, 18
7, 5
5, 4
3, 8
3, 5
6, 5
9, 2
1, 5
5, 6
2, 10
5, 7
1, 4
6, 5
1, 5
2, 0
6, 4
3, 6
9, 3
3, 6
1, 2
5, 1
1, 4
4, 3
4, 2
4, 5
5, 3
4, 2
3, 1
3, 2
2, 6
1, 3
3, 1
0, 1
1, 2
3, 5
0, 0
1, 1
4, 5
3, 3
2, 3
1, 2
1, 2
0, 2
1, 2
1, 1
1, 2
1, 3
1, 0
0, 1
0, 0
2, 2
0, 2
1, 0
1, 1
2, 0
0, 0
0, 0
0, 0
1, 2
2, 0
2, 0
0, 0
1, 0
0, 1
0, 0
0, 0
0, 1
0, 1
0, 0
1, 3
0, 1
1, 0
0, 0
1, 0
0, 1
0, 1
0, 1
0, 0
0, 0
0, 1
0, 0
0, 0
0, 1
0, 1
0, 0
1, 0
0, 0
0, 0
0, 0
0, 0
0, 0
0, 0
0, 0
1, 0
0, 0
0, 1
0, 0
0, 0
0, 1
0, 0
0, 0
0, 0
0, 0
0, 0
0, 0
0, 0
0, 0
0, 0
0, 1
1, 0
0, 0
0, 0
0, 0
0, 0
1, 0
0, 0
0, 0
0, 0
1, 0
0, 0
0, 0
0, 1
0, 0
0, 0
0, 0
0, 0
0, 0
0, 0
0, 0
0, 0
0, 0
0, 0
0, 0
0, 0
0, 0
0, 0
0, 0
0, 0
0, 0
0, 0
0, 0
0, 0
0, 0
0, 0
0, 0
0, 0
0, 0
0, 0
0, 0
0, 0
0, 0
0, 0
0, 0
0, 0
0, 0
0, 0
0, 0
0, 0
0, 0
0, 0
0, 0
0, 0
0, 0
0, 0
0, 0
0, 0
0, 0
0, 0
0, 0
0, 0
0, 0
0, 0
0, 0
0, 0
0, 0
0, 0
0, 0
0, 0
0, 0
0, 0
0, 0
0, 0
0, 0
0, 0
0, 0
0, 0
0, 0
0, 0
0, 0
0, 0
0, 0
0, 0
0, 0
0, 0
0, 0
0, 0
0, 0
0, 0
0, 0
0, 0
0, 0
0, 0
0, 0
0, 0
0, 0
0, 0
0, 0
0, 0
0, 0
0, 0
0, 0
0, 0
0, 0
0, 0
0, 0
#ENDOFDATA     end of spectrum data

File: ps__0567_0717304816_000rfs_shot_240.msa
#FORMAT      : EMSA/MAS spectral data file
#VERSION     : TC202v2.0 PIXL
#TITLE       : Novarupta (sol567) subset1
#DATE        : 02-11-2024      Date in the format DD-MMM-YYYY, for example 07-JUL-2010
#TIME        :             The time of day at which the spectrum was recorded, in 24-hour format
#OWNER       : PIXL Flight Model       (PIXL will use this to indicate which instrument took the data.)
#NPOINTS     : 4096     Number of data points in the spectrum (This can be zero for configuration only files)
#NCOLUMNS    : 2     Number of data columns in the spectrum (This can be zero for configuration only files)
#XUNITS      : eV
#YUNITS      : COUNTS
#DATATYPE    : YY
#XPERCHAN    : 7.862, 7.881   eV per channel (separate by commas if more than one detector)
#OFFSET      : 18.5, -22.4         eV of first channel  (separate by commas if more than one detector
#SIGNALTYPE  : XRF
#YP_TEMP     : 1.145
#LIVETIME    : 8.8455, 8.80854   seconds (separate by commas if more than one detector)
#REALTIME    : 10, 10.0   seconds (separate by commas if more than one detector)
#SPECTRUM    : start of spectrum data
0, 0
0, 0
0, 0
0, 0
0, 0
0, 0
0, 0
0, 1
2, 1
1, 2
5, 3
12, 9
18, 9
19, 17
37, 48
97, 110
438, 531
123, 134
32, 37
20, 27
54, 55
264, 311
106, 120
61, 75
201, 224
117, 116
54, 75
21, 37
6, 12
8, 6
14, 34
13, 14
14, 19
171, 235
298, 330
53, 52
36, 48
51, 57
7, 16
11, 9
17, 21
44, 68
40, 40
12, 17
13, 12
11, 13
13, 17
10, 15
9, 20
18, 31
17, 14
8, 12
9, 16
31, 44
43, 52
27, 23
23, 29
377, 486
1538, 1929
1029, 988
101, 117
27, 14
18, 16
85, 97
252, 291
165, 149
13, 12
5, 11
16, 18
10, 9
8, 6
4, 7
5, 8
6, 6
8, 5
7, 4
11, 10
6, 6
11, 11
6, 12
9, 5
8, 7
5, 2
3, 8
5, 11
3, 5
5, 4
0, 6
8, 8
2, 8
11, 7
7, 2
8, 5
3, 4
4, 5
3, 4
9, 3
1, 5
6, 5
6, 0
2, 1
2, 2
2, 1
1, 4
1, 5
1, 2
3, 2
3, 1
3, 3
3, 3
2, 1
2, 2
4, 2
1, 6
0, 2
3, 3
2, 4
1, 2
2, 2
0, 2
1, 3
1, 2
3, 1
1, 2
0, 2
0, 4
0, 1
0, 2
0, 3
1, 0
0, 0
2, 0
0, 1
1, 3
2, 1
2, 1
0, 0
1, 0
0, 0
0, 0
1, 0
0, 1
0, 0
0, 1
0, 0
0, 0
0, 2
0, 0
0, 0
0, 0
1, 0
0, 0
1, 0
0, 1
0, 0
0, 0
0, 0
0, 0
0, 0
1, 0
0, 0
0, 0
0, 0
0, 1
0, 0
0, 0
0, 0
1, 1
0, 1
0, 0
0, 2
0, 0
0, 1
0, 0
1, 0
0, 0
0, 0
0, 0
0, 0
0, 1
1, 0
0, 1
1, 0
0, 0
0, 0
0, 0
1, 0
0, 0
0, 0
0, 0
0, 1
0, 0
0, 0
0, 1
0, 0
0, 0
0, 0
0, 0
0, 0
0, 0
0, 0
0, 0
0, 0
0, 0
0, 0
0, 0
0, 0
0, 0
0, 0
0, 0
0, 0
0, 0
0, 0
0, 0
0, 0
0, 0
0, 0
0, 0
0, 0
0, 0
0, 0
0, 0
0, 0
0, 0
0, 0
0, 0
0, 0
0, 0
0, 0
0, 0
0, 0
0, 0
0, 0
0, 0
0, 0
0, 0
0, 0
0, 0
0, 0
0, 0
0, 0
0, 0
0, 0
0, 0
0, 0
0, 0
0, 0
0, 0
0, 0
0, 0
0, 0
0, 0
0, 0
0, 0
0, 0
0, 0
0, 0
0, 0
0, 0
0, 0
0, 0
0, 0
0, 0
0, 0
0, 0
0, 0
0, 0
0, 0
0, 0
0, 0
0, 0
0, 0
0, 0
0, 0
0, 0
0, 0
0, 0
0, 0
0, 0
0, 0
0, 0
0, 0
0, 0
0, 0
0, 0
0, 0
0, 0
0, 0
0, 0
0, 0
0, 0
0, 0
0, 0
0, 0
#ENDOFDATA     end of spectrum data