Folder: data-repository/host_upload/02-11-2024/rqc/uplink1 (part 9)

File: ps__0567_0717304816_000rfs_shot_132.msa
#FORMAT      : EMSA/MAS spectral data file
#VERSION     : TC202v2.0 PIXL
#TITLE       : Novarupta (sol567) subset1
#DATE        : 02-11-2024      Date in the format DD-MMM-YYYY, for example 07-JUL-2010
#TIME        :             The time of day at which the spectrum was recorded, in 24-hour format
#OWNER       : PIXL Flight Model       (PIXL will use this to indicate which instrument took the data.)
#NPOINTS     : 4096     Number of data points in the spectrum (This can be zero for configuration only files)
#NCOLUMNS    : 2     Number of data columns in the spectrum (This can be zero for configuration only files)
#XUNITS      : eV
#YUNITS      : COUNTS
#DATATYPE    : YY
#XPERCHAN    : 7.862, 7.881   eV per channel (separate by commas if more than one detector)
#OFFSET      : 18.5, -22.4         eV of first channel  (separate by commas if more than one detector
#SIGNALTYPE  : XRF
#YP_TEMP     : -0.266
#LIVETIME    : 8.82638, 8.81797   seconds (separate by commas if more than one detector)
#REALTIME    : 10, 10.0   seconds (separate by commas if more than one detector)
#SPECTRUM    : start of spectrum data
0, 0
0, 0
0, 0
0, 0
0, 0
0, 0
0, 0
1, 0
4, 2
3, 3
2, 4
11, 14
16, 18
24, 21
38, 41
112, 131
485, 497
134, 113
23, 37
26, 19
51, 68
331, 307
123, 115
59, 85
223, 246
102, 124
69, 59
32, 36
6, 12
3, 4
30, 25
20, 10
21, 18
224, 256
316, 334
60, 43
42, 39
51, 50
14, 9
15, 8
22, 16
38, 63
21, 33
21, 11
9, 19
15, 20
11, 16
8, 8
16, 8
28, 26
18, 24
8, 12
21, 13
23, 40
38, 56
29, 22
41, 37
411, 515
1600, 1828
1031, 906
113, 82
13, 19
15, 30
82, 95
269, 286
153, 137
23, 15
8, 7
13, 9
14, 10
5, 4
6, 9
5, 6
6, 10
7, 6
7, 11
5, 8
4, 4
14, 9
10, 11
3, 9
6, 10
8, 6
6, 4
3, 10
4, 7
6, 3
3, 8
5, 0
1, 5
5, 7
2, 6
7, 6
4, 10
5, 3
1, 5
5, 2
6, 2
5, 2
4, 2
2, 4
2, 3
5, 1
5, 3
1, 2
5, 1
3, 2
1, 3
1, 2
3, 2
3, 3
2, 2
0, 2
3, 3
1, 1
3, 2
6, 3
1, 3
2, 3
2, 2
4, 1
1, 0
3, 1
0, 0
2, 0
1, 1
1, 2
4, 1
0, 0
1, 0
0, 3
1, 0
1, 1
2, 0
1, 0
2, 0
3, 2
0, 1
1, 1
2, 0
0, 2
2, 1
0, 1
2, 1
1, 1
0, 1
1, 0
1, 0
0, 1
1, 2
0, 0
0, 1
0, 1
1, 1
0, 0
0, 0
4, 0
2, 0
0, 0
2, 1
1, 1
0, 3
0, 0
0, 1
0, 0
1, 1
1, 0
0, 0
0, 0
0, 0
0, 1
1, 0
0, 0
0, 0
0, 0
1, 0
0, 0
0, 0
0, 0
0, 0
0, 0
0, 0
0, 0
0, 0
0, 0
0, 0
1, 0
0, 0
0, 0
0, 0
0, 1
0, 0
0, 0
0, 0
0, 0
0, 0
0, 0
0, 0
1, 0
1, 0
0, 0
0, 0
0, 0
0, 0
0, 0
0, 0
0, 0
0, 1
0, 0
0, 0
0, 0
0, 0
0, 0
0, 0
0, 0
0, 0
0, 1
0, 0
0, 0
0, 0
0, 0
0, 0
0, 0
0, 0
0, 0
0, 0
0, 0
0, 0
0, 0
0, 0
0, 0
0, 0
0, 0
0, 0
0, 0
0, 0
0, 0
0, 0
0, 0
0, 0
0, 0
0, 0
0, 0
0, 0
0, 0
0, 0
0, 0
0, 0
0, 0
0, 0
0, 0
0, 0
0, 0
0, 0
0, 0
0, 0
0, 0
0, 0
0, 0
0, 0
0, 0
0, 0
0, 0
0, 0
0, 0
0, 0
0, 0
0, 0
0, 0
0, 0
0, 0
0, 0
0, 0
0, 0
0, 0
0, 0
0, 0
0, 0
0, 0
0, 0
0, 0
0, 0
0, 0
0, 0
0, 0
0, 0
0, 0
0, 0
0, 0
0, 0
0, 0
0, 0
0, 0
0, 0
#ENDOFDATA     end of spectrum data

File: ps__0567_0717304816_000rfs_shot_137.msa
#FORMAT      : EMSA/MAS spectral data file
#VERSION     : TC202v2.0 PIXL
#TITLE       : Novarupta (sol567) subset1
#DATE        : 02-11-2024      Date in the format DD-MMM-YYYY, for example 07-JUL-2010
#TIME        :             The time of day at which the spectrum was recorded, in 24-hour format
#OWNER       : PIXL Flight Model       (PIXL will use this to indicate which instrument took the data.)
#NPOINTS     : 4096     Number of data points in the spectrum (This can be zero for configuration only files)
#NCOLUMNS    : 2     Number of data columns in the spectrum (This can be zero for configuration only files)
#XUNITS      : eV
#YUNITS      : COUNTS
#DATATYPE    : YY
#XPERCHAN    : 7.862, 7.881   eV per channel (separate by commas if more than one detector)
#OFFSET      : 18.5, -22.4         eV of first channel  (separate by commas if more than one detector
#SIGNALTYPE  : XRF
#YP_TEMP     : -0.266
#LIVETIME    : 8.83878, 8.82197   seconds (separate by commas if more than one detector)
#REALTIME    : 10, 10.0   seconds (separate by commas if more than one detector)
#SPECTRUM    : start of spectrum data
0, 0
0, 0
0, 0
0, 0
0, 0
0, 0
0, 0
2, 0
2, 2
4, 5
1, 6
12, 11
14, 16
19, 22
47, 46
95, 127
481, 534
111, 118
29, 37
20, 32
61, 55
279, 324
94, 124
78, 76
224, 234
105, 110
60, 83
32, 24
11, 10
9, 9
19, 34
14, 11
15, 31
205, 245
297, 328
53, 57
38, 44
46, 46
9, 10
12, 12
20, 32
80, 78
39, 33
18, 16
17, 18
19, 23
15, 11
16, 8
20, 16
28, 28
20, 31
12, 8
14, 16
28, 35
47, 55
22, 17
30, 40
383, 566
1612, 1856
1017, 919
105, 88
13, 14
16, 23
82, 98
249, 274
125, 145
22, 17
10, 9
9, 18
8, 8
5, 7
9, 7
4, 10
8, 10
10, 7
6, 7
7, 7
14, 6
13, 8
14, 12
8, 9
9, 2
4, 8
5, 8
6, 5
9, 5
4, 6
7, 3
8, 4
4, 3
3, 4
4, 5
3, 5
3, 4
3, 5
3, 5
4, 1
1, 5
7, 2
1, 5
2, 6
1, 1
4, 1
2, 2
1, 2
4, 2
4, 4
4, 3
2, 3
4, 4
2, 3
2, 7
5, 2
3, 5
2, 3
1, 6
2, 5
3, 2
1, 3
2, 3
1, 1
1, 2
2, 3
3, 3
1, 3
2, 0
0, 1
0, 2
2, 0
0, 1
1, 1
2, 2
1, 1
1, 1
0, 1
0, 1
1, 1
0, 1
1, 0
0, 0
0, 1
1, 2
1, 1
0, 1
0, 1
1, 1
0, 1
0, 0
0, 0
0, 3
1, 1
0, 0
0, 0
0, 0
0, 0
0, 0
0, 0
1, 1
1, 0
0, 0
0, 0
1, 1
0, 0
0, 0
0, 0
0, 0
0, 1
0, 0
0, 0
0, 0
0, 0
0, 0
0, 0
0, 0
1, 0
0, 0
0, 0
0, 0
0, 0
0, 0
0, 0
0, 0
0, 0
0, 1
0, 0
0, 0
0, 0
0, 0
0, 0
0, 0
0, 0
0, 0
1, 0
1, 0
0, 0
0, 0
0, 0
0, 0
0, 0
0, 0
0, 0
0, 0
0, 0
0, 0
0, 0
0, 0
0, 0
0, 0
1, 0
0, 0
0, 0
0, 0
0, 0
0, 0
1, 0
0, 0
0, 0
0, 0
0, 0
0, 0
0, 0
0, 0
0, 0
0, 0
0, 0
0, 0
0, 0
0, 0
0, 0
0, 0
0, 0
0, 0
0, 0
0, 0
0, 0
0, 0
0, 0
0, 0
0, 0
0, 0
0, 0
0, 0
0, 0
0, 0
0, 0
0, 0
0, 0
0, 0
0, 0
0, 0
0, 0
0, 0
0, 0
0, 0
0, 0
0, 0
0, 0
0, 0
0, 0
0, 0
0, 0
0, 0
0, 0
0, 0
0, 0
0, 0
0, 0
0, 0
0, 0
0, 0
0, 0
0, 0
0, 0
0, 0
0, 0
0, 0
0, 0
0, 0
0, 0
0, 0
0, 0
0, 0
0, 0
0, 0
0, 0
0, 0
0, 0
0, 0
0, 0
0, 0
0, 0
0, 0
0, 0
0, 0
#ENDOFDATA     end of spectrum data

File: ps__0567_0717304816_000rfs_shot_138.msa
#FORMAT      : EMSA/MAS spectral data file
#VERSION     : TC202v2.0 PIXL
#TITLE       : Novarupta (sol567) subset1
#DATE        : 02-11-2024      Date in the format DD-MMM-YYYY, for example 07-JUL-2010
#TIME        :             The time of day at which the spectrum was recorded, in 24-hour format
#OWNER       : PIXL Flight Model       (PIXL will use this to indicate which instrument took the data.)
#NPOINTS     : 4096     Number of data points in the spectrum (This can be zero for configuration only files)
#NCOLUMNS    : 2     Number of data columns in the spectrum (This can be zero for configuration only files)
#XUNITS      : eV
#YUNITS      : COUNTS
#DATATYPE    : YY
#XPERCHAN    : 7.862, 7.881   eV per channel (separate by commas if more than one detector)
#OFFSET      : 18.5, -22.4         eV of first channel  (separate by commas if more than one detector
#SIGNALTYPE  : XRF
#YP_TEMP     : -0.17
#LIVETIME    : 8.83576, 8.63312   seconds (separate by commas if more than one detector)
#REALTIME    : 10, 10.0   seconds (separate by commas if more than one detector)
#SPECTRUM    : start of spectrum data
0, 0
0, 0
0, 0
0, 0
0, 0
0, 0
0, 0
0, 1
3, 3
3, 2
1, 6
10, 16
12, 15
30, 30
35, 48
123, 112
467, 514
111, 135
35, 34
28, 11
56, 74
282, 336
131, 121
86, 87
227, 248
133, 117
89, 62
29, 29
11, 13
10, 16
22, 30
17, 18
27, 29
211, 245
295, 333
53, 50
34, 39
53, 48
12, 5
7, 7
23, 27
54, 63
31, 35
8, 16
17, 11
22, 27
10, 15
6, 12
13, 19
32, 26
29, 22
9, 18
13, 15
39, 52
45, 41
27, 31
38, 40
367, 521
1606, 1864
996, 1014
98, 98
18, 15
26, 21
82, 125
254, 311
145, 146
21, 12
9, 11
9, 13
10, 6
7, 7
6, 9
4, 4
6, 5
3, 7
6, 12
2, 8
4, 8
9, 9
7, 13
9, 14
2, 5
9, 6
6, 8
7, 6
7, 7
4, 4
5, 5
6, 7
5, 3
3, 6
3, 5
5, 3
8, 2
3, 3
1, 5
7, 1
4, 2
8, 8
3, 1
1, 6
3, 4
3, 5
2, 1
2, 3
4, 4
2, 3
4, 2
2, 3
5, 2
0, 2
2, 1
1, 0
5, 2
1, 2
1, 2
3, 2
2, 2
3, 3
1, 1
2, 1
0, 1
1, 1
4, 2
1, 0
0, 1
0, 0
2, 2
0, 6
0, 1
1, 2
0, 1
2, 1
1, 1
2, 2
1, 0
0, 0
2, 1
2, 1
0, 0
0, 1
0, 0
1, 1
1, 1
0, 0
0, 1
1, 2
0, 0
0, 0
0, 0
0, 0
1, 0
0, 1
0, 1
0, 1
0, 0
0, 0
0, 1
1, 0
0, 0
0, 0
0, 0
0, 1
0, 0
0, 0
0, 2
1, 0
0, 0
0, 0
1, 0
0, 0
0, 0
2, 1
1, 3
0, 0
0, 0
1, 0
0, 0
0, 1
0, 0
0, 0
0, 1
0, 0
0, 0
0, 0
0, 0
0, 0
0, 0
0, 0
0, 1
0, 0
0, 0
0, 0
0, 0
0, 0
0, 0
0, 0
0, 0
0, 0
0, 0
0, 0
0, 0
0, 0
0, 1
0, 0
0, 0
0, 0
0, 0
0, 0
0, 0
0, 0
0, 0
0, 0
0, 0
0, 0
0, 0
0, 0
0, 0
0, 0
0, 0
0, 0
0, 0
0, 0
0, 0
0, 0
0, 0
0, 0
0, 0
0, 0
0, 0
0, 0
0, 0
0, 0
0, 0
0, 0
0, 0
0, 0
0, 0
0, 0
0, 0
0, 0
0, 0
0, 0
0, 0
0, 0
0, 0
0, 0
0, 0
0, 0
0, 0
0, 0
0, 0
0, 0
0, 0
0, 0
0, 0
0, 0
0, 0
0, 0
0, 0
0, 0
0, 0
0, 0
0, 0
0, 0
0, 0
0, 0
0, 0
0, 0
0, 0
0, 0
0, 0
0, 0
0, 0
0, 0
0, 0
0, 0
0, 0
0, 0
0, 0
0, 0
0, 0
0, 0
0, 0
0, 0
0, 0
0, 0
0, 0
0, 0
0, 0
0, 0
0, 0
0, 0
0, 0
#ENDOFDATA     end of spectrum data

File: ps__0567_0717304816_000rfs_shot_139.msa
#FORMAT      : EMSA/MAS spectral data file
#VERSION     : TC202v2.0 PIXL
#TITLE       : Novarupta (sol567) subset1
#DATE        : 02-11-2024      Date in the format DD-MMM-YYYY, for example 07-JUL-2010
#TIME        :             The time of day at which the spectrum was recorded, in 24-hour format
#OWNER       : PIXL Flight Model       (PIXL will use this to indicate which instrument took the data.)
#NPOINTS     : 4096     Number of data points in the spectrum (This can be zero for configuration only files)
#NCOLUMNS    : 2     Number of data columns in the spectrum (This can be zero for configuration only files)
#XUNITS      : eV
#YUNITS      : COUNTS
#DATATYPE    : YY
#XPERCHAN    : 7.862, 7.881   eV per channel (separate by commas if more than one detector)
#OFFSET      : 18.5, -22.4         eV of first channel  (separate by commas if more than one detector
#SIGNALTYPE  : XRF
#YP_TEMP     : -0.042
#LIVETIME    : 8.83506, 8.81714   seconds (separate by commas if more than one detector)
#REALTIME    : 10, 10.0   seconds (separate by commas if more than one detector)
#SPECTRUM    : start of spectrum data
0, 0
0, 0
0, 0
0, 0
0, 0
0, 0
0, 0
0, 0
3, 2
3, 4
4, 3
11, 9
12, 14
26, 28
53, 46
113, 128
493, 557
120, 113
29, 33
22, 19
43, 67
275, 327
120, 124
71, 83
238, 249
104, 116
62, 90
22, 27
7, 6
6, 9
24, 26
14, 12
17, 21
225, 240
333, 342
56, 49
38, 48
54, 47
12, 18
6, 10
18, 31
73, 73
44, 42
13, 10
10, 15
17, 21
11, 10
11, 8
17, 24
27, 24
26, 29
12, 15
14, 8
38, 38
46, 50
18, 23
26, 30
384, 519
1539, 1802
973, 966
101, 85
16, 23
22, 19
81, 104
233, 232
155, 149
26, 19
10, 13
11, 12
12, 6
6, 10
2, 4
1, 7
6, 9
8, 14
11, 10
9, 13
8, 5
8, 10
9, 6
5, 7
4, 5
5, 7
4, 6
3, 4
2, 4
4, 7
2, 4
7, 4
4, 5
3, 3
2, 8
3, 4
5, 2
1, 3
5, 4
3, 1
1, 2
4, 2
4, 3
5, 2
2, 2
1, 0
2, 0
2, 2
4, 3
2, 1
3, 5
2, 1
2, 4
4, 2
1, 1
4, 6
4, 4
0, 0
3, 1
4, 6
0, 6
1, 1
4, 3
5, 1
2, 1
0, 1
1, 1
1, 2
0, 0
0, 2
1, 1
0, 1
1, 2
1, 0
2, 3
0, 3
0, 1
0, 1
0, 2
2, 1
0, 1
0, 3
0, 0
1, 1
0, 1
0, 1
0, 1
0, 0
1, 0
0, 2
1, 1
0, 0
0, 2
2, 0
0, 0
0, 1
1, 1
1, 1
1, 0
0, 1
0, 0
0, 1
1, 0
0, 0
1, 1
0, 1
1, 1
0, 0
0, 0
0, 1
0, 0
0, 0
0, 0
0, 0
1, 1
0, 1
0, 0
0, 1
0, 0
0, 0
0, 0
0, 0
0, 0
0, 0
0, 0
0, 0
0, 0
0, 0
0, 0
0, 0
0, 0
0, 0
0, 0
0, 0
0, 0
0, 0
0, 0
0, 0
0, 0
0, 0
0, 0
0, 0
0, 0
0, 0
0, 0
0, 0
0, 0
0, 0
0, 0
0, 0
0, 0
0, 0
0, 0
0, 0
0, 0
0, 1
0, 0
0, 0
0, 0
0, 0
0, 0
0, 0
0, 0
0, 0
0, 0
0, 0
0, 0
0, 0
0, 0
0, 0
0, 0
0, 0
0, 0
0, 0
0, 0
0, 0
0, 0
0, 0
0, 0
0, 0
0, 0
0, 0
0, 0
0, 0
0, 0
0, 0
0, 0
0, 0
0, 0
0, 0
0, 0
0, 0
0, 0
0, 0
0, 0
0, 0
0, 0
0, 0
0, 0
0, 0
0, 0
0, 0
0, 0
0, 0
0, 0
0, 0
0, 0
0, 0
0, 0
0, 0
0, 0
0, 0
0, 0
0, 0
0, 0
0, 0
0, 0
0, 0
0, 0
0, 0
0, 0
0, 0
0, 0
0, 0
0, 0
0, 0
0, 0
0, 0
0, 0
0, 0
0, 0
0, 0
0, 0
0, 0
0, 0
0, 0
0, 0
#ENDOFDATA     end of spectrum data

File: ps__0567_0717304816_000rfs_shot_141.msa
#FORMAT      : EMSA/MAS spectral data file
#VERSION     : TC202v2.0 PIXL
#TITLE       : Novarupta (sol567) subset1
#DATE        : 02-11-2024      Date in the format DD-MMM-YYYY, for example 07-JUL-2010
#TIME        :             The time of day at which the spectrum was recorded, in 24-hour format
#OWNER       : PIXL Flight Model       (PIXL will use this to indicate which instrument took the data.)
#NPOINTS     : 4096     Number of data points in the spectrum (This can be zero for configuration only files)
#NCOLUMNS    : 2     Number of data columns in the spectrum (This can be zero for configuration only files)
#XUNITS      : eV
#YUNITS      : COUNTS
#DATATYPE    : YY
#XPERCHAN    : 7.862, 7.881   eV per channel (separate by commas if more than one detector)
#OFFSET      : 18.5, -22.4         eV of first channel  (separate by commas if more than one detector
#SIGNALTYPE  : XRF
#YP_TEMP     : -0.202
#LIVETIME    : 8.83138, 8.82102   seconds (separate by commas if more than one detector)
#REALTIME    : 10, 10.0   seconds (separate by commas if more than one detector)
#SPECTRUM    : start of spectrum data
0, 0
0, 0
0, 0
0, 0
0, 0
0, 0
0, 0
0, 0
3, 5
5, 3
7, 4
4, 12
16, 20
29, 29
51, 45
115, 151
482, 517
109, 126
34, 27
29, 26
51, 61
292, 316
124, 126
76, 74
225, 237
92, 143
75, 67
40, 42
8, 10
8, 8
29, 17
17, 15
16, 26
205, 270
291, 340
47, 57
32, 44
60, 43
13, 15
5, 4
19, 20
60, 49
32, 38
16, 17
14, 19
19, 21
15, 19
9, 12
16, 24
27, 30
20, 21
12, 7
15, 16
36, 30
53, 46
27, 18
26, 39
436, 511
1593, 1680
979, 921
129, 69
21, 13
32, 34
91, 115
248, 277
150, 136
19, 20
5, 11
16, 13
5, 12
7, 4
5, 3
7, 9
11, 9
6, 11
5, 6
10, 7
6, 5
12, 13
13, 7
7, 6
7, 8
4, 3
7, 10
5, 4
9, 1
8, 9
8, 4
4, 11
4, 7
5, 2
10, 6
4, 10
3, 3
2, 4
5, 4
3, 4
2, 5
3, 5
4, 4
1, 5
2, 6
2, 3
4, 2
3, 1
2, 3
3, 4
4, 2
3, 4
2, 4
5, 2
5, 2
0, 2
4, 2
1, 2
0, 1
3, 3
2, 4
1, 0
2, 2
1, 2
1, 2
2, 2
2, 1
0, 4
0, 0
2, 1
2, 1
1, 3
3, 1
0, 2
0, 0
1, 1
0, 1
2, 1
0, 1
1, 0
0, 3
0, 0
3, 0
1, 0
1, 1
0, 0
0, 0
2, 0
1, 0
0, 1
0, 0
1, 0
1, 0
0, 0
0, 0
1, 2
0, 0
1, 0
0, 0
0, 0
2, 0
1, 0
0, 0
1, 0
0, 0
2, 0
0, 0
1, 0
0, 0
0, 1
0, 0
0, 0
0, 0
0, 0
0, 0
0, 0
0, 0
0, 0
0, 1
0, 0
0, 0
0, 0
0, 0
0, 0
0, 1
0, 0
0, 1
0, 3
0, 0
0, 0
0, 0
0, 0
0, 0
0, 0
0, 0
1, 0
0, 0
0, 0
0, 0
0, 0
0, 0
0, 0
0, 0
0, 0
0, 0
0, 0
0, 0
0, 0
0, 0
0, 0
0, 0
0, 0
0, 0
0, 0
0, 0
0, 0
0, 0
0, 0
0, 0
0, 0
0, 0
0, 0
0, 0
0, 0
0, 0
0, 0
0, 0
0, 0
0, 0
0, 0
0, 0
0, 0
0, 0
0, 0
0, 0
0, 0
0, 0
0, 0
0, 0
0, 0
0, 0
0, 0
0, 0
0, 0
0, 0
0, 0
0, 0
0, 0
0, 0
0, 0
0, 0
0, 0
0, 0
0, 0
0, 0
0, 0
0, 0
0, 0
0, 0
0, 0
0, 0
0, 0
0, 0
0, 0
0, 0
0, 0
0, 0
0, 0
0, 0
0, 0
0, 0
0, 0
0, 0
0, 0
0, 0
0, 0
0, 0
0, 0
0, 0
0, 0
0, 0
0, 0
0, 0
0, 0
0, 0
0, 0
0, 0
0, 0
0, 0
0, 0
0, 0
0, 0
0, 0
0, 0
0, 0
0, 0
0, 0
#ENDOFDATA     end of spectrum data

File: ps__0567_0717304816_000rfs_shot_142.msa
#FORMAT      : EMSA/MAS spectral data file
#VERSION     : TC202v2.0 PIXL
#TITLE       : Novarupta (sol567) subset1
#DATE        : 02-11-2024      Date in the format DD-MMM-YYYY, for example 07-JUL-2010
#TIME        :             The time of day at which the spectrum was recorded, in 24-hour format
#OWNER       : PIXL Flight Model       (PIXL will use this to indicate which instrument took the data.)
#NPOINTS     : 4096     Number of data points in the spectrum (This can be zero for configuration only files)
#NCOLUMNS    : 2     Number of data columns in the spectrum (This can be zero for configuration only files)
#XUNITS      : eV
#YUNITS      : COUNTS
#DATATYPE    : YY
#XPERCHAN    : 7.862, 7.881   eV per channel (separate by commas if more than one detector)
#OFFSET      : 18.5, -22.4         eV of first channel  (separate by commas if more than one detector
#SIGNALTYPE  : XRF
#YP_TEMP     : -0.202
#LIVETIME    : 8.83669, 8.81103   seconds (separate by commas if more than one detector)
#REALTIME    : 10, 10.0   seconds (separate by commas if more than one detector)
#SPECTRUM    : start of spectrum data
0, 0
0, 0
0, 0
0, 0
0, 0
0, 0
0, 0
0, 0
5, 1
3, 2
2, 4
15, 8
9, 11
26, 15
32, 52
120, 128
489, 492
118, 134
34, 37
21, 23
57, 78
292, 306
112, 103
81, 87
216, 264
118, 122
65, 77
31, 29
9, 11
9, 11
19, 32
17, 25
19, 22
207, 279
286, 328
38, 49
43, 36
51, 52
9, 8
6, 8
16, 30
50, 54
31, 31
15, 30
10, 17
17, 18
14, 17
18, 13
13, 20
30, 34
17, 15
13, 8
15, 20
32, 37
51, 50
19, 25
29, 49
392, 537
1618, 1894
1002, 1016
116, 83
18, 12
15, 25
78, 97
257, 282
155, 135
18, 21
11, 6
13, 12
1, 10
5, 5
7, 5
3, 5
5, 8
7, 9
8, 6
10, 5
7, 8
11, 10
10, 8
4, 4
2, 8
4, 9
10, 3
6, 6
9, 4
5, 7
4, 6
3, 4
4, 12
7, 3
5, 3
5, 7
5, 7
4, 2
4, 6
5, 5
2, 1
5, 3
4, 9
6, 1
5, 2
3, 4
4, 2
4, 2
2, 3
3, 2
1, 4
2, 2
4, 4
3, 1
2, 1
4, 1
4, 2
2, 1
2, 5
1, 5
2, 1
4, 1
0, 0
1, 0
4, 3
3, 3
1, 3
2, 1
1, 2
1, 3
1, 2
1, 0
0, 1
0, 1
2, 1
0, 2
1, 0
0, 1
0, 2
0, 0
0, 1
1, 3
0, 0
1, 0
2, 1
2, 0
0, 1
0, 1
0, 0
0, 0
1, 0
0, 1
0, 0
0, 0
0, 2
0, 0
1, 0
2, 1
0, 0
0, 0
0, 0
0, 0
0, 1
0, 1
0, 0
1, 0
0, 0
0, 0
0, 1
0, 0
1, 0
0, 1
0, 0
0, 0
0, 0
0, 0
0, 0
0, 0
0, 0
0, 0
0, 0
0, 0
0, 0
0, 0
0, 0
0, 1
0, 0
0, 0
0, 0
1, 0
0, 0
0, 0
0, 0
0, 0
0, 0
0, 0
0, 0
0, 0
0, 0
0, 0
0, 0
0, 0
0, 0
0, 0
0, 0
0, 0
0, 0
0, 0
0, 0
0, 0
0, 0
1, 0
0, 0
0, 0
0, 0
0, 0
0, 0
0, 0
0, 0
0, 0
0, 0
0, 0
0, 0
0, 0
0, 0
0, 0
0, 0
0, 0
0, 0
0, 0
0, 0
0, 0
0, 0
0, 0
0, 0
0, 0
0, 0
0, 0
0, 0
0, 0
0, 0
0, 0
0, 0
0, 0
0, 0
0, 0
0, 0
0, 0
0, 0
0, 0
0, 0
0, 0
0, 0
0, 0
0, 0
0, 0
0, 0
0, 0
0, 0
0, 0
0, 0
0, 0
0, 0
0, 0
0, 0
0, 0
0, 0
0, 0
0, 0
0, 0
0, 0
0, 0
0, 0
0, 0
0, 0
0, 0
0, 0
0, 0
0, 0
0, 0
0, 0
0, 0
0, 0
0, 0
0, 0
0, 0
0, 0
0, 0
0, 0
0, 0
0, 0
0, 0
0, 0
0, 0
0, 0
0, 0
0, 0
#ENDOFDATA     end of spectrum data

File: ps__0567_0717304816_000rfs_shot_144.msa
#FORMAT      : EMSA/MAS spectral data file
#VERSION     : TC202v2.0 PIXL
#TITLE       : Novarupta (sol567) subset1
#DATE        : 02-11-2024      Date in the format DD-MMM-YYYY, for example 07-JUL-2010
#TIME        :             The time of day at which the spectrum was recorded, in 24-hour format
#OWNER       : PIXL Flight Model       (PIXL will use this to indicate which instrument took the data.)
#NPOINTS     : 4096     Number of data points in the spectrum (This can be zero for configuration only files)
#NCOLUMNS    : 2     Number of data columns in the spectrum (This can be zero for configuration only files)
#XUNITS      : eV
#YUNITS      : COUNTS
#DATATYPE    : YY
#XPERCHAN    : 7.862, 7.881   eV per channel (separate by commas if more than one detector)
#OFFSET      : 18.5, -22.4         eV of first channel  (separate by commas if more than one detector
#SIGNALTYPE  : XRF
#YP_TEMP     : 0.022
#LIVETIME    : 8.82856, 8.82613   seconds (separate by commas if more than one detector)
#REALTIME    : 10, 10.0   seconds (separate by commas if more than one detector)
#SPECTRUM    : start of spectrum data
0, 0
0, 0
0, 0
0, 0
0, 0
0, 0
0, 0
0, 0
3, 4
5, 3
3, 6
12, 8
12, 17
16, 29
44, 36
93, 125
470, 537
129, 130
41, 28
29, 25
54, 67
295, 324
111, 138
58, 82
244, 270
104, 116
65, 71
38, 23
11, 5
13, 10
29, 31
17, 20
12, 25
217, 279
297, 320
62, 54
43, 46
52, 58
12, 13
13, 12
16, 22
60, 66
33, 20
10, 13
8, 9
18, 19
11, 16
4, 8
12, 21
38, 31
26, 28
11, 13
6, 12
27, 38
44, 50
23, 19
36, 34
388, 471
1563, 1810
1006, 1042
95, 83
16, 21
30, 22
86, 120
240, 291
156, 138
21, 21
7, 2
10, 14
7, 8
4, 5
8, 4
4, 6
8, 5
5, 7
7, 12
5, 4
3, 7
12, 14
6, 13
7, 6
5, 7
4, 4
5, 10
5, 3
2, 6
10, 5
4, 4
8, 4
2, 3
6, 6
3, 5
1, 5
7, 9
3, 3
5, 4
4, 0
1, 1
3, 4
3, 6
8, 3
5, 1
2, 4
5, 4
1, 1
0, 1
2, 2
3, 2
1, 4
3, 5
2, 1
6, 1
1, 3
2, 3
1, 1
2, 2
4, 4
5, 0
2, 1
1, 1
0, 1
0, 1
2, 2
2, 1
1, 1
0, 2
2, 0
1, 2
2, 1
1, 0
2, 0
0, 1
2, 1
0, 1
0, 0
0, 0
0, 1
1, 2
1, 0
2, 1
1, 0
2, 1
1, 1
0, 1
1, 0
0, 1
0, 0
0, 1
0, 0
1, 0
1, 0
1, 0
1, 0
1, 0
0, 0
0, 1
0, 0
0, 0
0, 0
1, 0
0, 2
0, 1
0, 0
0, 0
1, 0
0, 1
0, 0
0, 0
0, 0
1, 0
0, 0
0, 0
0, 1
0, 0
0, 0
0, 0
0, 0
1, 0
0, 0
0, 0
0, 0
2, 0
0, 0
0, 0
0, 1
1, 0
0, 0
0, 0
0, 0
0, 0
0, 0
0, 0
0, 0
0, 0
0, 0
0, 0
0, 0
0, 0
0, 0
0, 0
0, 0
0, 0
0, 0
0, 0
0, 0
0, 0
0, 0
0, 0
0, 0
0, 0
0, 0
0, 0
0, 0
0, 0
0, 0
0, 0
0, 0
0, 0
0, 0
1, 0
0, 0
0, 0
0, 0
0, 0
0, 0
0, 0
0, 0
0, 0
0, 0
0, 0
0, 0
0, 0
0, 0
0, 0
0, 0
0, 0
0, 0
0, 0
0, 0
0, 0
0, 0
0, 0
0, 0
0, 0
0, 0
0, 0
0, 0
0, 0
0, 0
0, 0
0, 0
0, 0
0, 0
0, 0
0, 0
0, 0
0, 0
0, 0
0, 0
0, 0
0, 0
0, 0
0, 0
0, 0
0, 0
0, 0
0, 0
0, 0
0, 0
0, 0
0, 0
0, 0
0, 0
0, 0
0, 0
0, 0
0, 0
0, 0
0, 0
0, 0
0, 0
0, 0
0, 0
0, 0
0, 0
0, 0
0, 0
0, 0
0, 0
0, 0
0, 0
0, 0
0, 0
0, 0
#ENDOFDATA     end of spectrum data

File: ps__0567_0717304816_000rfs_shot_145.msa
#FORMAT      : EMSA/MAS spectral data file
#VERSION     : TC202v2.0 PIXL
#TITLE       : Novarupta (sol567) subset1
#DATE        : 02-11-2024      Date in the format DD-MMM-YYYY, for example 07-JUL-2010
#TIME        :             The time of day at which the spectrum was recorded, in 24-hour format
#OWNER       : PIXL Flight Model       (PIXL will use this to indicate which instrument took the data.)
#NPOINTS     : 4096     Number of data points in the spectrum (This can be zero for configuration only files)
#NCOLUMNS    : 2     Number of data columns in the spectrum (This can be zero for configuration only files)
#XUNITS      : eV
#YUNITS      : COUNTS
#DATATYPE    : YY
#XPERCHAN    : 7.862, 7.881   eV per channel (separate by commas if more than one detector)
#OFFSET      : 18.5, -22.4         eV of first channel  (separate by commas if more than one detector
#SIGNALTYPE  : XRF
#YP_TEMP     : -0.33
#LIVETIME    : 8.8351, 8.82029   seconds (separate by commas if more than one detector)
#REALTIME    : 10, 10.0   seconds (separate by commas if more than one detector)
#SPECTRUM    : start of spectrum data
0, 0
0, 0
0, 0
0, 0
0, 0
0, 0
0, 0
0, 0
1, 3
5, 4
4, 6
13, 13
5, 10
29, 30
45, 40
99, 142
478, 535
143, 106
33, 37
19, 25
45, 55
304, 331
117, 109
91, 97
232, 225
107, 125
81, 69
21, 31
5, 8
9, 12
26, 31
24, 17
22, 21
192, 234
322, 365
59, 48
38, 41
46, 48
14, 17
7, 18
26, 23
62, 69
31, 38
12, 14
16, 17
25, 20
13, 9
13, 9
12, 9
29, 31
26, 25
12, 17
7, 20
31, 35
48, 42
31, 23
28, 30
425, 533
1627, 1820
1027, 986
116, 84
14, 18
24, 21
73, 112
272, 258
149, 145
19, 23
9, 4
20, 9
14, 9
2, 4
7, 3
4, 6
6, 9
2, 7
6, 5
6, 7
11, 9
5, 5
13, 12
7, 6
3, 4
4, 6
3, 4
6, 7
6, 9
1, 7
7, 9
8, 5
5, 2
6, 3
3, 6
5, 6
3, 4
3, 3
8, 4
0, 3
9, 6
2, 3
6, 2
4, 2
2, 4
2, 1
4, 2
3, 1
1, 3
2, 2
1, 2
3, 1
1, 1
1, 5
1, 3
3, 3
1, 1
2, 1
2, 3
5, 1
2, 2
4, 0
2, 3
1, 1
1, 1
2, 1
1, 1
0, 1
1, 1
0, 2
1, 1
0, 5
2, 1
2, 0
1, 0
1, 2
0, 1
2, 1
0, 0
0, 4
0, 1
0, 1
0, 0
0, 0
0, 0
1, 0
0, 0
2, 1
0, 1
0, 0
0, 1
1, 0
0, 1
0, 0
0, 0
0, 0
1, 0
0, 1
1, 0
1, 0
0, 1
0, 2
0, 0
0, 0
0, 0
0, 0
0, 0
0, 0
1, 0
0, 0
0, 0
1, 0
0, 2
0, 0
0, 0
0, 1
0, 1
0, 0
0, 0
0, 1
0, 0
0, 0
0, 0
0, 0
0, 0
1, 1
1, 1
1, 0
0, 0
0, 0
0, 0
0, 0
0, 0
0, 0
0, 0
0, 0
0, 0
1, 0
0, 0
0, 0
0, 1
0, 0
0, 0
0, 0
0, 0
0, 0
0, 0
0, 0
0, 0
0, 0
0, 0
0, 0
0, 0
0, 0
0, 0
0, 0
0, 0
0, 0
0, 0
0, 0
0, 0
0, 0
0, 0
0, 0
0, 0
0, 0
0, 0
0, 0
0, 0
0, 0
0, 0
0, 0
0, 0
0, 0
0, 0
0, 0
0, 0
0, 0
0, 0
0, 0
0, 0
0, 0
0, 0
0, 0
0, 0
0, 0
0, 0
0, 0
0, 0
0, 0
0, 0
0, 0
0, 0
0, 0
0, 0
0, 0
0, 0
0, 0
0, 0
0, 0
0, 0
0, 0
0, 0
0, 0
0, 0
0, 0
0, 0
0, 0
0, 0
0, 0
0, 0
0, 0
0, 0
0, 0
0, 0
0, 0
0, 0
0, 0
0, 0
0, 0
0, 0
0, 0
0, 0
0, 0
0, 0
0, 0
0, 0
0, 0
0, 0
0, 0
0, 0
0, 0
0, 0
0, 0
0, 0
0, 0
0, 0
#ENDOFDATA     end of spectrum data

File: ps__0567_0717304816_000rfs_shot_147.msa
#FORMAT      : EMSA/MAS spectral data file
#VERSION     : TC202v2.0 PIXL
#TITLE       : Novarupta (sol567) subset1
#DATE        : 02-11-2024      Date in the format DD-MMM-YYYY, for example 07-JUL-2010
#TIME        :             The time of day at which the spectrum was recorded, in 24-hour format
#OWNER       : PIXL Flight Model       (PIXL will use this to indicate which instrument took the data.)
#NPOINTS     : 4096     Number of data points in the spectrum (This can be zero for configuration only files)
#NCOLUMNS    : 2     Number of data columns in the spectrum (This can be zero for configuration only files)
#XUNITS      : eV
#YUNITS      : COUNTS
#DATATYPE    : YY
#XPERCHAN    : 7.862, 7.881   eV per channel (separate by commas if more than one detector)
#OFFSET      : 18.5, -22.4         eV of first channel  (separate by commas if more than one detector
#SIGNALTYPE  : XRF
#YP_TEMP     : 0.343
#LIVETIME    : 8.83455, 8.81659   seconds (separate by commas if more than one detector)
#REALTIME    : 10, 10.0   seconds (separate by commas if more than one detector)
#SPECTRUM    : start of spectrum data
0, 0
0, 0
0, 0
0, 0
0, 0
0, 0
0, 0
0, 0
1, 3
5, 2
1, 4
10, 16
9, 16
17, 35
51, 42
102, 121
468, 570
119, 95
31, 32
20, 22
58, 59
299, 339
118, 124
68, 82
232, 262
106, 116
74, 82
36, 35
8, 13
10, 6
26, 28
13, 17
17, 23
203, 274
309, 327
52, 56
34, 51
44, 50
12, 15
7, 9
23, 23
55, 83
27, 26
18, 14
16, 16
11, 24
16, 16
14, 9
11, 14
24, 36
24, 31
10, 14
13, 20
45, 32
40, 47
22, 22
29, 32
375, 509
1577, 1888
972, 984
108, 99
10, 15
20, 26
79, 107
250, 296
126, 144
22, 17
11, 8
15, 12
11, 10
5, 3
7, 6
6, 7
4, 6
8, 4
4, 3
7, 4
4, 7
10, 14
12, 14
7, 7
12, 3
8, 2
9, 4
5, 3
5, 2
4, 9
6, 7
2, 9
3, 8
6, 3
9, 6
3, 6
4, 5
5, 1
3, 7
3, 4
2, 4
1, 2
1, 3
4, 4
2, 7
4, 3
4, 2
6, 4
0, 2
2, 1
0, 2
1, 0
0, 1
2, 3
0, 1
2, 4
1, 2
2, 6
6, 1
4, 2
0, 1
2, 5
2, 0
0, 2
2, 1
4, 2
0, 1
2, 2
0, 2
1, 2
1, 0
1, 1
3, 1
1, 3
0, 0
2, 3
0, 0
1, 0
0, 0
0, 0
1, 1
1, 0
0, 1
0, 1
0, 1
1, 0
1, 0
1, 1
0, 1
0, 0
0, 1
1, 1
0, 0
0, 0
1, 0
0, 0
0, 0
0, 0
1, 0
0, 0
2, 0
1, 0
0, 0
0, 0
0, 0
0, 0
0, 2
0, 0
0, 1
0, 0
0, 0
0, 0
1, 0
0, 0
1, 0
0, 0
0, 0
0, 0
0, 0
0, 1
0, 0
0, 0
0, 0
0, 0
0, 0
0, 0
0, 0
0, 0
0, 0
0, 0
0, 1
0, 0
0, 0
0, 0
1, 0
0, 0
0, 0
0, 0
0, 0
0, 0
0, 0
0, 0
0, 0
0, 0
0, 0
0, 0
0, 0
0, 0
0, 0
0, 0
0, 0
0, 0
0, 0
0, 0
0, 0
0, 0
0, 0
0, 0
0, 0
0, 0
0, 0
0, 0
0, 0
0, 0
0, 0
0, 0
0, 0
0, 0
0, 0
0, 0
0, 0
0, 0
0, 0
0, 0
0, 0
0, 0
0, 0
0, 0
0, 0
0, 0
0, 0
0, 0
0, 0
0, 0
0, 0
0, 0
0, 0
0, 0
0, 0
0, 0
0, 0
0, 0
0, 0
0, 0
0, 0
0, 0
0, 0
0, 0
0, 0
0, 0
0, 0
0, 0
0, 0
0, 0
0, 0
0, 0
0, 0
0, 0
0, 0
0, 0
0, 0
0, 0
0, 0
0, 0
0, 0
0, 0
0, 0
0, 0
0, 0
0, 0
0, 0
0, 0
0, 0
0, 0
0, 0
0, 0
0, 0
0, 0
0, 0
0, 0
0, 0
0, 0
0, 0
0, 0
0, 0
0, 0
0, 0
#ENDOFDATA     end of spectrum data