Folder: data-repository/host_upload/02-11-2024/rqc/uplink1 (part 21)

File: ps__0567_0717304816_000rfs_shot_351.msa
#FORMAT      : EMSA/MAS spectral data file
#VERSION     : TC202v2.0 PIXL
#TITLE       : Novarupta (sol567) subset1
#DATE        : 02-11-2024      Date in the format DD-MMM-YYYY, for example 07-JUL-2010
#TIME        :             The time of day at which the spectrum was recorded, in 24-hour format
#OWNER       : PIXL Flight Model       (PIXL will use this to indicate which instrument took the data.)
#NPOINTS     : 4096     Number of data points in the spectrum (This can be zero for configuration only files)
#NCOLUMNS    : 2     Number of data columns in the spectrum (This can be zero for configuration only files)
#XUNITS      : eV
#YUNITS      : COUNTS
#DATATYPE    : YY
#XPERCHAN    : 7.862, 7.881   eV per channel (separate by commas if more than one detector)
#OFFSET      : 18.5, -22.4         eV of first channel  (separate by commas if more than one detector
#SIGNALTYPE  : XRF
#YP_TEMP     : 1.594
#LIVETIME    : 8.83178, 8.81495   seconds (separate by commas if more than one detector)
#REALTIME    : 10, 10.0   seconds (separate by commas if more than one detector)
#SPECTRUM    : start of spectrum data
0, 0
0, 0
0, 0
0, 0
0, 0
0, 0
0, 0
0, 0
1, 1
4, 2
6, 2
7, 5
8, 13
19, 31
42, 62
94, 137
508, 504
107, 131
31, 34
24, 17
42, 42
284, 296
116, 126
52, 68
200, 228
117, 104
62, 52
29, 32
3, 6
8, 9
35, 33
13, 17
18, 20
201, 247
305, 313
56, 54
40, 63
49, 53
13, 12
14, 11
11, 23
57, 69
31, 24
15, 9
13, 13
14, 14
14, 23
11, 8
17, 10
29, 22
21, 28
14, 15
14, 18
38, 30
35, 42
16, 32
29, 40
366, 498
1678, 1911
1119, 1060
108, 103
8, 18
17, 13
82, 89
256, 307
157, 137
25, 29
3, 11
11, 16
8, 7
11, 5
8, 5
4, 9
5, 10
3, 10
10, 5
10, 5
5, 4
12, 10
9, 11
6, 4
8, 7
5, 3
4, 7
5, 5
5, 3
9, 7
3, 11
5, 2
2, 5
5, 3
6, 3
2, 2
3, 0
6, 1
3, 3
3, 7
6, 2
2, 2
2, 4
7, 3
2, 2
0, 3
4, 2
1, 2
2, 1
4, 1
2, 4
6, 2
2, 1
4, 1
2, 0
0, 4
0, 1
2, 2
2, 0
3, 6
4, 2
2, 5
0, 0
2, 4
2, 0
4, 3
0, 2
2, 0
3, 1
0, 0
0, 1
0, 0
0, 1
0, 1
2, 1
0, 0
0, 1
1, 1
0, 0
2, 0
0, 1
0, 0
1, 1
1, 2
0, 1
0, 2
0, 0
2, 1
0, 0
0, 1
2, 2
1, 1
0, 0
1, 0
2, 1
0, 1
0, 0
0, 0
0, 1
0, 0
0, 0
1, 1
0, 0
0, 0
1, 0
0, 0
0, 1
0, 0
2, 0
0, 1
1, 0
0, 0
0, 0
0, 0
0, 0
0, 0
0, 0
0, 0
1, 0
0, 0
0, 0
0, 0
0, 0
0, 1
0, 1
0, 1
0, 0
1, 0
0, 0
0, 0
0, 0
0, 0
0, 0
0, 0
0, 0
0, 0
1, 0
0, 0
1, 0
0, 0
0, 0
0, 0
0, 0
0, 0
0, 0
0, 0
0, 0
0, 0
0, 0
0, 0
1, 0
0, 0
0, 0
0, 0
0, 0
0, 0
0, 0
0, 0
0, 0
0, 0
0, 0
0, 0
0, 0
0, 0
0, 0
0, 0
0, 0
0, 0
0, 0
0, 0
0, 0
0, 0
0, 0
0, 0
0, 0
0, 0
0, 0
0, 0
0, 0
0, 0
0, 0
0, 0
0, 0
0, 0
0, 0
0, 0
0, 0
0, 0
0, 0
0, 0
0, 0
0, 0
0, 0
0, 0
0, 0
0, 0
0, 0
0, 0
0, 0
0, 0
0, 0
0, 0
0, 0
0, 0
0, 0
0, 0
0, 0
0, 0
0, 0
0, 0
0, 0
0, 0
0, 0
0, 0
0, 0
0, 0
0, 0
0, 0
0, 0
0, 0
0, 0
0, 0
0, 0
0, 0
0, 0
0, 0
0, 0
0, 0
0, 0
0, 0
0, 0
0, 0
0, 0
0, 0
0, 0
0, 0
0, 0
#ENDOFDATA     end of spectrum data

File: ps__0567_0717304816_000rfs_shot_352.msa
#FORMAT      : EMSA/MAS spectral data file
#VERSION     : TC202v2.0 PIXL
#TITLE       : Novarupta (sol567) subset1
#DATE        : 02-11-2024      Date in the format DD-MMM-YYYY, for example 07-JUL-2010
#TIME        :             The time of day at which the spectrum was recorded, in 24-hour format
#OWNER       : PIXL Flight Model       (PIXL will use this to indicate which instrument took the data.)
#NPOINTS     : 4096     Number of data points in the spectrum (This can be zero for configuration only files)
#NCOLUMNS    : 2     Number of data columns in the spectrum (This can be zero for configuration only files)
#XUNITS      : eV
#YUNITS      : COUNTS
#DATATYPE    : YY
#XPERCHAN    : 7.862, 7.881   eV per channel (separate by commas if more than one detector)
#OFFSET      : 18.5, -22.4         eV of first channel  (separate by commas if more than one detector
#SIGNALTYPE  : XRF
#YP_TEMP     : 1.594
#LIVETIME    : 8.83316, 8.80277   seconds (separate by commas if more than one detector)
#REALTIME    : 10, 10.0   seconds (separate by commas if more than one detector)
#SPECTRUM    : start of spectrum data
0, 0
0, 0
0, 0
0, 0
0, 0
0, 0
0, 0
0, 1
2, 1
2, 5
5, 4
7, 15
12, 22
17, 19
48, 31
92, 117
489, 527
126, 103
33, 39
24, 27
56, 57
309, 323
120, 132
58, 80
208, 200
90, 122
61, 73
24, 23
12, 10
6, 10
24, 39
16, 21
16, 19
206, 248
317, 319
46, 55
47, 40
54, 51
10, 9
9, 9
20, 26
44, 60
29, 35
15, 23
18, 16
9, 22
12, 20
10, 8
14, 13
33, 30
27, 31
9, 15
9, 9
32, 37
50, 51
25, 19
35, 34
407, 480
1604, 1842
1104, 1097
137, 111
15, 12
19, 26
89, 103
258, 275
164, 139
15, 32
8, 10
8, 17
12, 5
6, 5
7, 8
5, 8
10, 9
12, 10
8, 7
8, 5
6, 5
14, 9
4, 8
4, 6
11, 5
4, 5
7, 3
3, 6
3, 3
9, 1
2, 9
2, 6
4, 6
2, 3
6, 5
2, 5
2, 7
3, 3
2, 4
1, 4
1, 5
5, 3
5, 3
3, 7
4, 0
4, 5
0, 7
4, 2
1, 5
0, 3
0, 2
4, 0
4, 2
1, 4
2, 3
2, 3
2, 4
2, 2
2, 4
2, 1
6, 7
1, 8
2, 3
1, 2
2, 0
1, 1
1, 1
2, 5
0, 2
0, 1
1, 2
2, 0
4, 0
1, 0
1, 1
2, 4
0, 0
0, 0
0, 1
2, 1
1, 2
1, 3
0, 0
0, 0
1, 0
0, 1
2, 1
1, 0
1, 2
0, 1
0, 0
0, 0
1, 0
0, 1
0, 0
0, 1
3, 1
0, 0
1, 1
1, 1
2, 0
0, 1
0, 0
0, 0
0, 0
0, 0
0, 0
0, 0
0, 0
0, 0
0, 1
0, 0
1, 1
0, 1
0, 0
0, 0
1, 0
0, 0
0, 0
0, 1
0, 0
0, 0
0, 0
0, 0
0, 0
1, 0
1, 0
0, 0
0, 1
0, 1
0, 0
0, 0
0, 0
0, 0
0, 0
0, 0
0, 0
0, 0
0, 0
0, 0
0, 1
0, 0
0, 0
0, 0
0, 0
0, 0
0, 0
0, 0
0, 0
0, 0
0, 0
0, 0
0, 0
0, 0
0, 0
0, 0
0, 0
0, 0
0, 0
0, 0
0, 0
0, 0
0, 0
0, 0
0, 0
0, 0
0, 0
0, 0
0, 0
0, 0
0, 0
0, 0
0, 0
0, 0
0, 0
0, 0
0, 0
0, 0
0, 0
0, 0
0, 0
0, 0
0, 0
0, 0
0, 0
0, 0
0, 0
0, 0
0, 0
0, 0
0, 0
0, 0
0, 0
0, 0
0, 0
0, 0
0, 0
0, 0
0, 0
0, 0
0, 0
0, 0
0, 0
0, 0
0, 0
0, 0
0, 0
0, 0
0, 0
0, 0
0, 0
0, 0
0, 0
0, 0
0, 0
0, 0
0, 0
0, 0
0, 0
0, 0
0, 0
0, 0
0, 0
0, 0
0, 0
0, 0
0, 0
0, 0
0, 0
0, 0
0, 0
0, 0
0, 0
0, 0
0, 0
0, 0
0, 0
#ENDOFDATA     end of spectrum data

File: ps__0567_0717304816_000rfs_shot_354.msa
#FORMAT      : EMSA/MAS spectral data file
#VERSION     : TC202v2.0 PIXL
#TITLE       : Novarupta (sol567) subset1
#DATE        : 02-11-2024      Date in the format DD-MMM-YYYY, for example 07-JUL-2010
#TIME        :             The time of day at which the spectrum was recorded, in 24-hour format
#OWNER       : PIXL Flight Model       (PIXL will use this to indicate which instrument took the data.)
#NPOINTS     : 4096     Number of data points in the spectrum (This can be zero for configuration only files)
#NCOLUMNS    : 2     Number of data columns in the spectrum (This can be zero for configuration only files)
#XUNITS      : eV
#YUNITS      : COUNTS
#DATATYPE    : YY
#XPERCHAN    : 7.862, 7.881   eV per channel (separate by commas if more than one detector)
#OFFSET      : 18.5, -22.4         eV of first channel  (separate by commas if more than one detector
#SIGNALTYPE  : XRF
#YP_TEMP     : 1.626
#LIVETIME    : 8.82377, 8.81737   seconds (separate by commas if more than one detector)
#REALTIME    : 10, 10.0   seconds (separate by commas if more than one detector)
#SPECTRUM    : start of spectrum data
0, 0
0, 0
0, 0
0, 0
0, 0
0, 0
0, 0
0, 2
3, 6
5, 3
2, 9
14, 12
13, 10
23, 24
37, 42
117, 116
501, 542
126, 105
29, 37
17, 19
58, 60
300, 343
127, 133
56, 89
191, 226
91, 121
65, 70
24, 26
12, 5
8, 12
25, 29
15, 19
14, 25
207, 264
313, 374
56, 68
48, 60
42, 47
8, 17
5, 8
15, 25
62, 85
35, 30
11, 16
7, 16
19, 25
14, 11
14, 7
14, 13
35, 26
20, 30
11, 9
13, 13
25, 41
53, 56
23, 18
31, 28
351, 523
1593, 1845
1088, 1018
116, 101
27, 24
22, 25
77, 126
253, 287
156, 151
27, 16
11, 10
11, 16
5, 6
7, 5
5, 3
7, 10
4, 4
2, 4
8, 11
7, 6
3, 12
10, 12
16, 9
6, 8
3, 13
5, 7
9, 13
5, 6
6, 3
4, 5
8, 5
4, 8
1, 10
5, 3
2, 2
5, 2
3, 6
3, 8
5, 5
2, 2
2, 6
3, 5
2, 2
1, 7
1, 3
2, 3
2, 2
1, 1
3, 3
3, 7
0, 2
4, 3
3, 4
4, 4
3, 3
0, 0
2, 5
3, 3
2, 1
4, 5
2, 3
2, 2
1, 1
3, 1
1, 2
1, 0
2, 1
0, 5
3, 0
2, 0
1, 1
2, 2
2, 2
2, 2
0, 1
2, 0
1, 2
1, 0
1, 1
0, 2
3, 0
1, 1
0, 0
1, 1
0, 0
0, 0
0, 0
1, 1
1, 2
0, 0
0, 0
1, 0
0, 0
0, 1
1, 2
1, 0
0, 0
0, 0
0, 0
0, 0
0, 2
0, 0
0, 0
0, 1
1, 1
0, 0
0, 1
0, 2
2, 0
0, 0
2, 0
1, 0
0, 0
0, 0
1, 0
0, 0
0, 0
0, 0
1, 0
2, 0
0, 0
1, 0
0, 0
0, 0
0, 0
0, 0
0, 0
0, 0
0, 0
0, 0
0, 0
0, 0
0, 0
0, 0
0, 0
0, 0
0, 0
1, 0
0, 0
0, 0
0, 0
0, 0
0, 0
0, 0
0, 0
0, 0
0, 0
0, 0
0, 0
0, 0
1, 0
0, 0
0, 0
0, 0
0, 0
1, 0
0, 0
0, 0
0, 0
0, 0
0, 0
0, 0
0, 0
0, 0
0, 0
0, 0
0, 0
0, 0
0, 0
0, 0
0, 0
0, 0
0, 0
0, 0
0, 0
0, 0
0, 0
0, 0
0, 0
0, 0
0, 0
0, 0
0, 0
0, 0
0, 0
0, 0
0, 0
0, 0
0, 0
0, 0
0, 0
0, 0
0, 0
0, 0
0, 0
0, 0
0, 0
0, 0
0, 0
0, 0
0, 0
0, 0
0, 0
0, 0
0, 0
0, 0
0, 0
0, 0
0, 0
0, 0
0, 0
0, 0
0, 0
0, 0
0, 0
0, 0
0, 0
0, 0
0, 0
0, 0
0, 0
0, 0
0, 0
0, 0
0, 0
0, 0
0, 0
0, 0
0, 0
0, 0
0, 0
0, 0
0, 0
0, 0
0, 0
0, 0
0, 0
#ENDOFDATA     end of spectrum data

File: ps__0567_0717304816_000rfs_shot_355.msa
#FORMAT      : EMSA/MAS spectral data file
#VERSION     : TC202v2.0 PIXL
#TITLE       : Novarupta (sol567) subset1
#DATE        : 02-11-2024      Date in the format DD-MMM-YYYY, for example 07-JUL-2010
#TIME        :             The time of day at which the spectrum was recorded, in 24-hour format
#OWNER       : PIXL Flight Model       (PIXL will use this to indicate which instrument took the data.)
#NPOINTS     : 4096     Number of data points in the spectrum (This can be zero for configuration only files)
#NCOLUMNS    : 2     Number of data columns in the spectrum (This can be zero for configuration only files)
#XUNITS      : eV
#YUNITS      : COUNTS
#DATATYPE    : YY
#XPERCHAN    : 7.862, 7.881   eV per channel (separate by commas if more than one detector)
#OFFSET      : 18.5, -22.4         eV of first channel  (separate by commas if more than one detector
#SIGNALTYPE  : XRF
#YP_TEMP     : 1.562
#LIVETIME    : 8.84096, 8.62518   seconds (separate by commas if more than one detector)
#REALTIME    : 10, 10.0   seconds (separate by commas if more than one detector)
#SPECTRUM    : start of spectrum data
0, 0
0, 0
0, 0
0, 0
0, 0
0, 0
0, 0
0, 0
1, 2
1, 5
3, 2
7, 9
16, 8
31, 26
42, 43
99, 124
434, 555
111, 116
26, 47
30, 22
55, 55
276, 361
111, 124
76, 84
227, 269
107, 110
60, 71
35, 25
13, 8
8, 11
25, 29
14, 16
21, 28
198, 267
335, 381
62, 57
45, 38
50, 48
7, 13
9, 8
18, 37
53, 76
32, 39
15, 16
10, 10
20, 18
17, 16
17, 6
11, 12
15, 33
26, 33
6, 17
11, 12
24, 43
46, 53
20, 20
32, 35
318, 472
1563, 1797
1079, 1134
113, 113
18, 18
29, 23
76, 92
210, 313
154, 166
25, 13
9, 11
11, 6
15, 12
15, 3
9, 8
4, 9
7, 3
4, 8
6, 8
9, 7
5, 6
12, 15
11, 7
8, 3
8, 2
4, 9
2, 4
2, 5
3, 5
5, 3
3, 7
4, 4
5, 4
3, 2
6, 4
4, 4
5, 5
2, 2
4, 5
10, 3
3, 4
3, 1
1, 3
3, 7
2, 3
4, 2
3, 6
3, 1
2, 1
5, 0
2, 2
3, 2
0, 2
3, 0
4, 3
3, 3
4, 3
3, 0
1, 2
2, 7
4, 1
1, 2
2, 1
1, 2
2, 0
0, 2
1, 2
0, 3
1, 1
0, 1
3, 3
0, 1
2, 0
1, 2
1, 2
1, 1
0, 0
2, 0
2, 0
0, 0
1, 0
0, 1
0, 0
2, 1
0, 0
0, 1
0, 0
0, 2
0, 0
0, 0
1, 0
0, 0
1, 1
1, 0
0, 2
0, 0
0, 0
0, 0
0, 0
1, 0
0, 0
0, 0
0, 0
0, 0
0, 0
0, 1
1, 0
0, 2
0, 0
0, 0
0, 0
0, 0
0, 0
0, 0
0, 0
0, 0
1, 2
0, 0
0, 0
0, 0
0, 1
0, 0
0, 1
0, 0
1, 0
0, 0
0, 0
0, 1
0, 0
0, 0
0, 0
0, 0
0, 1
0, 0
0, 0
0, 1
0, 0
0, 0
0, 0
0, 0
0, 0
0, 0
0, 0
0, 0
0, 0
0, 0
0, 0
0, 0
0, 0
0, 0
0, 0
0, 0
0, 0
0, 0
0, 0
0, 0
0, 0
0, 0
0, 0
0, 0
0, 0
0, 0
0, 0
0, 0
0, 0
0, 0
0, 0
0, 0
0, 0
1, 0
0, 0
0, 0
0, 0
0, 0
0, 0
0, 0
0, 0
0, 0
0, 0
0, 0
0, 0
0, 0
0, 0
0, 0
0, 0
0, 0
0, 0
0, 0
0, 0
0, 0
0, 0
0, 0
0, 0
0, 0
0, 0
0, 0
0, 0
0, 0
0, 0
0, 0
0, 0
0, 0
0, 0
0, 0
0, 0
0, 0
0, 0
0, 0
0, 0
0, 0
0, 0
0, 0
0, 0
0, 0
0, 0
0, 0
0, 0
0, 0
0, 0
0, 0
0, 0
0, 0
0, 0
0, 0
0, 0
0, 0
0, 0
0, 0
0, 0
0, 0
0, 0
0, 0
0, 0
0, 0
0, 0
0, 0
0, 0
#ENDOFDATA     end of spectrum data

File: ps__0567_0717304816_000rfs_shot_357.msa
#FORMAT      : EMSA/MAS spectral data file
#VERSION     : TC202v2.0 PIXL
#TITLE       : Novarupta (sol567) subset1
#DATE        : 02-11-2024      Date in the format DD-MMM-YYYY, for example 07-JUL-2010
#TIME        :             The time of day at which the spectrum was recorded, in 24-hour format
#OWNER       : PIXL Flight Model       (PIXL will use this to indicate which instrument took the data.)
#NPOINTS     : 4096     Number of data points in the spectrum (This can be zero for configuration only files)
#NCOLUMNS    : 2     Number of data columns in the spectrum (This can be zero for configuration only files)
#XUNITS      : eV
#YUNITS      : COUNTS
#DATATYPE    : YY
#XPERCHAN    : 7.862, 7.881   eV per channel (separate by commas if more than one detector)
#OFFSET      : 18.5, -22.4         eV of first channel  (separate by commas if more than one detector
#SIGNALTYPE  : XRF
#YP_TEMP     : 1.626
#LIVETIME    : 8.8299, 8.81104   seconds (separate by commas if more than one detector)
#REALTIME    : 10, 10.0   seconds (separate by commas if more than one detector)
#SPECTRUM    : start of spectrum data
0, 0
0, 0
0, 0
0, 0
0, 0
0, 0
0, 0
0, 0
5, 1
4, 2
3, 0
2, 7
15, 19
22, 29
30, 44
100, 142
448, 541
121, 111
25, 40
30, 24
52, 52
290, 326
117, 122
58, 74
191, 249
114, 125
64, 75
26, 21
8, 12
8, 10
14, 20
14, 20
18, 24
203, 237
314, 327
57, 57
37, 37
55, 59
11, 15
8, 11
18, 12
56, 79
31, 43
11, 14
17, 16
27, 23
13, 22
19, 8
11, 12
20, 31
12, 36
7, 9
22, 16
20, 53
47, 41
22, 25
23, 29
352, 480
1624, 1761
1087, 994
100, 95
12, 25
19, 27
85, 91
253, 281
156, 174
23, 18
8, 5
10, 13
3, 11
7, 5
4, 5
6, 4
9, 7
7, 10
11, 9
7, 12
4, 5
8, 20
10, 12
7, 9
9, 6
4, 6
2, 4
5, 6
5, 3
8, 3
4, 8
9, 5
5, 4
2, 3
9, 4
6, 4
2, 5
3, 3
8, 2
1, 2
6, 3
7, 2
4, 0
2, 5
2, 2
4, 2
3, 1
4, 1
1, 8
7, 1
1, 4
1, 4
1, 2
3, 2
2, 3
1, 3
0, 3
4, 2
5, 5
5, 4
1, 3
1, 0
1, 2
0, 3
1, 1
2, 2
0, 5
1, 0
1, 1
0, 3
2, 2
1, 2
0, 1
1, 2
3, 1
0, 1
0, 0
1, 0
0, 0
3, 0
0, 0
1, 0
2, 0
0, 3
1, 0
0, 0
1, 1
0, 0
0, 0
0, 0
0, 0
0, 0
0, 1
0, 0
0, 0
0, 1
0, 1
0, 0
0, 0
0, 1
0, 1
0, 0
0, 1
1, 0
0, 0
0, 1
1, 0
0, 0
0, 3
1, 0
0, 1
0, 2
0, 0
0, 1
1, 1
0, 1
0, 0
0, 0
0, 1
0, 0
0, 0
0, 0
0, 0
0, 0
0, 0
0, 1
0, 0
0, 0
1, 0
0, 0
0, 0
0, 0
0, 0
0, 0
0, 0
0, 0
0, 0
0, 1
1, 0
0, 0
0, 0
0, 0
0, 0
0, 0
0, 0
0, 0
0, 1
0, 0
0, 0
0, 0
0, 1
0, 0
0, 0
0, 0
0, 0
0, 0
0, 0
0, 0
0, 0
0, 0
0, 0
0, 0
0, 0
0, 0
0, 0
0, 0
0, 0
0, 0
0, 0
0, 0
0, 0
0, 0
0, 0
0, 0
0, 0
0, 0
0, 0
0, 0
0, 0
0, 0
0, 0
0, 0
0, 0
0, 0
0, 0
0, 0
0, 0
0, 0
0, 0
0, 0
0, 0
0, 0
0, 0
0, 0
0, 0
0, 0
0, 0
0, 0
0, 0
0, 0
0, 0
0, 0
0, 0
0, 0
0, 0
0, 0
0, 0
0, 0
0, 0
0, 0
0, 0
0, 0
0, 0
0, 0
0, 0
0, 0
0, 0
0, 0
0, 0
0, 0
0, 0
0, 0
0, 0
0, 0
0, 0
0, 0
0, 0
0, 0
0, 0
0, 0
0, 0
0, 0
0, 0
0, 0
0, 0
0, 0
0, 0
#ENDOFDATA     end of spectrum data

File: ps__0567_0717304816_000rfs_shot_358.msa
#FORMAT      : EMSA/MAS spectral data file
#VERSION     : TC202v2.0 PIXL
#TITLE       : Novarupta (sol567) subset1
#DATE        : 02-11-2024      Date in the format DD-MMM-YYYY, for example 07-JUL-2010
#TIME        :             The time of day at which the spectrum was recorded, in 24-hour format
#OWNER       : PIXL Flight Model       (PIXL will use this to indicate which instrument took the data.)
#NPOINTS     : 4096     Number of data points in the spectrum (This can be zero for configuration only files)
#NCOLUMNS    : 2     Number of data columns in the spectrum (This can be zero for configuration only files)
#XUNITS      : eV
#YUNITS      : COUNTS
#DATATYPE    : YY
#XPERCHAN    : 7.862, 7.881   eV per channel (separate by commas if more than one detector)
#OFFSET      : 18.5, -22.4         eV of first channel  (separate by commas if more than one detector
#SIGNALTYPE  : XRF
#YP_TEMP     : 1.626
#LIVETIME    : 8.83441, 8.81359   seconds (separate by commas if more than one detector)
#REALTIME    : 10, 10.0   seconds (separate by commas if more than one detector)
#SPECTRUM    : start of spectrum data
0, 0
0, 0
0, 0
0, 0
0, 0
0, 0
0, 0
0, 0
1, 3
2, 4
4, 4
15, 9
8, 17
26, 37
64, 51
107, 129
475, 501
113, 131
29, 41
26, 28
69, 57
294, 339
133, 128
58, 81
217, 234
104, 122
65, 67
25, 37
7, 13
10, 12
26, 33
14, 16
20, 17
190, 244
335, 357
58, 56
45, 59
39, 44
11, 13
9, 11
23, 32
57, 72
34, 35
12, 14
13, 13
21, 17
17, 15
16, 10
14, 13
31, 22
28, 22
17, 16
15, 17
27, 46
48, 44
24, 37
20, 26
342, 475
1614, 1826
1039, 1080
121, 107
13, 21
14, 18
79, 110
244, 293
188, 130
20, 26
11, 9
11, 12
10, 14
2, 5
6, 8
7, 6
5, 5
3, 9
8, 9
4, 8
15, 8
12, 13
9, 4
5, 4
3, 3
7, 6
2, 3
7, 10
5, 6
5, 5
8, 5
7, 6
7, 6
9, 3
4, 3
4, 9
4, 3
2, 4
2, 2
7, 3
5, 2
4, 3
6, 6
2, 3
5, 6
2, 3
3, 2
4, 2
2, 3
0, 2
1, 2
2, 4
2, 3
4, 5
1, 3
4, 1
1, 1
1, 7
0, 5
4, 4
2, 3
3, 4
0, 2
1, 1
0, 2
0, 1
1, 0
4, 0
2, 0
1, 3
0, 4
1, 2
2, 0
3, 1
0, 0
2, 0
1, 1
2, 2
0, 1
0, 1
0, 2
2, 1
0, 2
0, 1
0, 1
1, 1
1, 0
3, 0
1, 0
0, 2
0, 2
2, 0
2, 0
0, 0
0, 1
0, 0
0, 2
0, 1
0, 0
1, 0
0, 0
0, 0
0, 1
1, 0
0, 1
0, 0
1, 1
0, 0
0, 1
0, 0
2, 0
0, 0
0, 0
0, 0
0, 0
0, 0
1, 0
0, 0
1, 0
0, 0
1, 0
0, 1
0, 0
0, 0
0, 0
0, 0
0, 0
0, 0
0, 0
0, 0
0, 0
0, 0
0, 0
0, 0
0, 0
0, 1
0, 0
0, 0
0, 0
0, 0
0, 0
0, 0
0, 0
0, 0
0, 0
0, 0
0, 0
0, 0
0, 0
0, 1
0, 0
0, 0
0, 0
0, 0
0, 0
0, 0
0, 0
0, 0
0, 0
0, 0
0, 0
0, 0
0, 0
0, 0
0, 0
0, 0
0, 0
0, 0
0, 0
0, 0
0, 0
0, 0
0, 0
0, 0
0, 0
0, 0
0, 0
0, 0
0, 0
0, 0
0, 0
0, 0
0, 0
0, 0
0, 0
0, 0
0, 0
0, 0
1, 0
0, 0
0, 0
0, 0
0, 0
0, 0
0, 0
0, 0
0, 0
0, 0
0, 0
0, 0
0, 0
0, 0
0, 0
0, 0
0, 0
0, 0
0, 0
0, 0
0, 0
0, 0
0, 0
0, 0
0, 0
0, 0
0, 0
0, 0
0, 0
0, 0
0, 0
0, 0
0, 0
0, 0
0, 0
0, 0
0, 0
0, 0
0, 0
0, 0
0, 0
0, 0
0, 0
0, 0
0, 0
0, 0
0, 0
0, 0
0, 0
#ENDOFDATA     end of spectrum data

File: ps__0567_0717304816_000rfs_shot_359.msa
#FORMAT      : EMSA/MAS spectral data file
#VERSION     : TC202v2.0 PIXL
#TITLE       : Novarupta (sol567) subset1
#DATE        : 02-11-2024      Date in the format DD-MMM-YYYY, for example 07-JUL-2010
#TIME        :             The time of day at which the spectrum was recorded, in 24-hour format
#OWNER       : PIXL Flight Model       (PIXL will use this to indicate which instrument took the data.)
#NPOINTS     : 4096     Number of data points in the spectrum (This can be zero for configuration only files)
#NCOLUMNS    : 2     Number of data columns in the spectrum (This can be zero for configuration only files)
#XUNITS      : eV
#YUNITS      : COUNTS
#DATATYPE    : YY
#XPERCHAN    : 7.862, 7.881   eV per channel (separate by commas if more than one detector)
#OFFSET      : 18.5, -22.4         eV of first channel  (separate by commas if more than one detector
#SIGNALTYPE  : XRF
#YP_TEMP     : 1.594
#LIVETIME    : 8.82092, 8.81523   seconds (separate by commas if more than one detector)
#REALTIME    : 10, 10.0   seconds (separate by commas if more than one detector)
#SPECTRUM    : start of spectrum data
0, 0
0, 0
0, 0
0, 0
0, 0
0, 0
0, 0
1, 1
2, 6
1, 2
2, 2
9, 11
13, 7
25, 23
42, 58
98, 112
508, 485
146, 112
36, 34
25, 21
50, 59
306, 358
124, 113
56, 74
202, 224
123, 107
60, 84
22, 21
8, 9
9, 7
26, 27
26, 17
19, 21
209, 234
331, 303
56, 32
40, 53
50, 63
11, 6
10, 13
21, 16
65, 63
43, 34
15, 7
8, 15
27, 18
14, 14
6, 9
13, 19
31, 28
21, 22
9, 10
9, 12
36, 32
58, 50
24, 26
35, 39
390, 399
1630, 1727
1146, 1075
126, 107
13, 18
25, 24
86, 105
234, 289
159, 142
26, 27
11, 10
12, 12
8, 9
3, 3
5, 6
8, 7
9, 9
11, 6
9, 8
7, 7
4, 7
10, 13
10, 8
6, 10
7, 4
3, 7
3, 6
5, 2
4, 5
1, 8
4, 3
3, 5
7, 11
3, 3
2, 8
4, 3
4, 5
1, 0
3, 7
4, 2
1, 3
5, 5
4, 4
6, 4
3, 3
5, 1
4, 1
2, 5
3, 0
2, 1
4, 2
4, 2
2, 3
2, 2
2, 1
1, 3
2, 1
0, 1
3, 2
4, 3
1, 4
2, 2
2, 1
1, 4
3, 1
3, 1
2, 3
2, 2
0, 1
0, 0
1, 1
1, 1
0, 3
0, 1
0, 1
0, 2
1, 2
1, 1
2, 0
0, 1
1, 0
0, 1
1, 0
0, 0
0, 0
0, 1
0, 1
0, 1
0, 0
0, 0
1, 1
2, 1
1, 0
0, 0
0, 0
0, 0
1, 0
0, 0
0, 2
1, 0
0, 0
1, 0
1, 0
2, 1
1, 0
0, 2
0, 1
0, 0
0, 0
0, 0
0, 1
0, 1
0, 0
0, 0
1, 3
2, 1
0, 0
1, 0
0, 0
0, 0
0, 0
0, 0
0, 0
0, 0
0, 1
0, 0
0, 0
0, 0
0, 2
0, 0
0, 0
0, 0
0, 0
0, 0
0, 0
1, 0
0, 0
0, 0
0, 0
1, 0
0, 0
0, 0
0, 0
0, 0
0, 0
0, 0
0, 0
0, 0
0, 0
0, 0
0, 0
0, 0
0, 0
0, 0
0, 0
0, 0
0, 0
0, 0
0, 0
0, 0
0, 0
0, 0
0, 0
0, 0
0, 0
0, 0
0, 0
0, 0
0, 0
0, 0
0, 0
0, 0
0, 0
0, 0
0, 0
0, 0
0, 0
0, 0
0, 0
0, 0
0, 0
0, 0
0, 0
0, 0
0, 0
0, 0
0, 0
0, 0
0, 0
0, 0
0, 0
0, 0
0, 0
0, 0
0, 0
0, 0
0, 0
0, 0
0, 0
0, 0
0, 0
0, 0
0, 0
0, 0
0, 0
0, 0
0, 0
0, 0
0, 0
0, 0
0, 0
0, 0
0, 0
0, 0
0, 0
0, 0
0, 0
0, 0
0, 0
0, 0
0, 0
0, 0
0, 0
0, 0
0, 0
0, 0
0, 0
0, 0
0, 0
0, 0
0, 0
0, 0
0, 0
0, 0
0, 0
0, 0
0, 0
#ENDOFDATA     end of spectrum data

File: ps__0567_0717304816_000rfs_shot_360.msa
#FORMAT      : EMSA/MAS spectral data file
#VERSION     : TC202v2.0 PIXL
#TITLE       : Novarupta (sol567) subset1
#DATE        : 02-11-2024      Date in the format DD-MMM-YYYY, for example 07-JUL-2010
#TIME        :             The time of day at which the spectrum was recorded, in 24-hour format
#OWNER       : PIXL Flight Model       (PIXL will use this to indicate which instrument took the data.)
#NPOINTS     : 4096     Number of data points in the spectrum (This can be zero for configuration only files)
#NCOLUMNS    : 2     Number of data columns in the spectrum (This can be zero for configuration only files)
#XUNITS      : eV
#YUNITS      : COUNTS
#DATATYPE    : YY
#XPERCHAN    : 7.862, 7.881   eV per channel (separate by commas if more than one detector)
#OFFSET      : 18.5, -22.4         eV of first channel  (separate by commas if more than one detector
#SIGNALTYPE  : XRF
#YP_TEMP     : 1.594
#LIVETIME    : 8.82209, 8.82346   seconds (separate by commas if more than one detector)
#REALTIME    : 10, 10.0   seconds (separate by commas if more than one detector)
#SPECTRUM    : start of spectrum data
0, 0
0, 0
0, 0
0, 0
0, 0
0, 0
0, 0
2, 1
1, 1
3, 3
2, 2
9, 10
14, 13
25, 21
34, 34
117, 121
509, 513
147, 107
40, 21
25, 26
64, 67
401, 403
159, 150
77, 71
232, 236
121, 101
76, 58
38, 30
6, 10
6, 6
27, 30
25, 15
16, 15
233, 222
351, 338
52, 24
41, 35
62, 41
10, 11
8, 8
17, 32
57, 61
35, 34
12, 10
11, 16
13, 26
16, 11
14, 9
9, 13
34, 38
27, 23
19, 18
18, 15
35, 45
70, 42
19, 21
25, 33
393, 481
1722, 1815
1182, 986
128, 102
20, 20
26, 17
95, 101
269, 264
174, 142
27, 18
5, 13
17, 11
13, 6
4, 5
3, 4
9, 3
7, 8
8, 4
7, 7
4, 7
7, 9
4, 17
15, 7
9, 6
7, 4
7, 5
1, 5
5, 3
7, 5
3, 4
4, 7
3, 6
3, 8
5, 3
6, 4
3, 6
3, 3
3, 10
3, 5
5, 5
6, 2
2, 1
2, 4
4, 6
3, 3
6, 1
3, 4
1, 6
2, 6
0, 3
2, 2
6, 4
5, 2
0, 1
3, 1
0, 0
2, 6
1, 1
0, 2
0, 3
4, 4
0, 1
3, 2
0, 1
0, 3
1, 1
3, 2
0, 2
1, 1
1, 0
0, 0
1, 0
0, 1
1, 1
2, 1
0, 2
4, 0
1, 1
0, 1
2, 1
1, 0
0, 0
0, 2
0, 0
0, 0
0, 0
1, 0
0, 0
0, 1
1, 1
0, 0
1, 0
0, 0
0, 0
1, 0
1, 0
0, 0
0, 0
0, 1
0, 0
0, 0
1, 0
1, 0
1, 1
0, 0
0, 0
1, 1
1, 0
0, 0
0, 0
0, 0
0, 1
0, 0
0, 0
0, 0
0, 0
0, 0
0, 0
0, 0
1, 0
0, 0
0, 0
0, 0
0, 0
0, 0
0, 0
0, 0
0, 0
0, 0
0, 0
0, 0
0, 0
0, 1
0, 1
0, 0
0, 0
0, 0
0, 0
0, 0
0, 0
0, 0
0, 0
0, 0
0, 0
0, 0
0, 0
0, 0
0, 0
0, 0
0, 0
0, 0
0, 0
0, 0
0, 0
0, 0
0, 0
0, 0
0, 0
0, 0
0, 0
0, 0
0, 0
0, 0
0, 0
0, 0
0, 0
0, 0
0, 0
0, 0
0, 0
0, 0
0, 0
0, 0
0, 0
0, 0
0, 0
0, 0
0, 0
0, 0
0, 0
0, 0
0, 0
0, 0
0, 0
0, 0
0, 0
0, 0
0, 0
0, 0
0, 0
0, 0
0, 0
0, 0
0, 0
0, 0
0, 0
0, 0
0, 0
0, 0
0, 0
0, 0
0, 0
0, 0
0, 0
0, 0
0, 0
0, 0
0, 0
0, 0
0, 0
0, 0
0, 0
0, 0
0, 0
0, 0
0, 0
0, 0
0, 0
0, 0
0, 0
0, 0
0, 0
0, 0
0, 0
0, 0
0, 0
0, 0
0, 0
0, 0
0, 0
0, 0
0, 0
0, 0
0, 0
0, 0
0, 0
0, 0
#ENDOFDATA     end of spectrum data

File: ps__0567_0717304816_000rfs_shot_361.msa
#FORMAT      : EMSA/MAS spectral data file
#VERSION     : TC202v2.0 PIXL
#TITLE       : Novarupta (sol567) subset1
#DATE        : 02-11-2024      Date in the format DD-MMM-YYYY, for example 07-JUL-2010
#TIME        :             The time of day at which the spectrum was recorded, in 24-hour format
#OWNER       : PIXL Flight Model       (PIXL will use this to indicate which instrument took the data.)
#NPOINTS     : 4096     Number of data points in the spectrum (This can be zero for configuration only files)
#NCOLUMNS    : 2     Number of data columns in the spectrum (This can be zero for configuration only files)
#XUNITS      : eV
#YUNITS      : COUNTS
#DATATYPE    : YY
#XPERCHAN    : 7.862, 7.881   eV per channel (separate by commas if more than one detector)
#OFFSET      : 18.5, -22.4         eV of first channel  (separate by commas if more than one detector
#SIGNALTYPE  : XRF
#YP_TEMP     : 1.594
#LIVETIME    : 8.81053, 8.80822   seconds (separate by commas if more than one detector)
#REALTIME    : 10, 10.0   seconds (separate by commas if more than one detector)
#SPECTRUM    : start of spectrum data
0, 0
0, 0
0, 0
0, 0
0, 0
0, 0
1, 0
1, 1
5, 4
2, 2
3, 6
11, 10
16, 18
21, 19
46, 49
108, 95
520, 466
128, 115
35, 29
22, 21
80, 94
475, 471
178, 174
72, 98
249, 236
120, 117
78, 77
27, 28
15, 8
6, 12
27, 26
23, 19
24, 28
231, 211
374, 342
56, 58
46, 38
56, 45
15, 11
9, 4
16, 17
72, 59
44, 35
19, 14
16, 17
17, 13
15, 14
11, 11
12, 14
36, 32
18, 25
15, 13
10, 15
34, 36
47, 44
28, 21
39, 36
352, 469
1675, 1702
1176, 908
146, 96
19, 18
25, 25
84, 99
301, 289
173, 145
29, 20
15, 20
14, 13
8, 10
8, 7
2, 3
9, 7
7, 6
9, 8
9, 7
5, 3
5, 11
11, 16
19, 5
5, 4
4, 5
8, 4
6, 3
5, 4
5, 13
4, 8
1, 3
7, 7
5, 3
3, 4
6, 4
7, 6
3, 7
1, 7
1, 6
3, 4
4, 4
6, 6
5, 4
5, 6
3, 4
3, 3
0, 2
3, 4
1, 3
1, 2
0, 1
2, 1
1, 2
4, 5
3, 2
1, 1
3, 6
3, 4
1, 0
7, 5
2, 1
3, 5
1, 5
1, 4
1, 0
1, 1
1, 3
1, 1
0, 1
1, 3
4, 0
2, 2
4, 1
0, 0
1, 1
0, 1
2, 1
1, 2
0, 0
1, 0
0, 1
1, 1
0, 1
3, 0
1, 0
2, 0
1, 0
0, 1
1, 1
0, 0
0, 0
0, 1
1, 0
0, 1
0, 0
0, 0
0, 0
0, 1
1, 1
0, 1
0, 0
0, 0
0, 0
0, 0
0, 0
0, 0
0, 0
1, 0
0, 0
0, 0
0, 0
0, 0
0, 0
1, 0
0, 0
1, 0
0, 0
0, 0
1, 1
0, 0
0, 0
0, 0
2, 0
1, 0
0, 0
0, 0
0, 0
0, 0
0, 1
0, 0
1, 0
1, 0
0, 0
0, 0
0, 0
0, 0
0, 0
0, 0
0, 0
0, 0
0, 0
0, 0
0, 1
0, 0
0, 0
0, 0
0, 0
0, 0
0, 0
0, 0
0, 0
0, 0
0, 0
0, 0
0, 0
0, 0
0, 0
0, 0
0, 0
0, 0
0, 0
0, 0
0, 0
0, 0
0, 0
0, 0
0, 0
0, 0
0, 0
0, 0
0, 0
0, 0
0, 0
0, 0
0, 0
0, 0
0, 0
0, 0
0, 0
0, 0
0, 0
0, 0
0, 0
0, 0
0, 0
0, 0
0, 0
0, 0
0, 0
0, 0
0, 0
0, 0
0, 0
0, 0
0, 0
0, 0
0, 0
0, 0
0, 0
0, 0
0, 0
0, 0
0, 0
0, 0
0, 0
0, 0
0, 0
0, 0
0, 0
0, 0
0, 0
0, 0
0, 0
0, 0
0, 0
0, 0
0, 0
0, 0
0, 0
0, 0
0, 0
0, 0
0, 0
0, 0
0, 0
0, 0
0, 0
0, 0
0, 0
0, 0
0, 0
0, 0
0, 0
0, 0
0, 0
0, 0
0, 0
#ENDOFDATA     end of spectrum data