Folder: data-repository/host_upload/02-11-2024/rqc/uplink1 (part 8)

File: ps__0567_0717304816_000rfs_shot_121.msa
#FORMAT      : EMSA/MAS spectral data file
#VERSION     : TC202v2.0 PIXL
#TITLE       : Novarupta (sol567) subset1
#DATE        : 02-11-2024      Date in the format DD-MMM-YYYY, for example 07-JUL-2010
#TIME        :             The time of day at which the spectrum was recorded, in 24-hour format
#OWNER       : PIXL Flight Model       (PIXL will use this to indicate which instrument took the data.)
#NPOINTS     : 4096     Number of data points in the spectrum (This can be zero for configuration only files)
#NCOLUMNS    : 2     Number of data columns in the spectrum (This can be zero for configuration only files)
#XUNITS      : eV
#YUNITS      : COUNTS
#DATATYPE    : YY
#XPERCHAN    : 7.862, 7.881   eV per channel (separate by commas if more than one detector)
#OFFSET      : 18.5, -22.4         eV of first channel  (separate by commas if more than one detector
#SIGNALTYPE  : XRF
#YP_TEMP     : -0.459
#LIVETIME    : 8.84357, 8.82124   seconds (separate by commas if more than one detector)
#REALTIME    : 10, 10.0   seconds (separate by commas if more than one detector)
#SPECTRUM    : start of spectrum data
0, 0
0, 0
0, 0
0, 0
0, 0
0, 0
0, 0
0, 0
2, 0
1, 3
4, 2
8, 11
15, 22
28, 23
38, 47
123, 116
464, 504
107, 111
24, 37
15, 22
58, 61
278, 317
108, 105
69, 86
182, 248
92, 114
78, 83
32, 24
16, 11
9, 9
20, 24
13, 19
22, 26
187, 232
309, 291
39, 49
33, 38
58, 58
14, 10
6, 5
16, 31
55, 69
30, 29
21, 19
15, 22
21, 22
17, 14
14, 14
26, 13
27, 33
17, 18
11, 11
14, 13
33, 49
36, 56
21, 17
30, 33
408, 531
1596, 1770
963, 978
105, 82
24, 15
20, 25
80, 114
240, 293
139, 147
15, 14
12, 8
13, 13
10, 10
10, 11
3, 1
6, 5
6, 7
3, 10
4, 7
6, 4
11, 11
7, 12
5, 13
10, 4
7, 9
11, 5
3, 5
3, 6
5, 3
8, 6
4, 3
3, 4
1, 7
6, 6
3, 5
5, 2
5, 6
2, 4
3, 3
4, 2
2, 2
2, 5
3, 3
1, 3
1, 3
0, 2
2, 6
2, 3
0, 1
2, 1
2, 0
1, 3
2, 2
3, 1
0, 2
2, 1
1, 1
2, 1
1, 5
4, 6
3, 1
3, 2
0, 2
1, 1
0, 3
4, 3
4, 2
1, 2
1, 0
3, 1
2, 1
1, 2
1, 0
4, 0
0, 0
1, 3
0, 1
1, 3
2, 2
0, 1
3, 0
0, 0
0, 1
0, 0
1, 0
1, 0
1, 0
1, 2
0, 0
0, 0
0, 0
0, 1
0, 1
0, 2
0, 0
0, 0
1, 0
0, 0
0, 0
1, 0
0, 1
0, 0
1, 0
0, 0
1, 0
0, 0
0, 1
0, 0
2, 0
0, 0
0, 1
1, 0
0, 1
1, 1
0, 1
0, 1
0, 0
1, 1
0, 0
0, 0
0, 0
0, 0
0, 0
0, 0
0, 0
0, 2
0, 0
0, 0
0, 0
0, 0
0, 0
0, 0
0, 0
0, 0
0, 0
0, 0
0, 0
0, 0
0, 0
0, 0
0, 0
0, 0
0, 0
0, 0
0, 0
0, 0
0, 1
0, 0
0, 0
0, 0
0, 0
0, 0
0, 1
0, 0
0, 0
0, 0
0, 0
0, 0
0, 0
0, 0
0, 0
0, 0
0, 0
0, 0
0, 0
0, 0
0, 0
0, 0
0, 0
0, 0
0, 0
0, 0
0, 0
0, 0
0, 0
0, 0
0, 0
0, 0
0, 0
0, 0
0, 0
0, 0
0, 0
0, 0
0, 0
0, 0
0, 0
0, 0
0, 0
0, 0
0, 0
0, 0
0, 0
0, 0
0, 0
0, 0
0, 0
0, 0
0, 0
0, 0
0, 0
0, 0
0, 0
0, 0
0, 0
0, 0
0, 0
0, 0
0, 0
0, 0
0, 0
0, 0
0, 0
0, 0
0, 0
0, 0
0, 0
0, 0
0, 0
0, 0
0, 0
0, 0
0, 0
0, 0
0, 0
0, 0
0, 0
0, 0
0, 0
0, 0
0, 0
0, 0
0, 0
0, 0
0, 0
0, 0
0, 0
#ENDOFDATA     end of spectrum data

File: ps__0567_0717304816_000rfs_shot_122.msa
#FORMAT      : EMSA/MAS spectral data file
#VERSION     : TC202v2.0 PIXL
#TITLE       : Novarupta (sol567) subset1
#DATE        : 02-11-2024      Date in the format DD-MMM-YYYY, for example 07-JUL-2010
#TIME        :             The time of day at which the spectrum was recorded, in 24-hour format
#OWNER       : PIXL Flight Model       (PIXL will use this to indicate which instrument took the data.)
#NPOINTS     : 4096     Number of data points in the spectrum (This can be zero for configuration only files)
#NCOLUMNS    : 2     Number of data columns in the spectrum (This can be zero for configuration only files)
#XUNITS      : eV
#YUNITS      : COUNTS
#DATATYPE    : YY
#XPERCHAN    : 7.862, 7.881   eV per channel (separate by commas if more than one detector)
#OFFSET      : 18.5, -22.4         eV of first channel  (separate by commas if more than one detector
#SIGNALTYPE  : XRF
#YP_TEMP     : -0.459
#LIVETIME    : 8.84368, 8.81603   seconds (separate by commas if more than one detector)
#REALTIME    : 10, 10.0   seconds (separate by commas if more than one detector)
#SPECTRUM    : start of spectrum data
0, 0
0, 0
0, 0
0, 0
0, 0
0, 0
0, 0
1, 0
4, 4
2, 5
6, 4
11, 10
10, 13
24, 24
42, 56
105, 139
467, 512
117, 125
30, 36
15, 25
45, 55
257, 313
110, 101
66, 75
226, 229
108, 114
69, 87
31, 27
11, 5
9, 9
27, 39
15, 10
23, 28
228, 239
318, 300
42, 45
55, 50
39, 56
14, 7
10, 8
21, 16
62, 69
41, 44
23, 17
16, 21
16, 20
15, 11
6, 11
8, 14
30, 29
15, 16
11, 15
12, 18
25, 54
43, 47
21, 20
31, 42
425, 474
1508, 1877
948, 937
114, 81
16, 16
19, 30
99, 100
234, 305
136, 148
24, 19
13, 14
11, 9
9, 10
9, 3
6, 2
3, 5
3, 6
6, 8
5, 9
4, 8
9, 7
8, 11
4, 17
3, 7
17, 5
6, 3
7, 3
8, 7
4, 7
5, 7
6, 3
5, 4
2, 4
4, 4
7, 4
5, 4
6, 2
3, 4
5, 9
2, 4
5, 3
0, 8
5, 3
2, 3
1, 5
1, 3
1, 0
3, 6
3, 4
2, 2
1, 1
4, 2
1, 2
4, 4
3, 2
0, 2
2, 1
3, 5
2, 1
0, 6
3, 2
1, 0
0, 2
1, 0
5, 1
2, 2
2, 1
2, 3
1, 1
0, 1
0, 0
0, 0
1, 0
4, 2
0, 2
3, 2
0, 0
1, 0
0, 0
4, 1
1, 0
0, 0
0, 1
1, 0
0, 0
1, 0
0, 0
1, 0
1, 1
1, 0
0, 2
0, 0
1, 0
0, 0
0, 0
0, 0
0, 0
0, 0
1, 0
1, 0
0, 0
1, 0
0, 1
1, 0
0, 1
0, 0
0, 0
0, 1
0, 0
1, 1
0, 0
0, 0
0, 2
0, 0
0, 0
0, 0
0, 0
0, 0
0, 0
0, 0
0, 0
0, 0
0, 0
0, 0
0, 0
0, 0
2, 2
0, 0
0, 0
0, 0
0, 0
0, 0
0, 0
0, 0
1, 0
0, 0
1, 0
0, 0
0, 1
0, 0
0, 0
0, 0
0, 0
0, 0
0, 0
0, 0
0, 0
0, 0
0, 0
0, 0
0, 0
0, 0
0, 0
0, 0
0, 0
0, 0
0, 0
0, 0
0, 0
0, 0
0, 0
0, 0
0, 0
0, 0
0, 0
0, 0
0, 0
0, 0
0, 0
0, 0
0, 0
0, 0
0, 0
0, 0
0, 0
0, 0
0, 0
0, 0
0, 0
0, 0
0, 0
0, 0
0, 0
0, 0
0, 0
0, 0
0, 0
0, 0
0, 0
0, 0
0, 0
0, 0
0, 0
0, 0
0, 0
0, 0
0, 0
0, 0
0, 0
0, 0
0, 0
0, 0
0, 0
0, 0
0, 0
0, 0
0, 0
0, 0
0, 0
0, 0
0, 0
0, 0
0, 0
0, 0
0, 0
0, 0
0, 0
0, 0
0, 0
0, 0
0, 0
0, 0
0, 0
0, 0
0, 0
0, 0
0, 0
0, 0
0, 0
0, 0
0, 0
0, 0
0, 0
0, 0
0, 0
0, 0
0, 0
#ENDOFDATA     end of spectrum data

File: ps__0567_0717304816_000rfs_shot_125.msa
#FORMAT      : EMSA/MAS spectral data file
#VERSION     : TC202v2.0 PIXL
#TITLE       : Novarupta (sol567) subset1
#DATE        : 02-11-2024      Date in the format DD-MMM-YYYY, for example 07-JUL-2010
#TIME        :             The time of day at which the spectrum was recorded, in 24-hour format
#OWNER       : PIXL Flight Model       (PIXL will use this to indicate which instrument took the data.)
#NPOINTS     : 4096     Number of data points in the spectrum (This can be zero for configuration only files)
#NCOLUMNS    : 2     Number of data columns in the spectrum (This can be zero for configuration only files)
#XUNITS      : eV
#YUNITS      : COUNTS
#DATATYPE    : YY
#XPERCHAN    : 7.862, 7.881   eV per channel (separate by commas if more than one detector)
#OFFSET      : 18.5, -22.4         eV of first channel  (separate by commas if more than one detector
#SIGNALTYPE  : XRF
#YP_TEMP     : -0.523
#LIVETIME    : 8.83758, 8.82152   seconds (separate by commas if more than one detector)
#REALTIME    : 10, 10.0   seconds (separate by commas if more than one detector)
#SPECTRUM    : start of spectrum data
0, 0
0, 0
0, 0
0, 0
0, 0
0, 0
0, 0
0, 0
0, 2
6, 2
2, 3
10, 8
18, 12
19, 25
44, 43
121, 130
431, 524
110, 111
19, 42
26, 21
50, 72
285, 322
108, 116
79, 86
201, 245
101, 111
68, 65
28, 28
8, 10
9, 7
29, 25
20, 14
22, 28
186, 249
329, 310
41, 44
44, 38
49, 40
6, 10
11, 11
16, 14
57, 88
43, 40
14, 17
17, 10
18, 18
9, 18
6, 11
11, 14
26, 32
12, 17
11, 13
15, 11
19, 53
53, 46
24, 17
31, 25
436, 511
1572, 1880
978, 1009
86, 81
22, 17
18, 25
81, 117
236, 272
165, 126
25, 11
7, 10
12, 10
6, 16
7, 8
4, 6
5, 8
8, 9
8, 10
3, 6
11, 10
3, 6
12, 7
8, 6
12, 8
5, 4
7, 4
4, 3
1, 3
1, 3
3, 6
8, 10
2, 4
6, 7
3, 2
1, 4
4, 7
3, 2
4, 7
0, 5
2, 4
3, 5
2, 2
7, 3
0, 3
1, 4
1, 3
4, 3
3, 2
2, 1
0, 4
1, 3
3, 1
2, 2
2, 3
0, 0
0, 2
2, 2
1, 2
3, 1
2, 3
0, 1
1, 0
2, 3
0, 5
2, 2
4, 3
2, 0
1, 1
1, 0
0, 1
1, 3
2, 0
2, 1
2, 2
2, 0
3, 0
0, 1
0, 1
0, 2
1, 0
3, 0
0, 0
0, 1
2, 1
0, 3
0, 2
1, 0
0, 0
0, 0
0, 0
2, 0
0, 0
1, 0
2, 0
0, 0
0, 1
0, 0
0, 0
0, 0
1, 0
0, 0
0, 1
0, 0
0, 0
0, 0
1, 0
0, 1
0, 0
2, 0
0, 0
0, 0
0, 0
0, 1
0, 2
0, 0
1, 0
1, 0
0, 0
0, 1
0, 0
0, 0
0, 0
0, 1
0, 0
0, 0
0, 0
0, 0
0, 0
0, 0
0, 0
0, 0
0, 0
1, 0
0, 0
0, 0
0, 0
0, 0
0, 0
0, 0
0, 0
0, 0
0, 0
0, 0
0, 0
0, 0
0, 0
0, 0
0, 0
0, 0
0, 0
0, 0
0, 0
0, 0
0, 0
0, 0
0, 0
0, 0
0, 0
0, 0
0, 0
0, 0
0, 0
0, 0
0, 0
0, 0
0, 0
0, 0
0, 0
0, 0
0, 0
0, 0
0, 0
0, 0
0, 0
0, 0
0, 0
0, 0
0, 0
0, 0
0, 0
0, 0
0, 0
0, 0
0, 0
0, 0
0, 0
0, 0
0, 0
0, 0
0, 0
0, 0
0, 0
0, 0
0, 0
0, 0
0, 0
0, 0
0, 0
0, 0
0, 0
0, 0
0, 0
0, 0
0, 0
0, 0
0, 0
0, 0
0, 0
0, 0
0, 0
0, 0
0, 0
0, 0
0, 0
0, 0
0, 0
0, 0
0, 0
0, 0
0, 0
0, 0
0, 0
0, 0
0, 0
0, 0
0, 0
0, 0
0, 0
0, 0
0, 0
0, 0
0, 0
0, 0
0, 0
0, 0
0, 0
0, 0
#ENDOFDATA     end of spectrum data

File: ps__0567_0717304816_000rfs_shot_126.msa
#FORMAT      : EMSA/MAS spectral data file
#VERSION     : TC202v2.0 PIXL
#TITLE       : Novarupta (sol567) subset1
#DATE        : 02-11-2024      Date in the format DD-MMM-YYYY, for example 07-JUL-2010
#TIME        :             The time of day at which the spectrum was recorded, in 24-hour format
#OWNER       : PIXL Flight Model       (PIXL will use this to indicate which instrument took the data.)
#NPOINTS     : 4096     Number of data points in the spectrum (This can be zero for configuration only files)
#NCOLUMNS    : 2     Number of data columns in the spectrum (This can be zero for configuration only files)
#XUNITS      : eV
#YUNITS      : COUNTS
#DATATYPE    : YY
#XPERCHAN    : 7.862, 7.881   eV per channel (separate by commas if more than one detector)
#OFFSET      : 18.5, -22.4         eV of first channel  (separate by commas if more than one detector
#SIGNALTYPE  : XRF
#YP_TEMP     : -0.523
#LIVETIME    : 8.83892, 8.81832   seconds (separate by commas if more than one detector)
#REALTIME    : 10, 10.0   seconds (separate by commas if more than one detector)
#SPECTRUM    : start of spectrum data
0, 0
0, 0
0, 0
0, 0
0, 0
0, 0
0, 0
0, 0
1, 3
2, 4
2, 9
9, 11
6, 11
22, 26
38, 49
101, 117
488, 485
121, 126
24, 27
22, 17
54, 66
256, 295
107, 115
65, 70
190, 221
110, 106
56, 60
22, 28
8, 7
6, 9
22, 33
7, 16
15, 18
182, 244
300, 342
63, 59
39, 47
61, 45
11, 15
8, 12
18, 21
65, 67
33, 27
17, 13
17, 16
18, 21
12, 13
4, 10
16, 13
31, 40
16, 28
10, 13
8, 14
30, 44
45, 46
16, 21
37, 40
391, 548
1497, 1912
904, 917
102, 78
22, 12
15, 25
86, 128
256, 264
143, 147
11, 28
14, 14
12, 10
7, 8
9, 4
5, 9
9, 5
6, 3
7, 11
13, 11
5, 6
8, 8
8, 17
9, 6
3, 2
5, 6
4, 6
4, 6
3, 5
3, 6
5, 4
5, 2
6, 5
2, 6
2, 9
5, 6
6, 5
5, 5
4, 2
5, 3
1, 4
0, 5
2, 5
4, 3
4, 1
2, 3
1, 4
3, 0
4, 4
0, 3
8, 3
2, 2
1, 3
0, 3
3, 3
0, 0
2, 5
2, 2
2, 0
1, 2
5, 4
0, 5
3, 1
0, 0
0, 2
0, 0
2, 0
4, 1
2, 2
4, 1
0, 2
3, 1
0, 1
0, 1
2, 2
1, 1
2, 0
0, 1
1, 0
0, 0
1, 1
0, 2
0, 2
0, 1
0, 1
0, 1
1, 1
0, 0
1, 1
0, 1
0, 1
0, 1
0, 0
1, 1
0, 0
0, 0
0, 0
0, 0
1, 0
1, 0
0, 0
0, 0
0, 1
0, 0
0, 0
0, 0
0, 0
0, 0
0, 0
1, 0
0, 0
0, 0
0, 0
0, 1
0, 0
0, 0
0, 0
0, 0
0, 1
0, 0
0, 0
0, 0
0, 0
0, 0
0, 0
0, 0
1, 0
1, 0
0, 0
0, 0
0, 0
0, 1
0, 0
0, 0
1, 0
1, 0
0, 0
0, 0
0, 0
0, 0
0, 0
0, 0
0, 0
0, 0
0, 0
0, 0
0, 0
0, 0
0, 0
0, 0
0, 0
0, 0
0, 0
0, 0
0, 0
0, 0
0, 0
0, 0
0, 0
0, 0
0, 0
0, 0
0, 0
0, 0
0, 0
0, 0
0, 0
0, 0
0, 0
0, 0
0, 0
0, 0
0, 0
0, 0
0, 0
0, 0
0, 0
0, 0
0, 0
0, 0
0, 0
0, 0
0, 0
0, 0
0, 0
0, 0
0, 0
0, 0
0, 0
0, 0
0, 0
0, 0
0, 0
0, 0
0, 0
0, 0
0, 0
0, 0
0, 0
0, 0
0, 0
0, 0
0, 0
0, 0
0, 0
0, 0
0, 0
0, 0
0, 0
0, 0
0, 0
0, 0
0, 0
0, 0
0, 0
0, 0
0, 0
0, 0
0, 0
0, 0
0, 0
0, 0
0, 0
0, 0
0, 0
0, 0
0, 0
0, 0
0, 0
0, 0
0, 0
0, 0
0, 0
0, 0
0, 0
0, 0
0, 0
0, 0
#ENDOFDATA     end of spectrum data

File: ps__0567_0717304816_000rfs_shot_127.msa
#FORMAT      : EMSA/MAS spectral data file
#VERSION     : TC202v2.0 PIXL
#TITLE       : Novarupta (sol567) subset1
#DATE        : 02-11-2024      Date in the format DD-MMM-YYYY, for example 07-JUL-2010
#TIME        :             The time of day at which the spectrum was recorded, in 24-hour format
#OWNER       : PIXL Flight Model       (PIXL will use this to indicate which instrument took the data.)
#NPOINTS     : 4096     Number of data points in the spectrum (This can be zero for configuration only files)
#NCOLUMNS    : 2     Number of data columns in the spectrum (This can be zero for configuration only files)
#XUNITS      : eV
#YUNITS      : COUNTS
#DATATYPE    : YY
#XPERCHAN    : 7.862, 7.881   eV per channel (separate by commas if more than one detector)
#OFFSET      : 18.5, -22.4         eV of first channel  (separate by commas if more than one detector
#SIGNALTYPE  : XRF
#YP_TEMP     : -0.234
#LIVETIME    : 8.8332, 8.81713   seconds (separate by commas if more than one detector)
#REALTIME    : 10, 10.0   seconds (separate by commas if more than one detector)
#SPECTRUM    : start of spectrum data
0, 0
0, 0
0, 0
0, 0
0, 0
0, 0
0, 1
0, 0
2, 2
1, 5
3, 2
11, 12
10, 11
23, 28
44, 32
122, 142
475, 565
109, 109
32, 38
19, 26
36, 53
285, 347
121, 103
56, 67
195, 229
97, 127
52, 70
24, 27
6, 13
8, 9
14, 32
6, 19
12, 22
196, 257
289, 326
51, 41
42, 37
49, 77
14, 18
6, 7
12, 30
64, 69
26, 40
10, 13
12, 17
21, 19
10, 10
10, 8
19, 8
22, 51
29, 25
18, 10
10, 16
32, 43
46, 51
26, 22
32, 39
431, 525
1567, 1934
959, 1014
101, 104
16, 13
20, 25
83, 124
235, 287
147, 140
14, 22
7, 14
13, 14
10, 9
2, 7
3, 5
4, 4
7, 9
7, 10
3, 15
4, 8
8, 2
11, 6
9, 12
5, 6
7, 2
3, 2
3, 7
5, 5
1, 4
5, 7
1, 7
2, 6
5, 5
3, 5
7, 5
4, 2
3, 4
5, 5
1, 3
2, 4
3, 4
6, 3
6, 1
2, 2
1, 3
1, 3
6, 2
2, 2
1, 2
3, 1
6, 7
5, 3
4, 1
3, 1
2, 6
1, 1
2, 3
3, 2
2, 1
4, 3
3, 3
1, 2
3, 1
1, 1
3, 2
1, 1
3, 2
1, 4
1, 1
0, 0
0, 1
2, 0
2, 2
0, 3
0, 3
0, 0
0, 3
0, 0
2, 1
0, 0
0, 2
0, 0
2, 1
0, 3
0, 1
2, 0
0, 0
0, 2
3, 1
0, 0
0, 0
1, 0
1, 0
0, 0
0, 0
0, 1
0, 2
0, 0
0, 1
0, 0
0, 0
1, 0
0, 1
0, 0
0, 1
0, 2
0, 0
0, 0
0, 0
0, 0
0, 1
0, 0
0, 0
0, 0
0, 0
0, 0
1, 1
0, 0
0, 1
0, 0
0, 0
0, 0
0, 0
0, 0
0, 0
0, 0
0, 0
0, 0
0, 0
0, 0
0, 0
0, 0
0, 0
1, 1
0, 0
0, 0
0, 0
0, 0
0, 0
1, 0
0, 0
0, 0
0, 0
0, 0
0, 0
0, 0
0, 0
0, 0
0, 0
0, 0
0, 0
0, 0
0, 0
0, 0
0, 0
0, 0
0, 0
0, 0
0, 0
0, 0
0, 0
0, 0
0, 0
0, 0
0, 0
0, 0
0, 0
0, 0
0, 0
0, 0
0, 0
0, 0
0, 0
0, 0
0, 0
0, 0
0, 0
0, 0
0, 0
0, 0
0, 0
0, 0
0, 0
0, 0
0, 0
0, 0
0, 0
0, 0
0, 0
0, 0
0, 0
0, 0
0, 0
0, 0
0, 0
0, 0
0, 0
0, 0
0, 0
0, 0
0, 0
0, 0
0, 0
0, 0
0, 0
0, 0
0, 0
0, 0
0, 0
0, 0
0, 0
0, 0
0, 0
0, 0
0, 0
0, 0
0, 0
0, 0
0, 0
0, 0
0, 0
0, 0
0, 0
0, 0
0, 0
0, 0
0, 0
0, 0
0, 0
0, 0
0, 0
0, 0
0, 0
0, 0
0, 0
0, 0
0, 0
#ENDOFDATA     end of spectrum data

File: ps__0567_0717304816_000rfs_shot_128.msa
#FORMAT      : EMSA/MAS spectral data file
#VERSION     : TC202v2.0 PIXL
#TITLE       : Novarupta (sol567) subset1
#DATE        : 02-11-2024      Date in the format DD-MMM-YYYY, for example 07-JUL-2010
#TIME        :             The time of day at which the spectrum was recorded, in 24-hour format
#OWNER       : PIXL Flight Model       (PIXL will use this to indicate which instrument took the data.)
#NPOINTS     : 4096     Number of data points in the spectrum (This can be zero for configuration only files)
#NCOLUMNS    : 2     Number of data columns in the spectrum (This can be zero for configuration only files)
#XUNITS      : eV
#YUNITS      : COUNTS
#DATATYPE    : YY
#XPERCHAN    : 7.862, 7.881   eV per channel (separate by commas if more than one detector)
#OFFSET      : 18.5, -22.4         eV of first channel  (separate by commas if more than one detector
#SIGNALTYPE  : XRF
#YP_TEMP     : -0.459
#LIVETIME    : 8.84066, 8.81151   seconds (separate by commas if more than one detector)
#REALTIME    : 10, 10.0   seconds (separate by commas if more than one detector)
#SPECTRUM    : start of spectrum data
0, 0
0, 0
0, 0
0, 0
0, 0
0, 0
0, 0
0, 0
2, 1
2, 5
2, 6
9, 11
9, 6
23, 22
45, 39
119, 139
485, 555
120, 116
13, 38
20, 24
44, 54
261, 343
107, 107
72, 84
201, 245
105, 102
60, 61
22, 32
10, 8
8, 14
28, 25
18, 17
16, 27
202, 271
300, 355
38, 41
34, 56
40, 41
21, 14
12, 10
23, 41
53, 57
22, 33
13, 20
7, 13
26, 16
13, 18
10, 6
6, 13
23, 33
22, 24
18, 14
14, 12
29, 35
56, 57
14, 23
30, 44
391, 540
1509, 1891
958, 964
123, 87
24, 18
16, 21
93, 110
230, 302
143, 148
20, 22
8, 14
11, 16
10, 6
3, 5
6, 5
6, 3
6, 10
3, 6
9, 8
11, 12
5, 7
8, 15
11, 11
7, 7
4, 7
6, 9
6, 5
4, 8
5, 4
7, 7
4, 7
4, 6
3, 3
8, 5
3, 3
2, 5
2, 5
3, 7
6, 5
1, 2
5, 7
2, 4
2, 3
5, 4
3, 1
1, 6
4, 2
1, 4
3, 2
1, 1
3, 3
4, 3
4, 3
4, 2
3, 2
1, 2
0, 2
5, 2
6, 4
2, 4
3, 6
2, 1
1, 1
0, 3
0, 2
1, 1
1, 1
1, 0
0, 1
0, 3
1, 0
2, 0
2, 2
3, 0
0, 0
2, 2
1, 3
1, 0
0, 0
1, 1
1, 1
2, 0
2, 0
0, 1
1, 1
1, 0
1, 1
2, 0
0, 1
0, 0
0, 0
0, 0
0, 0
0, 0
0, 0
1, 1
1, 0
0, 0
0, 0
0, 0
0, 0
0, 1
1, 1
0, 0
1, 0
1, 0
0, 0
0, 0
0, 0
0, 0
0, 1
0, 0
0, 0
0, 0
0, 0
0, 1
0, 0
0, 0
0, 1
0, 0
0, 0
1, 2
0, 0
1, 0
1, 0
0, 0
0, 0
0, 0
0, 0
0, 0
0, 0
0, 0
0, 0
0, 0
0, 0
0, 0
0, 0
0, 0
0, 0
0, 0
0, 0
1, 0
0, 0
0, 0
0, 0
0, 0
0, 0
0, 0
0, 0
0, 0
0, 0
0, 1
0, 1
0, 0
0, 0
0, 0
0, 0
0, 0
0, 0
0, 0
0, 0
0, 0
0, 0
0, 0
0, 0
0, 0
0, 0
0, 0
0, 0
0, 0
0, 0
0, 0
0, 0
0, 0
0, 0
0, 0
0, 0
0, 0
0, 0
0, 0
0, 0
0, 0
0, 0
0, 0
0, 0
0, 0
0, 0
0, 0
0, 0
0, 0
0, 0
0, 0
0, 0
0, 0
0, 0
0, 0
0, 0
0, 0
0, 0
0, 0
0, 0
0, 0
0, 0
0, 0
0, 0
0, 0
0, 0
0, 0
0, 0
0, 0
0, 0
0, 0
0, 0
0, 0
0, 0
0, 0
0, 0
0, 0
0, 0
0, 0
0, 0
0, 0
0, 0
0, 0
0, 0
0, 0
0, 0
0, 0
0, 0
0, 0
0, 0
0, 0
0, 0
0, 0
0, 0
0, 0
0, 0
#ENDOFDATA     end of spectrum data

File: ps__0567_0717304816_000rfs_shot_129.msa
#FORMAT      : EMSA/MAS spectral data file
#VERSION     : TC202v2.0 PIXL
#TITLE       : Novarupta (sol567) subset1
#DATE        : 02-11-2024      Date in the format DD-MMM-YYYY, for example 07-JUL-2010
#TIME        :             The time of day at which the spectrum was recorded, in 24-hour format
#OWNER       : PIXL Flight Model       (PIXL will use this to indicate which instrument took the data.)
#NPOINTS     : 4096     Number of data points in the spectrum (This can be zero for configuration only files)
#NCOLUMNS    : 2     Number of data columns in the spectrum (This can be zero for configuration only files)
#XUNITS      : eV
#YUNITS      : COUNTS
#DATATYPE    : YY
#XPERCHAN    : 7.862, 7.881   eV per channel (separate by commas if more than one detector)
#OFFSET      : 18.5, -22.4         eV of first channel  (separate by commas if more than one detector
#SIGNALTYPE  : XRF
#YP_TEMP     : -0.459
#LIVETIME    : 8.83748, 8.82322   seconds (separate by commas if more than one detector)
#REALTIME    : 10, 10.0   seconds (separate by commas if more than one detector)
#SPECTRUM    : start of spectrum data
0, 0
0, 0
0, 0
0, 0
0, 0
0, 0
0, 0
1, 0
1, 5
2, 3
4, 4
7, 8
15, 15
18, 31
40, 33
106, 105
455, 549
113, 112
22, 32
20, 25
55, 62
288, 316
110, 119
71, 84
184, 214
95, 112
59, 63
33, 38
9, 9
9, 15
28, 23
10, 25
19, 26
230, 247
311, 332
53, 48
58, 52
47, 51
9, 13
5, 9
23, 26
52, 80
23, 46
14, 10
20, 16
11, 17
11, 16
16, 14
13, 23
33, 34
22, 19
6, 18
13, 12
42, 39
40, 44
25, 17
31, 43
363, 548
1652, 1830
1017, 970
122, 91
20, 14
25, 28
99, 109
254, 282
146, 137
18, 23
8, 10
18, 19
7, 15
8, 6
8, 6
5, 10
2, 6
6, 5
3, 9
3, 6
5, 14
13, 16
7, 3
4, 4
4, 5
6, 8
9, 3
3, 8
3, 3
6, 4
8, 8
4, 5
6, 6
1, 7
6, 5
3, 6
4, 6
3, 6
4, 5
4, 2
2, 2
5, 5
6, 3
3, 5
4, 5
2, 3
1, 0
6, 3
2, 2
1, 1
4, 3
2, 2
5, 1
1, 1
1, 1
3, 1
1, 1
2, 1
5, 2
3, 8
5, 1
1, 2
1, 3
1, 1
4, 0
0, 1
1, 1
2, 1
1, 1
0, 3
1, 2
0, 1
0, 3
0, 2
1, 1
3, 0
0, 1
0, 0
1, 2
0, 0
0, 0
0, 1
0, 1
1, 0
0, 0
1, 0
0, 2
0, 1
2, 1
0, 0
0, 0
1, 0
1, 0
0, 0
0, 0
0, 0
1, 0
0, 0
0, 0
0, 0
0, 0
0, 0
1, 1
0, 0
0, 1
0, 0
0, 0
0, 0
0, 0
0, 1
1, 1
0, 1
0, 0
0, 1
0, 1
0, 0
0, 0
0, 0
1, 0
0, 0
0, 0
0, 0
0, 0
0, 0
0, 0
0, 1
0, 1
0, 0
0, 0
0, 0
0, 0
0, 0
0, 0
0, 0
0, 1
0, 0
0, 0
0, 0
0, 0
0, 0
0, 0
0, 0
0, 0
0, 1
0, 0
0, 0
0, 0
0, 0
0, 0
0, 0
0, 0
0, 0
0, 0
0, 0
0, 0
0, 0
0, 0
0, 0
0, 0
0, 0
0, 0
0, 0
0, 0
0, 0
0, 0
0, 0
0, 0
0, 0
0, 0
0, 0
0, 0
0, 0
0, 0
0, 0
0, 0
0, 0
0, 0
0, 0
0, 0
0, 0
0, 0
0, 0
0, 0
0, 0
0, 0
0, 0
0, 0
0, 0
0, 0
0, 0
0, 0
0, 0
0, 0
0, 0
0, 0
0, 0
0, 0
0, 0
0, 0
0, 0
0, 0
0, 0
0, 0
0, 0
0, 0
0, 0
0, 0
0, 0
0, 0
0, 0
0, 0
0, 0
0, 0
0, 0
0, 0
0, 0
0, 0
0, 0
0, 0
0, 0
0, 0
0, 0
0, 0
0, 0
0, 0
0, 0
0, 0
0, 0
0, 0
0, 0
0, 0
0, 0
0, 0
0, 0
0, 0
0, 0
0, 0
#ENDOFDATA     end of spectrum data

File: ps__0567_0717304816_000rfs_shot_130.msa
#FORMAT      : EMSA/MAS spectral data file
#VERSION     : TC202v2.0 PIXL
#TITLE       : Novarupta (sol567) subset1
#DATE        : 02-11-2024      Date in the format DD-MMM-YYYY, for example 07-JUL-2010
#TIME        :             The time of day at which the spectrum was recorded, in 24-hour format
#OWNER       : PIXL Flight Model       (PIXL will use this to indicate which instrument took the data.)
#NPOINTS     : 4096     Number of data points in the spectrum (This can be zero for configuration only files)
#NCOLUMNS    : 2     Number of data columns in the spectrum (This can be zero for configuration only files)
#XUNITS      : eV
#YUNITS      : COUNTS
#DATATYPE    : YY
#XPERCHAN    : 7.862, 7.881   eV per channel (separate by commas if more than one detector)
#OFFSET      : 18.5, -22.4         eV of first channel  (separate by commas if more than one detector
#SIGNALTYPE  : XRF
#YP_TEMP     : -0.459
#LIVETIME    : 8.82559, 8.81709   seconds (separate by commas if more than one detector)
#REALTIME    : 10, 10.0   seconds (separate by commas if more than one detector)
#SPECTRUM    : start of spectrum data
0, 0
0, 0
0, 0
0, 0
0, 0
0, 0
0, 0
0, 0
1, 2
3, 4
2, 3
7, 8
11, 14
23, 21
44, 46
113, 123
490, 517
102, 108
39, 32
27, 29
69, 68
299, 348
132, 134
77, 68
207, 226
128, 112
64, 68
36, 30
10, 9
8, 8
32, 27
18, 18
21, 24
199, 243
313, 339
49, 45
29, 43
39, 41
7, 9
5, 11
20, 30
58, 61
37, 28
13, 14
14, 21
15, 22
9, 12
10, 13
10, 7
31, 34
27, 19
14, 11
13, 11
36, 34
42, 46
25, 22
38, 52
457, 540
1622, 1899
1058, 1011
111, 84
18, 14
24, 21
105, 100
271, 317
168, 143
21, 16
8, 14
17, 8
7, 8
6, 6
4, 5
5, 7
7, 4
11, 7
3, 12
8, 9
8, 11
11, 18
20, 6
5, 10
6, 4
4, 5
4, 5
3, 2
9, 5
11, 4
9, 4
6, 2
3, 2
7, 4
2, 1
5, 5
5, 2
6, 2
1, 2
5, 6
2, 3
2, 1
3, 4
3, 4
3, 0
5, 2
0, 5
2, 2
4, 1
1, 1
2, 2
2, 3
4, 2
2, 1
4, 1
3, 4
3, 2
2, 0
2, 2
5, 8
1, 4
0, 2
1, 2
1, 1
1, 1
1, 5
0, 0
3, 0
1, 2
4, 0
2, 2
1, 4
3, 0
1, 3
1, 1
1, 1
0, 1
0, 2
0, 0
1, 2
3, 0
1, 0
1, 3
0, 1
1, 0
1, 0
2, 0
1, 0
3, 1
0, 1
1, 0
1, 0
0, 1
0, 0
0, 1
0, 0
1, 0
0, 1
0, 0
0, 0
0, 1
0, 1
0, 0
0, 0
0, 0
0, 0
0, 0
0, 0
0, 0
0, 0
0, 0
0, 0
0, 1
0, 0
0, 0
0, 1
0, 0
0, 0
0, 1
0, 0
0, 0
0, 0
0, 1
0, 1
0, 0
0, 0
0, 0
0, 0
0, 0
1, 0
0, 0
0, 0
0, 1
0, 0
0, 0
0, 1
0, 0
1, 0
1, 0
0, 0
0, 0
0, 0
0, 0
0, 0
0, 1
0, 0
0, 1
0, 0
0, 0
0, 0
0, 0
0, 0
0, 0
0, 0
0, 0
0, 0
0, 0
0, 0
0, 0
0, 0
0, 0
0, 0
0, 0
0, 0
0, 0
0, 0
0, 0
0, 0
0, 0
0, 0
0, 0
0, 0
0, 0
0, 0
0, 0
0, 0
0, 0
0, 0
0, 0
0, 0
0, 0
0, 0
0, 0
0, 0
0, 0
0, 0
0, 0
0, 0
0, 0
0, 0
0, 0
0, 0
0, 0
0, 0
0, 0
0, 0
0, 0
0, 0
0, 0
0, 0
0, 0
0, 0
0, 0
0, 0
0, 0
0, 0
0, 0
0, 0
0, 0
0, 0
0, 0
0, 0
0, 0
0, 0
0, 0
0, 0
0, 0
0, 0
0, 0
0, 0
0, 0
0, 0
0, 0
0, 0
0, 0
0, 0
0, 0
0, 0
0, 0
0, 0
0, 0
0, 0
0, 0
0, 0
0, 0
0, 0
0, 0
#ENDOFDATA     end of spectrum data

File: ps__0567_0717304816_000rfs_shot_131.msa
#FORMAT      : EMSA/MAS spectral data file
#VERSION     : TC202v2.0 PIXL
#TITLE       : Novarupta (sol567) subset1
#DATE        : 02-11-2024      Date in the format DD-MMM-YYYY, for example 07-JUL-2010
#TIME        :             The time of day at which the spectrum was recorded, in 24-hour format
#OWNER       : PIXL Flight Model       (PIXL will use this to indicate which instrument took the data.)
#NPOINTS     : 4096     Number of data points in the spectrum (This can be zero for configuration only files)
#NCOLUMNS    : 2     Number of data columns in the spectrum (This can be zero for configuration only files)
#XUNITS      : eV
#YUNITS      : COUNTS
#DATATYPE    : YY
#XPERCHAN    : 7.862, 7.881   eV per channel (separate by commas if more than one detector)
#OFFSET      : 18.5, -22.4         eV of first channel  (separate by commas if more than one detector
#SIGNALTYPE  : XRF
#YP_TEMP     : -0.266
#LIVETIME    : 8.82552, 8.82506   seconds (separate by commas if more than one detector)
#REALTIME    : 10, 10.0   seconds (separate by commas if more than one detector)
#SPECTRUM    : start of spectrum data
0, 0
0, 0
0, 0
0, 0
0, 0
0, 0
0, 0
0, 0
6, 3
3, 4
1, 2
10, 9
19, 11
34, 23
42, 43
109, 131
458, 504
111, 105
38, 40
26, 30
63, 45
302, 329
129, 121
74, 84
237, 233
117, 104
64, 79
36, 31
7, 9
11, 6
26, 31
15, 18
21, 25
256, 245
344, 326
52, 46
36, 43
43, 43
16, 11
6, 7
21, 26
49, 56
32, 29
15, 15
14, 17
23, 23
6, 13
15, 10
19, 16
20, 31
26, 17
13, 19
11, 12
24, 41
43, 52
20, 21
25, 36
422, 479
1583, 1792
992, 923
123, 99
21, 14
20, 18
104, 104
266, 286
148, 114
21, 21
12, 14
13, 16
5, 13
7, 1
1, 8
6, 11
4, 10
8, 8
6, 5
9, 9
8, 5
9, 13
10, 12
8, 4
5, 10
5, 6
7, 7
5, 5
5, 5
6, 7
7, 4
4, 7
6, 1
9, 7
6, 5
1, 7
4, 2
3, 4
6, 4
3, 0
6, 1
5, 0
2, 1
2, 1
2, 3
4, 4
2, 2
2, 1
1, 3
3, 3
2, 1
6, 2
2, 2
3, 2
3, 1
5, 2
4, 0
0, 2
0, 1
2, 2
3, 4
1, 1
3, 2
1, 1
2, 0
3, 4
0, 2
1, 2
0, 1
1, 0
0, 3
0, 2
4, 0
1, 1
0, 1
1, 0
1, 1
1, 0
3, 1
1, 1
1, 0
2, 0
0, 0
2, 3
1, 0
1, 0
0, 0
0, 0
0, 1
2, 2
1, 1
0, 0
0, 1
1, 0
0, 0
1, 0
1, 0
0, 1
0, 0
1, 0
0, 0
1, 0
1, 0
0, 0
0, 0
0, 0
0, 0
0, 0
1, 0
0, 0
2, 0
0, 1
0, 0
0, 1
0, 0
0, 1
1, 0
0, 0
0, 0
0, 0
0, 0
1, 0
0, 0
1, 0
0, 0
0, 0
0, 0
0, 0
0, 0
0, 0
0, 0
0, 0
0, 0
0, 0
0, 1
0, 0
0, 0
0, 0
0, 0
0, 0
0, 0
0, 0
0, 0
0, 1
0, 0
0, 0
0, 0
0, 0
0, 1
0, 0
0, 0
0, 0
0, 0
0, 0
0, 0
0, 0
0, 0
0, 0
0, 0
0, 0
0, 0
0, 0
0, 0
0, 0
0, 0
0, 0
0, 0
0, 0
0, 0
0, 0
0, 0
0, 0
0, 0
0, 0
0, 0
0, 0
0, 0
0, 0
0, 0
0, 0
0, 0
0, 0
0, 0
0, 0
0, 0
0, 0
0, 0
0, 0
0, 0
0, 0
0, 0
0, 0
0, 0
0, 0
0, 0
0, 0
0, 0
0, 0
0, 0
0, 0
0, 0
0, 0
0, 0
0, 0
0, 0
0, 0
0, 0
0, 0
0, 0
0, 0
0, 0
0, 0
0, 0
0, 0
0, 0
0, 0
0, 0
0, 0
0, 0
0, 0
0, 0
0, 0
0, 0
0, 0
0, 0
0, 0
0, 0
0, 0
0, 0
0, 0
0, 0
0, 0
0, 0
0, 0
0, 0
0, 0
0, 0
#ENDOFDATA     end of spectrum data