Folder: data-repository/host_upload/02-11-2024/rqc/uplink1 (part 29)

File: ps__0567_0717304816_000rfs_shot_488.msa
#FORMAT      : EMSA/MAS spectral data file
#VERSION     : TC202v2.0 PIXL
#TITLE       : Novarupta (sol567) subset1
#DATE        : 02-11-2024      Date in the format DD-MMM-YYYY, for example 07-JUL-2010
#TIME        :             The time of day at which the spectrum was recorded, in 24-hour format
#OWNER       : PIXL Flight Model       (PIXL will use this to indicate which instrument took the data.)
#NPOINTS     : 4096     Number of data points in the spectrum (This can be zero for configuration only files)
#NCOLUMNS    : 2     Number of data columns in the spectrum (This can be zero for configuration only files)
#XUNITS      : eV
#YUNITS      : COUNTS
#DATATYPE    : YY
#XPERCHAN    : 7.862, 7.881   eV per channel (separate by commas if more than one detector)
#OFFSET      : 18.5, -22.4         eV of first channel  (separate by commas if more than one detector
#SIGNALTYPE  : XRF
#YP_TEMP     : 2.011
#LIVETIME    : 8.84311, 8.80668   seconds (separate by commas if more than one detector)
#REALTIME    : 10, 10.0   seconds (separate by commas if more than one detector)
#SPECTRUM    : start of spectrum data
0, 0
0, 0
0, 0
0, 0
0, 0
0, 0
0, 0
0, 1
4, 1
2, 8
3, 3
6, 14
9, 14
18, 27
61, 46
100, 124
443, 568
122, 116
38, 37
29, 22
49, 56
267, 378
109, 135
77, 77
203, 248
124, 118
74, 77
26, 25
7, 12
9, 16
31, 34
18, 20
16, 15
195, 289
326, 357
54, 47
34, 51
49, 68
11, 8
8, 7
21, 27
49, 66
37, 37
7, 10
15, 13
14, 22
14, 8
9, 12
14, 17
24, 34
27, 24
13, 6
10, 20
31, 36
51, 56
18, 22
17, 37
327, 496
1509, 1942
1057, 1071
119, 120
17, 17
19, 30
74, 115
253, 350
140, 135
28, 27
13, 9
12, 11
12, 8
4, 4
8, 8
8, 11
9, 9
11, 6
8, 3
7, 5
5, 7
5, 11
13, 12
5, 11
11, 8
9, 5
7, 2
4, 7
4, 6
8, 5
3, 3
4, 0
5, 5
4, 3
5, 7
4, 4
3, 2
3, 6
9, 3
3, 1
2, 5
6, 5
3, 3
1, 2
2, 3
0, 7
4, 2
3, 3
4, 0
2, 1
2, 4
5, 3
4, 1
0, 2
2, 1
0, 5
2, 4
0, 0
2, 3
7, 3
4, 0
1, 2
0, 1
2, 2
2, 3
3, 0
0, 2
2, 1
3, 4
2, 0
1, 1
1, 1
2, 0
1, 1
1, 1
0, 0
0, 1
2, 0
1, 2
0, 1
0, 1
2, 1
0, 1
1, 1
0, 3
0, 1
0, 2
1, 1
1, 0
0, 0
0, 1
0, 0
0, 1
0, 1
1, 0
1, 0
1, 0
0, 0
0, 0
1, 0
1, 0
1, 1
0, 0
0, 0
0, 0
0, 0
0, 1
0, 0
1, 1
0, 2
0, 0
0, 0
1, 0
0, 3
0, 0
0, 0
0, 0
0, 0
0, 1
0, 0
0, 0
0, 0
0, 1
1, 0
0, 0
0, 1
0, 0
0, 0
0, 0
0, 0
0, 1
0, 0
0, 0
0, 0
0, 0
2, 0
0, 1
0, 0
1, 0
0, 0
0, 0
0, 0
0, 0
0, 0
0, 0
0, 0
0, 0
0, 0
0, 1
0, 0
0, 0
0, 0
0, 0
0, 0
0, 0
0, 0
0, 0
0, 0
0, 0
0, 0
0, 0
0, 0
0, 0
0, 0
0, 0
0, 0
0, 0
0, 0
0, 0
0, 0
0, 0
0, 0
0, 0
0, 0
0, 0
0, 0
0, 0
0, 0
0, 0
0, 0
0, 0
0, 0
0, 0
0, 0
0, 0
0, 0
0, 0
0, 0
0, 0
0, 0
0, 0
0, 0
0, 0
0, 0
0, 0
0, 0
0, 0
0, 0
0, 0
0, 0
0, 0
0, 0
0, 0
0, 0
0, 0
0, 0
0, 0
0, 0
0, 0
0, 0
0, 0
0, 0
0, 0
0, 0
0, 0
0, 0
0, 0
0, 0
0, 0
0, 0
0, 0
0, 0
0, 0
0, 0
0, 0
0, 0
0, 0
0, 0
0, 0
0, 0
0, 0
0, 0
0, 0
0, 0
0, 0
0, 0
0, 0
#ENDOFDATA     end of spectrum data

File: ps__0567_0717304816_000rfs_shot_491.msa
#FORMAT      : EMSA/MAS spectral data file
#VERSION     : TC202v2.0 PIXL
#TITLE       : Novarupta (sol567) subset1
#DATE        : 02-11-2024      Date in the format DD-MMM-YYYY, for example 07-JUL-2010
#TIME        :             The time of day at which the spectrum was recorded, in 24-hour format
#OWNER       : PIXL Flight Model       (PIXL will use this to indicate which instrument took the data.)
#NPOINTS     : 4096     Number of data points in the spectrum (This can be zero for configuration only files)
#NCOLUMNS    : 2     Number of data columns in the spectrum (This can be zero for configuration only files)
#XUNITS      : eV
#YUNITS      : COUNTS
#DATATYPE    : YY
#XPERCHAN    : 7.862, 7.881   eV per channel (separate by commas if more than one detector)
#OFFSET      : 18.5, -22.4         eV of first channel  (separate by commas if more than one detector
#SIGNALTYPE  : XRF
#YP_TEMP     : 2.011
#LIVETIME    : 8.82128, 8.80832   seconds (separate by commas if more than one detector)
#REALTIME    : 10, 10.0   seconds (separate by commas if more than one detector)
#SPECTRUM    : start of spectrum data
0, 0
0, 0
0, 0
0, 0
0, 0
0, 0
0, 0
1, 1
4, 1
4, 3
2, 7
12, 11
14, 24
15, 32
48, 55
96, 116
473, 580
132, 121
31, 35
25, 26
49, 48
288, 320
114, 132
74, 90
203, 198
100, 106
70, 72
23, 26
9, 11
11, 12
35, 37
19, 11
21, 27
199, 238
324, 327
52, 71
37, 38
54, 64
12, 9
4, 15
12, 27
72, 72
31, 38
20, 21
19, 18
21, 12
12, 16
5, 11
10, 13
33, 30
24, 30
8, 6
18, 11
44, 36
45, 57
20, 19
32, 43
324, 494
1664, 1982
1133, 1088
133, 121
11, 24
15, 25
77, 114
273, 273
185, 162
30, 19
7, 9
17, 12
16, 15
8, 4
9, 6
6, 9
2, 5
3, 3
8, 5
5, 11
8, 4
6, 7
6, 10
7, 10
7, 4
4, 5
10, 7
8, 6
6, 3
3, 5
12, 9
3, 7
6, 4
4, 3
2, 4
3, 3
3, 5
3, 2
6, 3
6, 4
5, 1
1, 2
5, 2
7, 5
4, 3
1, 2
1, 2
1, 0
1, 2
3, 3
5, 1
2, 1
3, 2
2, 3
1, 2
1, 3
1, 2
1, 1
1, 0
2, 4
1, 2
2, 1
3, 1
1, 3
1, 3
2, 4
4, 1
3, 0
0, 1
2, 0
2, 1
0, 1
1, 1
1, 0
2, 1
1, 2
0, 1
0, 3
0, 1
0, 1
1, 2
0, 1
0, 0
0, 0
2, 1
1, 0
1, 1
1, 1
0, 1
1, 1
0, 0
1, 0
1, 1
0, 0
2, 1
1, 0
0, 1
1, 0
0, 0
0, 0
1, 0
0, 0
0, 0
0, 0
1, 0
0, 0
0, 0
0, 0
0, 0
0, 0
0, 0
0, 0
0, 1
0, 0
0, 0
0, 0
0, 1
0, 0
0, 0
0, 0
0, 0
0, 0
0, 0
0, 1
0, 0
0, 1
0, 0
0, 0
0, 0
0, 0
0, 0
1, 0
1, 0
0, 0
0, 0
1, 0
0, 0
0, 0
0, 0
0, 0
0, 0
0, 0
0, 0
0, 0
0, 0
0, 0
0, 0
0, 0
0, 0
0, 0
0, 0
0, 0
0, 0
0, 0
0, 0
1, 0
0, 0
0, 0
0, 0
0, 0
0, 0
0, 0
0, 0
1, 0
0, 0
0, 0
0, 0
0, 0
0, 0
0, 0
0, 0
0, 0
0, 0
0, 0
0, 0
0, 0
0, 0
0, 0
0, 0
0, 0
0, 0
0, 0
0, 0
0, 0
0, 0
0, 0
0, 0
0, 0
0, 0
0, 0
0, 0
0, 0
0, 0
0, 0
0, 0
0, 0
0, 0
0, 0
0, 0
0, 0
0, 0
0, 0
0, 0
0, 0
0, 0
0, 0
0, 0
0, 0
0, 0
0, 0
0, 0
0, 0
0, 0
0, 0
0, 0
0, 0
0, 0
0, 0
0, 0
0, 0
0, 0
0, 0
0, 0
0, 0
0, 0
0, 0
0, 0
0, 0
0, 0
0, 0
0, 0
0, 0
0, 0
0, 0
0, 0
0, 0
0, 0
#ENDOFDATA     end of spectrum data

File: ps__0567_0717304816_000rfs_shot_492.msa
#FORMAT      : EMSA/MAS spectral data file
#VERSION     : TC202v2.0 PIXL
#TITLE       : Novarupta (sol567) subset1
#DATE        : 02-11-2024      Date in the format DD-MMM-YYYY, for example 07-JUL-2010
#TIME        :             The time of day at which the spectrum was recorded, in 24-hour format
#OWNER       : PIXL Flight Model       (PIXL will use this to indicate which instrument took the data.)
#NPOINTS     : 4096     Number of data points in the spectrum (This can be zero for configuration only files)
#NCOLUMNS    : 2     Number of data columns in the spectrum (This can be zero for configuration only files)
#XUNITS      : eV
#YUNITS      : COUNTS
#DATATYPE    : YY
#XPERCHAN    : 7.862, 7.881   eV per channel (separate by commas if more than one detector)
#OFFSET      : 18.5, -22.4         eV of first channel  (separate by commas if more than one detector
#SIGNALTYPE  : XRF
#YP_TEMP     : 2.171
#LIVETIME    : 8.81287, 8.80406   seconds (separate by commas if more than one detector)
#REALTIME    : 10, 10.0   seconds (separate by commas if more than one detector)
#SPECTRUM    : start of spectrum data
0, 0
0, 0
0, 0
0, 0
0, 0
0, 0
0, 0
1, 0
5, 2
6, 4
1, 4
9, 10
8, 13
18, 22
40, 48
97, 126
479, 548
124, 111
48, 37
28, 28
56, 61
312, 349
130, 123
64, 100
209, 227
94, 111
65, 59
34, 23
3, 15
7, 15
25, 28
15, 26
20, 27
246, 237
350, 382
62, 67
35, 50
51, 51
14, 9
7, 10
21, 26
61, 65
42, 45
21, 14
20, 14
19, 23
14, 19
11, 11
11, 17
28, 31
39, 24
19, 11
17, 16
28, 35
43, 51
28, 19
32, 33
379, 467
1648, 1962
1105, 1117
123, 107
19, 15
15, 32
91, 115
283, 268
149, 177
27, 19
8, 20
8, 7
13, 10
4, 5
5, 8
7, 7
4, 9
9, 5
7, 5
2, 3
8, 7
9, 13
8, 17
5, 2
5, 3
9, 4
9, 10
5, 6
4, 6
5, 3
7, 5
5, 2
5, 6
4, 4
7, 4
0, 7
7, 7
7, 1
2, 2
2, 3
4, 4
7, 4
2, 4
3, 3
2, 2
8, 5
1, 3
2, 5
0, 6
1, 3
2, 1
2, 3
2, 2
2, 4
2, 2
2, 2
0, 6
3, 2
4, 0
3, 3
4, 2
1, 2
2, 3
2, 1
1, 0
2, 3
1, 0
2, 0
1, 1
1, 3
0, 2
0, 0
0, 1
2, 1
1, 1
0, 0
0, 0
2, 1
0, 0
1, 1
2, 0
0, 1
1, 0
0, 0
1, 1
0, 2
1, 0
1, 1
0, 0
2, 0
0, 2
1, 0
0, 1
0, 0
2, 0
0, 0
0, 0
1, 0
0, 0
0, 0
0, 1
0, 0
0, 1
0, 0
0, 1
1, 0
0, 0
0, 0
0, 0
0, 0
0, 2
0, 1
0, 0
1, 0
0, 0
0, 1
0, 1
1, 0
0, 0
0, 0
0, 0
0, 0
0, 0
0, 0
0, 0
0, 0
0, 0
0, 0
0, 0
0, 0
0, 0
0, 0
0, 0
0, 0
0, 0
0, 0
0, 0
0, 0
0, 0
0, 0
0, 0
0, 0
0, 0
0, 0
0, 0
0, 0
0, 0
0, 0
0, 0
0, 0
0, 0
0, 0
0, 0
0, 0
0, 0
0, 0
0, 0
0, 0
0, 0
0, 0
0, 0
0, 0
0, 0
0, 0
0, 0
0, 0
0, 0
0, 0
0, 0
0, 0
0, 0
0, 0
0, 0
0, 0
0, 0
0, 0
0, 0
0, 0
0, 0
0, 0
0, 0
0, 0
0, 0
0, 0
0, 0
0, 0
0, 0
0, 0
0, 0
0, 0
0, 0
0, 0
0, 0
0, 0
0, 0
0, 0
0, 0
0, 0
0, 0
0, 0
0, 0
0, 0
0, 0
0, 0
0, 0
0, 0
0, 0
0, 0
0, 0
0, 0
0, 0
0, 0
0, 0
0, 0
0, 0
0, 0
0, 0
0, 0
0, 0
0, 0
0, 0
0, 0
0, 0
0, 0
0, 0
0, 0
0, 0
0, 0
0, 0
0, 0
0, 0
0, 0
0, 0
0, 0
0, 0
0, 0
0, 0
#ENDOFDATA     end of spectrum data

File: ps__0567_0717304816_000rfs_shot_494.msa
#FORMAT      : EMSA/MAS spectral data file
#VERSION     : TC202v2.0 PIXL
#TITLE       : Novarupta (sol567) subset1
#DATE        : 02-11-2024      Date in the format DD-MMM-YYYY, for example 07-JUL-2010
#TIME        :             The time of day at which the spectrum was recorded, in 24-hour format
#OWNER       : PIXL Flight Model       (PIXL will use this to indicate which instrument took the data.)
#NPOINTS     : 4096     Number of data points in the spectrum (This can be zero for configuration only files)
#NCOLUMNS    : 2     Number of data columns in the spectrum (This can be zero for configuration only files)
#XUNITS      : eV
#YUNITS      : COUNTS
#DATATYPE    : YY
#XPERCHAN    : 7.862, 7.881   eV per channel (separate by commas if more than one detector)
#OFFSET      : 18.5, -22.4         eV of first channel  (separate by commas if more than one detector
#SIGNALTYPE  : XRF
#YP_TEMP     : 2.267
#LIVETIME    : 8.8334, 8.808   seconds (separate by commas if more than one detector)
#REALTIME    : 10, 10.0   seconds (separate by commas if more than one detector)
#SPECTRUM    : start of spectrum data
0, 0
0, 0
0, 0
0, 0
0, 0
0, 0
0, 0
0, 1
2, 3
4, 2
2, 1
6, 11
19, 15
24, 32
49, 49
102, 109
442, 572
122, 132
27, 37
33, 27
52, 63
308, 353
119, 132
60, 82
234, 230
124, 115
78, 70
37, 27
7, 11
12, 8
25, 31
21, 32
12, 12
215, 295
322, 370
51, 56
38, 58
69, 65
9, 11
10, 12
19, 26
47, 60
31, 37
17, 15
10, 12
24, 27
11, 19
6, 11
15, 15
29, 27
18, 29
12, 11
13, 13
24, 47
47, 51
28, 21
32, 27
358, 489
1653, 1915
1112, 1079
127, 90
13, 22
20, 17
85, 113
250, 295
163, 156
27, 24
8, 14
10, 8
10, 10
4, 5
8, 11
3, 7
4, 9
6, 12
9, 10
7, 10
7, 4
17, 13
13, 11
8, 5
7, 4
8, 6
5, 10
7, 5
4, 4
6, 5
2, 9
5, 4
8, 4
6, 5
4, 9
2, 3
0, 2
8, 6
2, 8
1, 3
2, 3
4, 3
2, 2
3, 3
2, 2
0, 2
2, 3
3, 6
0, 0
2, 1
0, 2
1, 4
6, 1
2, 4
2, 5
3, 0
4, 0
3, 0
2, 3
2, 4
4, 2
2, 1
1, 1
1, 2
1, 2
3, 5
2, 1
0, 2
0, 2
0, 3
2, 1
2, 0
1, 0
3, 0
0, 0
0, 1
1, 2
2, 4
0, 0
0, 2
2, 2
1, 1
0, 0
2, 1
1, 2
0, 0
3, 0
0, 0
1, 0
0, 0
0, 0
0, 0
0, 0
0, 1
0, 1
0, 0
1, 1
0, 0
0, 0
0, 0
0, 0
0, 1
0, 0
0, 0
0, 0
0, 0
0, 0
0, 0
0, 0
0, 1
1, 0
0, 0
0, 0
0, 1
0, 2
0, 0
0, 1
0, 0
0, 0
0, 0
0, 0
0, 2
0, 0
0, 1
0, 0
0, 0
0, 0
0, 0
0, 0
0, 0
0, 0
0, 0
0, 0
0, 0
0, 0
0, 0
0, 0
0, 0
0, 0
0, 0
0, 1
0, 0
0, 0
0, 0
0, 0
0, 0
0, 0
0, 0
0, 0
0, 0
0, 0
0, 0
0, 0
0, 0
0, 0
0, 0
0, 0
0, 0
0, 0
0, 0
0, 0
0, 0
0, 0
0, 0
0, 0
0, 0
0, 0
0, 0
1, 0
0, 0
0, 0
0, 0
0, 0
0, 0
0, 0
0, 0
0, 0
0, 0
0, 0
0, 0
0, 0
0, 0
0, 0
0, 0
0, 0
0, 0
0, 0
0, 0
0, 0
0, 0
0, 0
0, 0
0, 0
0, 0
0, 0
0, 0
0, 0
0, 0
0, 0
0, 0
0, 0
0, 0
0, 0
0, 0
0, 0
0, 0
0, 0
0, 0
0, 0
0, 0
0, 0
0, 0
0, 0
0, 0
0, 0
0, 0
0, 0
0, 0
0, 0
0, 0
0, 0
0, 0
0, 0
0, 0
0, 0
0, 0
0, 0
0, 0
0, 0
0, 0
0, 0
0, 0
0, 0
0, 0
0, 0
0, 0
0, 0
#ENDOFDATA     end of spectrum data

File: ps__0567_0717304816_000rfs_shot_498.msa
#FORMAT      : EMSA/MAS spectral data file
#VERSION     : TC202v2.0 PIXL
#TITLE       : Novarupta (sol567) subset1
#DATE        : 02-11-2024      Date in the format DD-MMM-YYYY, for example 07-JUL-2010
#TIME        :             The time of day at which the spectrum was recorded, in 24-hour format
#OWNER       : PIXL Flight Model       (PIXL will use this to indicate which instrument took the data.)
#NPOINTS     : 4096     Number of data points in the spectrum (This can be zero for configuration only files)
#NCOLUMNS    : 2     Number of data columns in the spectrum (This can be zero for configuration only files)
#XUNITS      : eV
#YUNITS      : COUNTS
#DATATYPE    : YY
#XPERCHAN    : 7.862, 7.881   eV per channel (separate by commas if more than one detector)
#OFFSET      : 18.5, -22.4         eV of first channel  (separate by commas if more than one detector
#SIGNALTYPE  : XRF
#YP_TEMP     : 1.947
#LIVETIME    : 8.82069, 8.80729   seconds (separate by commas if more than one detector)
#REALTIME    : 10, 10.0   seconds (separate by commas if more than one detector)
#SPECTRUM    : start of spectrum data
0, 0
0, 0
0, 0
0, 0
0, 0
0, 0
0, 0
0, 1
3, 3
1, 4
7, 2
10, 5
21, 10
19, 27
35, 65
116, 129
507, 559
139, 129
39, 27
17, 26
47, 64
310, 342
122, 144
62, 87
224, 235
119, 130
66, 74
29, 21
17, 14
5, 10
26, 32
13, 24
29, 14
236, 252
359, 361
41, 60
34, 51
47, 62
18, 13
12, 9
22, 29
51, 62
35, 41
20, 15
9, 19
20, 22
10, 14
14, 19
15, 12
25, 38
29, 22
18, 12
13, 6
33, 35
46, 52
19, 20
27, 46
340, 469
1630, 1866
1078, 1078
127, 117
16, 13
18, 20
69, 102
294, 263
171, 156
27, 17
11, 9
10, 12
11, 12
3, 5
8, 7
9, 6
5, 11
7, 15
5, 9
7, 6
8, 8
11, 6
11, 13
4, 7
2, 8
14, 7
6, 2
8, 5
5, 4
7, 4
5, 6
8, 7
3, 1
2, 4
5, 4
5, 5
2, 3
3, 3
4, 6
2, 2
2, 5
2, 3
3, 5
1, 6
5, 4
2, 1
1, 3
0, 5
2, 2
3, 0
4, 2
1, 4
2, 4
1, 1
3, 3
2, 3
2, 2
1, 3
5, 1
1, 5
1, 1
1, 3
4, 0
1, 3
1, 2
4, 0
1, 4
0, 0
1, 0
1, 2
1, 2
1, 2
3, 0
1, 0
0, 2
0, 1
0, 1
2, 0
0, 0
0, 2
0, 1
1, 0
0, 0
1, 2
2, 1
0, 1
1, 0
0, 0
2, 0
0, 0
0, 0
0, 1
1, 0
0, 0
1, 0
0, 1
0, 0
0, 0
1, 1
0, 1
0, 0
0, 0
0, 1
1, 1
0, 1
0, 0
1, 0
0, 0
0, 0
0, 0
0, 0
1, 1
0, 0
0, 0
0, 2
1, 0
0, 0
0, 1
0, 0
0, 0
0, 0
0, 0
0, 0
0, 0
0, 0
0, 0
0, 0
1, 0
0, 0
0, 0
0, 0
0, 0
0, 0
0, 0
0, 0
0, 0
0, 0
0, 0
0, 0
1, 0
0, 0
0, 0
0, 0
0, 0
0, 0
0, 0
0, 0
0, 0
0, 0
0, 0
0, 0
0, 0
0, 0
0, 0
0, 0
0, 0
0, 0
0, 0
0, 0
0, 0
0, 0
0, 0
0, 0
0, 0
0, 0
0, 0
0, 0
0, 0
0, 0
0, 0
0, 0
0, 0
0, 0
0, 0
0, 0
0, 0
0, 0
0, 0
0, 0
0, 0
0, 0
0, 0
0, 0
0, 0
0, 0
0, 0
0, 0
0, 0
0, 0
0, 0
0, 0
0, 0
0, 0
0, 0
0, 0
0, 0
0, 0
0, 0
0, 0
0, 0
0, 0
0, 0
0, 0
0, 0
0, 0
0, 0
0, 0
0, 0
0, 0
0, 0
0, 0
0, 0
0, 0
0, 0
0, 0
0, 0
0, 0
0, 0
0, 0
0, 0
0, 0
0, 0
0, 0
0, 0
0, 0
0, 0
0, 0
0, 0
0, 0
0, 0
0, 0
0, 0
0, 0
0, 0
0, 0
0, 0
0, 0
#ENDOFDATA     end of spectrum data

File: ps__0567_0717304816_000rfs_shot_499.msa
#FORMAT      : EMSA/MAS spectral data file
#VERSION     : TC202v2.0 PIXL
#TITLE       : Novarupta (sol567) subset1
#DATE        : 02-11-2024      Date in the format DD-MMM-YYYY, for example 07-JUL-2010
#TIME        :             The time of day at which the spectrum was recorded, in 24-hour format
#OWNER       : PIXL Flight Model       (PIXL will use this to indicate which instrument took the data.)
#NPOINTS     : 4096     Number of data points in the spectrum (This can be zero for configuration only files)
#NCOLUMNS    : 2     Number of data columns in the spectrum (This can be zero for configuration only files)
#XUNITS      : eV
#YUNITS      : COUNTS
#DATATYPE    : YY
#XPERCHAN    : 7.862, 7.881   eV per channel (separate by commas if more than one detector)
#OFFSET      : 18.5, -22.4         eV of first channel  (separate by commas if more than one detector
#SIGNALTYPE  : XRF
#YP_TEMP     : 1.979
#LIVETIME    : 8.82132, 8.81225   seconds (separate by commas if more than one detector)
#REALTIME    : 10, 10.0   seconds (separate by commas if more than one detector)
#SPECTRUM    : start of spectrum data
0, 0
0, 0
0, 0
0, 0
0, 0
0, 0
0, 0
0, 2
5, 0
1, 3
2, 4
8, 19
13, 17
22, 24
39, 47
111, 129
506, 570
138, 119
27, 36
26, 29
49, 52
313, 297
140, 116
58, 72
221, 267
113, 113
73, 71
30, 30
9, 9
4, 14
22, 29
21, 18
16, 23
194, 268
331, 373
48, 50
46, 51
61, 63
15, 14
7, 15
17, 22
64, 65
26, 23
15, 17
15, 15
27, 22
15, 8
8, 19
13, 24
24, 28
21, 27
12, 17
8, 9
40, 36
53, 47
25, 21
34, 34
377, 444
1593, 2014
1138, 1044
133, 101
18, 24
30, 34
87, 103
277, 294
149, 168
24, 22
5, 8
14, 10
12, 5
8, 4
6, 3
7, 7
2, 9
11, 9
5, 3
12, 7
11, 9
11, 8
7, 14
5, 8
1, 6
3, 5
2, 7
5, 8
7, 10
4, 5
6, 9
7, 4
5, 2
6, 6
2, 5
3, 5
4, 3
2, 0
11, 3
4, 7
4, 5
4, 1
5, 1
3, 4
5, 0
2, 2
3, 3
2, 2
2, 5
1, 2
2, 3
3, 3
2, 2
6, 5
4, 2
1, 1
1, 2
2, 3
2, 2
2, 6
3, 3
6, 3
3, 2
2, 2
1, 4
1, 1
2, 3
1, 1
0, 0
1, 1
4, 2
0, 1
1, 0
2, 1
0, 1
0, 2
0, 0
2, 1
0, 0
0, 0
1, 0
0, 2
1, 0
0, 1
0, 1
0, 0
0, 0
3, 2
1, 1
1, 1
0, 0
3, 0
1, 0
2, 0
0, 0
0, 0
0, 0
1, 1
0, 0
0, 0
0, 0
0, 0
1, 0
0, 0
0, 0
0, 1
0, 1
0, 0
1, 0
0, 1
0, 0
0, 1
0, 0
0, 0
0, 0
0, 0
1, 1
1, 1
0, 0
0, 0
0, 0
0, 0
0, 0
0, 0
0, 0
1, 0
0, 1
0, 0
0, 0
0, 0
0, 0
0, 0
1, 0
0, 0
0, 0
1, 1
0, 1
0, 0
0, 1
0, 0
0, 0
0, 0
1, 0
0, 0
0, 0
0, 0
0, 0
0, 0
0, 0
0, 0
0, 0
0, 1
0, 0
0, 0
0, 1
0, 0
0, 0
0, 0
0, 0
0, 0
0, 0
0, 0
0, 0
0, 0
0, 0
0, 0
0, 0
0, 0
0, 0
0, 0
0, 0
0, 0
0, 0
0, 0
0, 0
0, 0
0, 0
0, 0
0, 0
0, 0
0, 0
0, 0
0, 0
0, 0
0, 0
0, 0
0, 0
0, 0
0, 0
0, 0
0, 0
0, 0
0, 0
0, 0
0, 0
0, 0
0, 0
0, 0
0, 0
0, 0
0, 0
0, 0
0, 0
0, 0
0, 0
0, 0
0, 0
0, 0
0, 0
0, 0
0, 0
0, 0
0, 0
0, 0
0, 0
0, 0
0, 0
0, 0
0, 0
0, 0
0, 0
0, 0
0, 0
0, 0
0, 0
0, 0
0, 0
0, 0
0, 0
0, 0
0, 0
0, 0
0, 0
0, 0
0, 0
0, 0
0, 0
#ENDOFDATA     end of spectrum data