Folder: data-repository/host_upload/02-11-2024/rqc/uplink1 (part 11)

File: ps__0567_0717304816_000rfs_shot_165.msa
#FORMAT      : EMSA/MAS spectral data file
#VERSION     : TC202v2.0 PIXL
#TITLE       : Novarupta (sol567) subset1
#DATE        : 02-11-2024      Date in the format DD-MMM-YYYY, for example 07-JUL-2010
#TIME        :             The time of day at which the spectrum was recorded, in 24-hour format
#OWNER       : PIXL Flight Model       (PIXL will use this to indicate which instrument took the data.)
#NPOINTS     : 4096     Number of data points in the spectrum (This can be zero for configuration only files)
#NCOLUMNS    : 2     Number of data columns in the spectrum (This can be zero for configuration only files)
#XUNITS      : eV
#YUNITS      : COUNTS
#DATATYPE    : YY
#XPERCHAN    : 7.862, 7.881   eV per channel (separate by commas if more than one detector)
#OFFSET      : 18.5, -22.4         eV of first channel  (separate by commas if more than one detector
#SIGNALTYPE  : XRF
#YP_TEMP     : 0.215
#LIVETIME    : 8.82729, 8.80689   seconds (separate by commas if more than one detector)
#REALTIME    : 10, 10.0   seconds (separate by commas if more than one detector)
#SPECTRUM    : start of spectrum data
0, 0
0, 0
0, 0
0, 0
0, 0
0, 0
0, 0
0, 2
0, 1
1, 6
0, 3
12, 9
20, 11
20, 25
43, 48
126, 126
512, 532
124, 118
33, 34
29, 23
67, 50
291, 337
115, 121
66, 86
235, 234
132, 121
74, 72
28, 37
9, 11
8, 13
27, 28
17, 20
26, 23
202, 237
325, 347
65, 50
48, 57
50, 40
8, 12
13, 9
24, 31
52, 54
29, 39
12, 14
12, 17
22, 16
8, 11
14, 15
11, 15
33, 41
25, 23
16, 9
21, 7
45, 39
50, 54
24, 28
33, 32
390, 503
1623, 1814
1084, 974
116, 104
12, 21
24, 21
90, 117
247, 284
138, 160
23, 20
9, 8
14, 13
11, 6
6, 6
4, 6
6, 6
8, 4
9, 6
6, 3
11, 9
10, 9
6, 9
6, 9
11, 11
5, 5
3, 0
7, 11
5, 6
6, 10
7, 7
6, 5
4, 3
4, 4
0, 4
5, 3
4, 3
5, 7
2, 2
3, 4
0, 7
5, 4
1, 4
4, 4
4, 4
4, 5
2, 3
3, 2
3, 4
3, 0
4, 5
2, 1
3, 1
3, 3
2, 3
2, 1
1, 1
0, 3
1, 1
1, 1
3, 6
3, 2
1, 2
0, 4
1, 1
0, 0
2, 1
1, 2
1, 3
1, 2
0, 1
1, 0
2, 1
0, 2
1, 1
1, 2
0, 0
0, 0
1, 1
2, 1
0, 3
0, 1
3, 1
0, 0
1, 1
1, 0
2, 0
0, 0
0, 0
1, 0
0, 0
0, 1
0, 0
1, 0
1, 0
1, 0
1, 0
0, 1
0, 1
0, 0
1, 0
1, 0
0, 1
1, 0
0, 0
1, 0
0, 0
0, 0
0, 1
0, 0
0, 0
1, 0
1, 1
0, 0
1, 0
1, 0
0, 0
1, 0
0, 0
0, 0
0, 0
0, 0
0, 0
0, 0
0, 0
0, 0
0, 1
0, 1
0, 0
0, 1
0, 0
0, 0
0, 0
0, 0
0, 0
0, 0
0, 0
0, 0
0, 0
0, 0
0, 0
0, 0
0, 0
0, 0
0, 0
0, 0
0, 0
0, 0
0, 0
0, 0
0, 0
0, 0
0, 0
0, 0
0, 0
0, 0
0, 0
0, 0
0, 0
0, 0
0, 0
0, 0
0, 0
0, 0
0, 0
0, 0
0, 0
1, 0
0, 0
0, 0
0, 0
0, 0
0, 0
0, 0
0, 0
0, 0
0, 0
0, 0
0, 0
0, 0
0, 0
0, 0
0, 0
0, 0
0, 0
0, 0
0, 0
0, 0
0, 0
0, 0
0, 0
0, 0
0, 0
0, 0
0, 0
0, 0
0, 0
0, 0
0, 0
0, 0
0, 0
0, 0
0, 0
0, 0
0, 0
0, 0
0, 0
0, 0
0, 0
0, 0
0, 0
0, 0
0, 0
0, 0
0, 0
0, 0
0, 0
0, 0
0, 0
0, 0
0, 0
0, 0
0, 0
0, 0
0, 0
0, 0
0, 0
0, 0
0, 0
0, 0
0, 0
0, 0
0, 0
0, 0
0, 0
0, 0
0, 0
0, 0
#ENDOFDATA     end of spectrum data

File: ps__0567_0717304816_000rfs_shot_166.msa
#FORMAT      : EMSA/MAS spectral data file
#VERSION     : TC202v2.0 PIXL
#TITLE       : Novarupta (sol567) subset1
#DATE        : 02-11-2024      Date in the format DD-MMM-YYYY, for example 07-JUL-2010
#TIME        :             The time of day at which the spectrum was recorded, in 24-hour format
#OWNER       : PIXL Flight Model       (PIXL will use this to indicate which instrument took the data.)
#NPOINTS     : 4096     Number of data points in the spectrum (This can be zero for configuration only files)
#NCOLUMNS    : 2     Number of data columns in the spectrum (This can be zero for configuration only files)
#XUNITS      : eV
#YUNITS      : COUNTS
#DATATYPE    : YY
#XPERCHAN    : 7.862, 7.881   eV per channel (separate by commas if more than one detector)
#OFFSET      : 18.5, -22.4         eV of first channel  (separate by commas if more than one detector
#SIGNALTYPE  : XRF
#YP_TEMP     : 0.119
#LIVETIME    : 8.83188, 8.82523   seconds (separate by commas if more than one detector)
#REALTIME    : 10, 10.0   seconds (separate by commas if more than one detector)
#SPECTRUM    : start of spectrum data
0, 0
0, 0
0, 0
0, 0
0, 0
0, 0
0, 0
0, 2
4, 3
2, 1
3, 9
11, 7
13, 18
29, 24
45, 53
91, 104
486, 525
103, 116
29, 31
29, 17
54, 50
277, 296
122, 126
83, 79
259, 286
143, 124
80, 71
34, 25
10, 7
9, 11
22, 27
10, 23
28, 25
247, 220
334, 331
62, 50
42, 44
55, 62
11, 9
6, 7
21, 37
57, 79
46, 32
9, 14
14, 16
20, 20
8, 12
12, 8
13, 14
23, 33
25, 21
15, 20
15, 10
33, 46
50, 47
25, 13
35, 33
390, 521
1655, 1803
1079, 938
123, 106
18, 13
20, 24
91, 111
284, 278
166, 129
21, 13
10, 13
4, 15
10, 11
4, 10
4, 12
4, 9
8, 4
8, 9
12, 12
7, 13
6, 7
9, 8
8, 9
11, 6
6, 5
6, 7
4, 9
7, 5
4, 6
9, 5
3, 9
2, 7
6, 4
6, 4
7, 2
2, 3
3, 2
6, 4
5, 3
4, 1
2, 3
1, 3
6, 3
1, 2
1, 8
3, 3
6, 1
0, 3
4, 1
5, 2
1, 3
4, 1
2, 4
1, 0
2, 2
1, 1
1, 4
0, 3
2, 2
3, 11
3, 2
1, 1
1, 1
0, 1
0, 1
0, 1
1, 0
4, 3
2, 1
0, 1
0, 2
2, 1
2, 3
0, 2
0, 3
2, 1
2, 0
1, 2
0, 1
1, 1
0, 0
0, 1
0, 0
0, 1
1, 2
0, 1
0, 0
2, 0
0, 1
1, 1
0, 0
0, 2
0, 0
0, 0
0, 0
0, 0
0, 1
0, 0
0, 1
1, 0
1, 0
1, 0
0, 0
1, 0
1, 0
0, 0
0, 0
0, 0
0, 1
0, 3
0, 0
1, 1
0, 0
1, 0
0, 0
1, 0
0, 0
0, 0
0, 0
0, 0
0, 0
0, 0
0, 0
0, 0
0, 0
0, 0
1, 1
0, 1
1, 0
0, 0
0, 0
0, 0
0, 0
0, 1
0, 0
0, 0
0, 0
0, 0
1, 0
1, 0
0, 0
0, 0
0, 0
0, 0
0, 0
0, 0
0, 0
0, 0
0, 0
0, 0
0, 0
0, 0
0, 0
0, 0
0, 0
0, 0
0, 0
0, 0
0, 0
0, 0
0, 0
0, 0
0, 0
0, 0
0, 0
0, 0
0, 0
0, 0
0, 0
0, 0
0, 0
0, 0
0, 0
0, 0
0, 0
0, 0
0, 0
0, 0
0, 0
0, 0
0, 0
0, 0
0, 0
0, 0
0, 0
0, 0
0, 0
0, 0
0, 0
0, 0
0, 0
0, 0
0, 0
0, 0
0, 0
0, 0
0, 0
0, 0
0, 0
0, 0
0, 0
0, 0
0, 0
0, 0
0, 0
0, 0
0, 0
0, 0
0, 0
0, 0
0, 0
0, 0
0, 0
0, 0
0, 0
0, 0
0, 0
0, 0
0, 0
0, 0
0, 0
0, 0
0, 0
0, 0
0, 0
0, 0
0, 0
0, 0
0, 0
0, 0
0, 0
0, 0
0, 0
0, 0
0, 0
0, 0
0, 0
#ENDOFDATA     end of spectrum data

File: ps__0567_0717304816_000rfs_shot_169.msa
#FORMAT      : EMSA/MAS spectral data file
#VERSION     : TC202v2.0 PIXL
#TITLE       : Novarupta (sol567) subset1
#DATE        : 02-11-2024      Date in the format DD-MMM-YYYY, for example 07-JUL-2010
#TIME        :             The time of day at which the spectrum was recorded, in 24-hour format
#OWNER       : PIXL Flight Model       (PIXL will use this to indicate which instrument took the data.)
#NPOINTS     : 4096     Number of data points in the spectrum (This can be zero for configuration only files)
#NCOLUMNS    : 2     Number of data columns in the spectrum (This can be zero for configuration only files)
#XUNITS      : eV
#YUNITS      : COUNTS
#DATATYPE    : YY
#XPERCHAN    : 7.862, 7.881   eV per channel (separate by commas if more than one detector)
#OFFSET      : 18.5, -22.4         eV of first channel  (separate by commas if more than one detector
#SIGNALTYPE  : XRF
#YP_TEMP     : 0.215
#LIVETIME    : 8.82344, 8.81209   seconds (separate by commas if more than one detector)
#REALTIME    : 10, 10.0   seconds (separate by commas if more than one detector)
#SPECTRUM    : start of spectrum data
0, 0
0, 0
0, 0
0, 0
0, 0
0, 0
0, 0
0, 1
3, 6
5, 3
2, 2
8, 13
12, 20
20, 25
41, 40
101, 127
490, 500
122, 111
36, 31
18, 27
56, 56
307, 328
102, 126
61, 89
226, 281
122, 101
77, 64
27, 24
13, 9
10, 5
24, 26
14, 19
25, 20
178, 240
295, 376
55, 53
41, 49
45, 43
15, 12
15, 9
18, 38
62, 78
41, 33
16, 15
18, 16
18, 16
7, 16
9, 11
14, 18
21, 32
21, 30
8, 7
13, 16
41, 47
41, 52
11, 25
33, 36
391, 499
1636, 1853
1013, 987
105, 101
18, 15
21, 27
80, 116
285, 281
172, 144
25, 13
7, 8
19, 10
9, 7
8, 7
9, 2
6, 2
5, 2
8, 8
5, 7
5, 3
11, 7
3, 12
14, 13
8, 10
3, 9
3, 7
3, 6
5, 4
3, 4
7, 4
1, 4
4, 6
2, 9
4, 7
7, 3
5, 4
6, 5
1, 3
5, 2
2, 3
7, 5
1, 4
2, 2
6, 4
3, 5
2, 1
4, 3
7, 4
2, 4
5, 0
1, 1
3, 0
2, 5
3, 3
0, 4
2, 2
1, 1
2, 4
2, 1
2, 3
2, 4
2, 2
1, 3
1, 3
3, 0
1, 3
0, 0
2, 2
0, 1
1, 0
0, 2
1, 2
0, 2
1, 0
0, 3
2, 0
0, 1
0, 2
1, 1
0, 2
1, 1
0, 1
0, 0
0, 0
0, 1
0, 0
0, 0
1, 1
1, 1
1, 1
1, 0
1, 0
0, 0
0, 0
0, 0
0, 0
0, 2
1, 0
0, 0
0, 0
1, 1
0, 0
0, 0
0, 0
1, 1
0, 0
0, 0
0, 0
0, 0
0, 0
1, 0
0, 1
0, 0
0, 1
0, 0
0, 0
0, 0
0, 0
0, 0
0, 0
0, 0
0, 0
0, 0
0, 0
0, 0
1, 0
1, 0
0, 0
0, 0
0, 0
0, 0
0, 0
0, 0
0, 0
0, 0
0, 0
0, 0
0, 0
0, 0
0, 0
0, 0
1, 0
0, 0
0, 0
0, 0
0, 0
0, 0
0, 0
0, 0
0, 0
0, 1
0, 0
0, 0
0, 0
0, 0
0, 0
0, 0
0, 0
0, 0
0, 0
0, 0
0, 0
0, 0
0, 0
0, 0
0, 0
0, 0
0, 0
0, 0
0, 0
0, 0
0, 0
0, 0
0, 0
0, 0
0, 0
0, 0
0, 0
0, 0
0, 0
0, 0
0, 0
0, 0
0, 0
0, 0
0, 0
0, 0
0, 0
0, 0
0, 0
0, 0
0, 0
0, 0
0, 0
0, 0
0, 0
0, 0
0, 0
0, 0
0, 0
0, 0
0, 0
0, 0
0, 0
0, 0
0, 0
0, 0
0, 0
0, 0
0, 0
0, 0
0, 0
0, 0
0, 0
0, 0
0, 0
0, 0
0, 0
0, 0
0, 0
0, 0
0, 0
0, 0
0, 0
0, 0
0, 0
0, 0
0, 0
0, 0
0, 0
0, 0
0, 0
0, 0
0, 0
0, 0
0, 0
0, 0
#ENDOFDATA     end of spectrum data

File: ps__0567_0717304816_000rfs_shot_170.msa
#FORMAT      : EMSA/MAS spectral data file
#VERSION     : TC202v2.0 PIXL
#TITLE       : Novarupta (sol567) subset1
#DATE        : 02-11-2024      Date in the format DD-MMM-YYYY, for example 07-JUL-2010
#TIME        :             The time of day at which the spectrum was recorded, in 24-hour format
#OWNER       : PIXL Flight Model       (PIXL will use this to indicate which instrument took the data.)
#NPOINTS     : 4096     Number of data points in the spectrum (This can be zero for configuration only files)
#NCOLUMNS    : 2     Number of data columns in the spectrum (This can be zero for configuration only files)
#XUNITS      : eV
#YUNITS      : COUNTS
#DATATYPE    : YY
#XPERCHAN    : 7.862, 7.881   eV per channel (separate by commas if more than one detector)
#OFFSET      : 18.5, -22.4         eV of first channel  (separate by commas if more than one detector
#SIGNALTYPE  : XRF
#YP_TEMP     : 0.279
#LIVETIME    : 8.83096, 8.81141   seconds (separate by commas if more than one detector)
#REALTIME    : 10, 10.0   seconds (separate by commas if more than one detector)
#SPECTRUM    : start of spectrum data
0, 0
0, 0
0, 0
0, 0
0, 0
0, 0
0, 0
0, 3
3, 3
5, 3
6, 4
12, 10
18, 11
19, 21
52, 43
95, 122
445, 530
138, 109
22, 29
18, 16
50, 69
310, 342
117, 115
82, 93
240, 275
99, 112
74, 64
32, 14
9, 8
13, 6
25, 32
22, 17
30, 22
222, 245
326, 363
46, 51
43, 47
45, 62
11, 7
8, 12
16, 24
52, 59
27, 39
19, 21
13, 13
19, 24
7, 17
10, 9
10, 21
27, 37
23, 42
17, 20
14, 10
32, 31
53, 45
17, 24
37, 38
376, 516
1631, 1876
1083, 1030
110, 105
20, 13
32, 24
108, 104
247, 274
162, 141
22, 17
8, 6
17, 17
9, 14
4, 3
7, 5
4, 4
8, 6
10, 5
6, 7
11, 6
10, 6
9, 11
10, 11
8, 10
5, 10
6, 10
4, 7
8, 7
6, 6
4, 6
8, 5
7, 3
4, 3
3, 8
9, 3
4, 4
4, 4
8, 7
4, 3
2, 1
3, 5
4, 5
3, 1
2, 0
2, 0
2, 1
2, 2
4, 2
1, 2
2, 1
2, 4
5, 1
5, 4
0, 4
3, 4
3, 1
0, 2
1, 3
3, 5
5, 3
3, 2
3, 2
1, 2
3, 0
0, 0
1, 3
1, 1
2, 2
0, 3
0, 0
1, 2
1, 1
3, 1
2, 1
0, 0
1, 1
3, 1
0, 0
2, 0
2, 1
2, 1
1, 0
1, 0
0, 0
1, 0
0, 1
2, 2
0, 0
0, 0
0, 0
1, 0
0, 1
0, 0
0, 0
1, 1
0, 0
0, 0
0, 0
2, 1
1, 0
1, 0
0, 0
1, 0
1, 0
0, 0
0, 0
0, 0
2, 1
1, 0
0, 1
0, 0
1, 0
0, 0
0, 0
0, 0
0, 0
0, 0
0, 1
0, 0
0, 0
0, 0
0, 0
0, 0
0, 1
1, 0
0, 0
2, 0
0, 0
0, 0
1, 0
0, 0
0, 0
0, 0
0, 0
0, 0
0, 0
0, 0
0, 1
0, 0
0, 0
0, 0
0, 0
0, 1
0, 0
0, 0
0, 0
0, 0
0, 0
0, 0
0, 0
0, 0
0, 0
0, 0
1, 0
0, 0
0, 0
0, 0
0, 0
0, 0
0, 0
0, 0
0, 0
0, 0
0, 0
0, 0
0, 0
0, 0
0, 0
0, 0
0, 0
0, 0
0, 0
0, 0
0, 0
0, 0
0, 0
0, 0
0, 0
0, 0
0, 0
0, 0
0, 0
0, 0
0, 0
0, 0
0, 0
0, 0
0, 0
0, 0
0, 0
0, 0
0, 0
0, 0
0, 0
0, 0
0, 0
0, 0
0, 0
0, 0
0, 0
0, 0
0, 0
0, 0
0, 0
0, 0
0, 0
0, 0
0, 0
0, 0
0, 0
0, 0
0, 0
0, 0
0, 0
0, 0
0, 0
0, 0
0, 0
0, 0
0, 0
0, 0
0, 0
0, 0
0, 0
0, 0
0, 0
0, 0
0, 0
0, 0
0, 0
0, 0
0, 0
0, 0
0, 0
0, 0
0, 0
0, 0
#ENDOFDATA     end of spectrum data

File: ps__0567_0717304816_000rfs_shot_172.msa
#FORMAT      : EMSA/MAS spectral data file
#VERSION     : TC202v2.0 PIXL
#TITLE       : Novarupta (sol567) subset1
#DATE        : 02-11-2024      Date in the format DD-MMM-YYYY, for example 07-JUL-2010
#TIME        :             The time of day at which the spectrum was recorded, in 24-hour format
#OWNER       : PIXL Flight Model       (PIXL will use this to indicate which instrument took the data.)
#NPOINTS     : 4096     Number of data points in the spectrum (This can be zero for configuration only files)
#NCOLUMNS    : 2     Number of data columns in the spectrum (This can be zero for configuration only files)
#XUNITS      : eV
#YUNITS      : COUNTS
#DATATYPE    : YY
#XPERCHAN    : 7.862, 7.881   eV per channel (separate by commas if more than one detector)
#OFFSET      : 18.5, -22.4         eV of first channel  (separate by commas if more than one detector
#SIGNALTYPE  : XRF
#YP_TEMP     : 0.215
#LIVETIME    : 8.83345, 8.81494   seconds (separate by commas if more than one detector)
#REALTIME    : 10, 10.0   seconds (separate by commas if more than one detector)
#SPECTRUM    : start of spectrum data
0, 0
0, 0
0, 0
0, 0
0, 0
0, 0
0, 0
2, 1
1, 3
3, 6
4, 4
13, 8
6, 16
18, 21
28, 45
116, 130
485, 556
120, 128
28, 34
29, 29
46, 67
311, 332
119, 135
71, 75
234, 268
107, 107
64, 57
23, 31
12, 8
12, 14
37, 33
16, 21
19, 22
231, 271
344, 343
56, 44
41, 44
49, 54
15, 10
7, 7
20, 35
55, 60
34, 37
11, 7
10, 10
20, 22
13, 13
7, 12
12, 15
23, 30
28, 29
11, 8
7, 19
21, 37
34, 64
22, 25
33, 36
363, 513
1623, 1904
1054, 1043
113, 103
18, 14
16, 27
104, 91
238, 295
163, 136
23, 24
8, 9
8, 4
13, 7
3, 6
7, 4
3, 5
2, 4
6, 9
6, 7
6, 7
3, 9
14, 11
8, 14
2, 6
10, 5
4, 10
5, 4
5, 2
7, 6
5, 3
5, 5
8, 5
5, 3
6, 6
7, 6
4, 6
6, 6
4, 4
3, 3
3, 5
4, 1
3, 6
1, 3
2, 4
3, 3
5, 3
2, 3
6, 3
4, 3
2, 2
2, 4
1, 3
2, 2
1, 2
0, 3
2, 4
2, 2
1, 3
2, 2
5, 3
5, 2
3, 2
3, 0
1, 2
3, 1
0, 1
1, 1
2, 3
0, 1
0, 2
0, 1
3, 0
0, 0
1, 1
0, 1
0, 0
2, 0
2, 0
0, 2
1, 0
2, 0
0, 0
0, 1
1, 0
0, 0
0, 0
0, 1
1, 1
0, 1
1, 0
1, 0
0, 1
0, 0
1, 1
0, 0
1, 0
1, 0
0, 0
0, 0
0, 1
0, 1
1, 0
0, 1
0, 0
0, 0
0, 0
1, 1
0, 1
0, 0
0, 0
0, 1
0, 0
0, 0
0, 0
0, 0
0, 1
0, 0
0, 0
0, 1
1, 0
0, 0
0, 0
0, 0
0, 0
0, 0
0, 0
0, 0
0, 0
0, 0
1, 0
0, 1
1, 0
0, 0
0, 1
0, 0
0, 0
0, 0
0, 0
0, 0
0, 0
0, 0
0, 0
0, 0
0, 0
0, 0
0, 0
0, 0
0, 0
0, 1
0, 0
0, 0
0, 0
0, 0
0, 0
0, 0
0, 0
0, 0
0, 0
0, 0
0, 0
0, 0
0, 0
0, 0
0, 0
0, 0
0, 0
0, 0
0, 0
0, 0
0, 0
0, 0
0, 0
0, 0
0, 0
0, 0
0, 0
0, 0
0, 0
0, 0
0, 0
0, 0
0, 0
0, 0
0, 0
0, 0
0, 0
0, 0
0, 0
0, 0
0, 0
0, 0
0, 0
0, 0
0, 0
0, 0
0, 0
0, 0
0, 0
0, 0
0, 0
0, 0
0, 0
0, 0
0, 0
0, 0
0, 0
0, 0
0, 0
0, 0
0, 0
0, 0
0, 0
0, 0
0, 0
0, 0
0, 0
0, 0
0, 0
0, 0
0, 0
0, 0
0, 0
0, 0
0, 0
0, 0
0, 0
0, 0
0, 0
0, 0
0, 0
0, 0
0, 0
0, 0
0, 0
0, 0
0, 0
0, 0
#ENDOFDATA     end of spectrum data

File: ps__0567_0717304816_000rfs_shot_176.msa
#FORMAT      : EMSA/MAS spectral data file
#VERSION     : TC202v2.0 PIXL
#TITLE       : Novarupta (sol567) subset1
#DATE        : 02-11-2024      Date in the format DD-MMM-YYYY, for example 07-JUL-2010
#TIME        :             The time of day at which the spectrum was recorded, in 24-hour format
#OWNER       : PIXL Flight Model       (PIXL will use this to indicate which instrument took the data.)
#NPOINTS     : 4096     Number of data points in the spectrum (This can be zero for configuration only files)
#NCOLUMNS    : 2     Number of data columns in the spectrum (This can be zero for configuration only files)
#XUNITS      : eV
#YUNITS      : COUNTS
#DATATYPE    : YY
#XPERCHAN    : 7.862, 7.881   eV per channel (separate by commas if more than one detector)
#OFFSET      : 18.5, -22.4         eV of first channel  (separate by commas if more than one detector
#SIGNALTYPE  : XRF
#YP_TEMP     : 0.247
#LIVETIME    : 8.82226, 8.82291   seconds (separate by commas if more than one detector)
#REALTIME    : 10, 10.0   seconds (separate by commas if more than one detector)
#SPECTRUM    : start of spectrum data
0, 0
0, 0
0, 0
0, 0
0, 0
0, 0
0, 0
3, 0
3, 6
5, 1
4, 1
8, 11
16, 10
24, 19
45, 37
89, 131
506, 509
145, 94
37, 27
24, 25
51, 49
316, 338
109, 105
90, 66
244, 212
128, 119
58, 90
27, 31
14, 7
7, 9
29, 27
18, 24
16, 27
196, 216
316, 348
48, 53
35, 44
59, 60
11, 19
12, 10
24, 25
48, 56
20, 48
15, 20
12, 14
17, 20
14, 14
8, 14
14, 25
21, 32
27, 20
13, 12
13, 15
34, 42
43, 53
27, 23
41, 37
357, 453
1635, 1798
1055, 945
129, 105
16, 16
16, 17
96, 102
265, 280
155, 150
24, 22
6, 6
10, 8
2, 4
5, 4
2, 9
8, 10
11, 3
10, 12
5, 9
6, 7
2, 14
15, 8
16, 7
7, 5
5, 6
9, 10
8, 3
9, 1
10, 6
9, 9
4, 6
8, 3
4, 5
8, 4
2, 4
3, 5
5, 1
1, 8
3, 5
2, 2
1, 2
2, 5
5, 6
0, 2
2, 2
4, 4
3, 6
3, 1
1, 3
2, 2
2, 3
1, 3
3, 1
2, 2
4, 1
2, 1
1, 1
4, 2
2, 3
0, 2
2, 2
1, 4
3, 4
1, 2
0, 2
2, 1
0, 0
3, 2
1, 2
1, 2
0, 1
1, 2
2, 2
0, 0
1, 1
1, 0
2, 0
0, 3
0, 1
0, 0
0, 1
1, 1
1, 0
0, 0
0, 0
2, 2
3, 1
1, 0
0, 1
0, 0
0, 0
0, 0
1, 2
0, 0
0, 0
0, 0
0, 0
0, 0
0, 0
0, 0
0, 0
0, 0
0, 1
0, 1
1, 0
0, 1
1, 0
0, 0
2, 0
0, 1
0, 1
0, 0
0, 1
1, 0
0, 0
0, 0
1, 2
0, 0
0, 0
2, 1
0, 0
0, 0
0, 0
0, 0
0, 0
1, 0
0, 1
1, 0
0, 0
0, 0
0, 0
0, 0
0, 0
0, 0
0, 0
0, 0
0, 0
0, 0
0, 1
0, 0
0, 0
0, 0
0, 0
0, 0
1, 0
0, 0
0, 0
0, 0
0, 0
0, 0
0, 0
0, 0
0, 0
0, 0
0, 0
0, 0
0, 0
0, 0
0, 0
0, 0
0, 0
0, 0
0, 0
0, 1
0, 0
0, 0
0, 0
0, 0
0, 0
0, 0
0, 0
0, 0
0, 0
0, 0
0, 0
0, 1
0, 0
0, 0
0, 0
0, 0
0, 0
0, 0
0, 0
0, 0
0, 0
0, 0
0, 0
0, 0
0, 0
0, 0
0, 0
0, 0
0, 0
0, 0
0, 0
0, 0
0, 0
0, 0
0, 0
0, 0
0, 0
0, 0
0, 0
0, 0
0, 0
0, 0
0, 0
0, 0
0, 0
0, 0
0, 0
0, 0
0, 0
0, 0
0, 0
0, 0
0, 0
0, 0
0, 0
0, 0
0, 0
0, 0
0, 0
0, 0
0, 0
0, 0
0, 0
0, 0
0, 0
0, 0
0, 0
0, 0
0, 0
0, 0
0, 0
0, 0
0, 0
#ENDOFDATA     end of spectrum data

File: ps__0567_0717304816_000rfs_shot_177.msa
#FORMAT      : EMSA/MAS spectral data file
#VERSION     : TC202v2.0 PIXL
#TITLE       : Novarupta (sol567) subset1
#DATE        : 02-11-2024      Date in the format DD-MMM-YYYY, for example 07-JUL-2010
#TIME        :             The time of day at which the spectrum was recorded, in 24-hour format
#OWNER       : PIXL Flight Model       (PIXL will use this to indicate which instrument took the data.)
#NPOINTS     : 4096     Number of data points in the spectrum (This can be zero for configuration only files)
#NCOLUMNS    : 2     Number of data columns in the spectrum (This can be zero for configuration only files)
#XUNITS      : eV
#YUNITS      : COUNTS
#DATATYPE    : YY
#XPERCHAN    : 7.862, 7.881   eV per channel (separate by commas if more than one detector)
#OFFSET      : 18.5, -22.4         eV of first channel  (separate by commas if more than one detector
#SIGNALTYPE  : XRF
#YP_TEMP     : 0.471
#LIVETIME    : 8.82533, 8.81682   seconds (separate by commas if more than one detector)
#REALTIME    : 10, 10.0   seconds (separate by commas if more than one detector)
#SPECTRUM    : start of spectrum data
0, 0
0, 0
0, 0
0, 0
0, 0
0, 0
0, 0
0, 1
1, 4
2, 3
2, 0
11, 14
9, 13
25, 24
53, 40
99, 117
504, 526
123, 107
21, 30
19, 25
54, 53
301, 303
105, 118
81, 76
245, 231
122, 116
86, 78
32, 19
7, 11
6, 14
38, 28
26, 23
19, 28
224, 243
338, 279
45, 43
50, 40
45, 65
9, 8
12, 11
23, 20
57, 57
28, 34
19, 16
15, 19
19, 21
10, 10
9, 11
19, 18
31, 30
21, 30
16, 14
18, 18
34, 42
55, 47
27, 27
26, 40
383, 473
1676, 1795
1091, 1007
134, 84
21, 20
25, 28
76, 114
244, 286
164, 146
22, 23
13, 12
12, 16
9, 9
5, 6
0, 12
3, 3
10, 7
6, 8
7, 6
8, 8
6, 3
6, 12
9, 11
3, 9
6, 9
7, 8
0, 7
4, 6
8, 2
4, 5
6, 3
7, 12
7, 3
6, 10
2, 5
4, 5
5, 1
5, 3
1, 3
3, 5
1, 6
4, 4
7, 3
3, 2
0, 3
5, 3
6, 2
7, 0
2, 2
2, 4
2, 5
3, 2
1, 4
1, 2
2, 3
6, 1
1, 1
1, 0
6, 4
4, 2
3, 2
1, 3
2, 2
2, 0
2, 0
1, 2
2, 0
1, 2
0, 1
0, 0
0, 1
2, 0
1, 0
1, 1
1, 2
0, 0
2, 1
0, 1
0, 1
1, 1
1, 1
2, 0
0, 1
1, 3
0, 1
0, 0
1, 1
0, 0
1, 0
0, 3
0, 1
0, 0
0, 0
0, 0
0, 1
0, 0
0, 1
0, 0
0, 0
1, 0
0, 0
0, 0
0, 0
0, 0
1, 0
1, 0
1, 0
0, 0
0, 0
0, 1
0, 0
1, 1
0, 0
0, 0
0, 1
0, 0
0, 0
0, 0
0, 0
0, 0
1, 0
0, 0
0, 0
0, 1
0, 0
0, 1
1, 0
0, 1
0, 0
0, 0
0, 0
0, 0
0, 0
0, 0
0, 0
0, 1
0, 0
0, 0
0, 0
0, 0
0, 0
0, 0
0, 0
0, 0
0, 0
0, 0
0, 0
0, 0
0, 0
0, 0
0, 0
0, 0
0, 0
0, 0
0, 0
0, 0
0, 0
0, 0
0, 0
0, 0
0, 0
0, 0
0, 0
0, 0
0, 0
0, 0
0, 0
0, 0
0, 0
0, 0
0, 0
0, 0
0, 0
0, 0
1, 0
0, 0
0, 0
0, 0
0, 0
0, 0
0, 0
0, 0
0, 0
0, 0
0, 0
0, 0
0, 0
0, 0
0, 0
0, 0
0, 0
0, 0
0, 0
0, 0
0, 0
0, 0
0, 0
0, 0
0, 0
0, 0
0, 0
0, 0
0, 0
0, 0
0, 0
0, 0
0, 0
0, 0
0, 0
0, 0
0, 0
0, 0
0, 0
0, 0
0, 0
0, 0
0, 0
0, 0
0, 0
0, 0
0, 0
0, 0
0, 0
0, 0
0, 0
0, 0
0, 0
0, 0
0, 0
0, 0
0, 0
0, 0
0, 0
0, 0
0, 0
0, 0
0, 0
#ENDOFDATA     end of spectrum data

File: ps__0567_0717304816_000rfs_shot_180.msa
#FORMAT      : EMSA/MAS spectral data file
#VERSION     : TC202v2.0 PIXL
#TITLE       : Novarupta (sol567) subset1
#DATE        : 02-11-2024      Date in the format DD-MMM-YYYY, for example 07-JUL-2010
#TIME        :             The time of day at which the spectrum was recorded, in 24-hour format
#OWNER       : PIXL Flight Model       (PIXL will use this to indicate which instrument took the data.)
#NPOINTS     : 4096     Number of data points in the spectrum (This can be zero for configuration only files)
#NCOLUMNS    : 2     Number of data columns in the spectrum (This can be zero for configuration only files)
#XUNITS      : eV
#YUNITS      : COUNTS
#DATATYPE    : YY
#XPERCHAN    : 7.862, 7.881   eV per channel (separate by commas if more than one detector)
#OFFSET      : 18.5, -22.4         eV of first channel  (separate by commas if more than one detector
#SIGNALTYPE  : XRF
#YP_TEMP     : 0.407
#LIVETIME    : 8.83849, 8.82291   seconds (separate by commas if more than one detector)
#REALTIME    : 10, 10.0   seconds (separate by commas if more than one detector)
#SPECTRUM    : start of spectrum data
0, 0
0, 0
0, 0
0, 0
0, 0
0, 0
0, 0
0, 1
4, 2
4, 4
2, 2
11, 6
18, 15
25, 19
45, 37
136, 139
495, 530
138, 121
32, 26
28, 20
64, 59
303, 338
132, 113
80, 95
254, 243
132, 122
77, 83
31, 39
12, 10
11, 8
22, 37
12, 15
14, 31
205, 250
326, 346
52, 51
36, 41
54, 46
13, 14
6, 5
18, 20
56, 70
41, 39
17, 14
13, 18
24, 12
15, 8
4, 13
17, 18
33, 31
18, 20
9, 6
11, 12
34, 24
41, 48
13, 16
25, 44
366, 500
1615, 1853
1070, 975
107, 102
17, 20
24, 27
64, 101
249, 278
166, 156
14, 22
5, 11
19, 18
11, 8
3, 9
6, 4
5, 9
3, 5
5, 11
9, 7
5, 7
5, 11
6, 11
7, 9
7, 8
2, 5
9, 12
3, 6
5, 8
5, 2
5, 4
7, 5
5, 5
4, 5
4, 4
4, 7
6, 6
2, 5
8, 6
0, 5
2, 3
5, 4
3, 2
2, 5
3, 3
4, 3
6, 8
1, 4
4, 1
2, 2
3, 2
0, 3
2, 3
2, 0
2, 2
4, 3
2, 3
1, 2
0, 1
3, 0
3, 5
2, 1
2, 2
0, 1
0, 2
3, 2
3, 3
3, 6
4, 1
2, 1
2, 0
0, 2
0, 2
1, 1
1, 1
1, 2
1, 0
1, 2
1, 1
1, 2
0, 0
0, 0
1, 1
0, 2
0, 1
2, 0
1, 0
0, 1
0, 0
1, 1
0, 0
1, 1
0, 1
1, 0
0, 0
3, 0
0, 0
0, 0
1, 0
0, 0
1, 0
0, 0
1, 0
0, 0
1, 0
0, 0
0, 0
0, 0
0, 0
0, 0
0, 0
0, 0
0, 0
0, 0
1, 1
0, 0
0, 1
1, 0
0, 0
0, 0
1, 0
1, 1
0, 0
0, 1
2, 0
1, 0
0, 0
0, 0
0, 0
0, 0
0, 0
0, 0
0, 0
0, 0
0, 0
0, 1
0, 1
0, 0
0, 0
0, 0
0, 0
0, 0
0, 0
0, 0
0, 0
0, 0
0, 0
0, 0
0, 0
0, 0
0, 0
0, 0
0, 0
0, 0
0, 0
0, 0
0, 0
0, 0
0, 0
0, 0
0, 0
0, 0
0, 0
0, 0
0, 0
0, 0
0, 0
0, 0
0, 0
0, 0
0, 0
0, 0
0, 0
0, 0
0, 0
0, 0
0, 0
0, 0
0, 0
0, 0
0, 0
0, 0
0, 0
0, 0
0, 0
0, 0
0, 0
0, 0
0, 0
0, 0
0, 0
0, 0
0, 0
0, 0
0, 0
0, 0
0, 0
0, 0
0, 0
0, 0
0, 0
0, 0
0, 0
0, 0
0, 0
0, 0
0, 0
0, 0
0, 0
0, 0
0, 0
0, 0
0, 0
0, 0
0, 0
0, 0
0, 0
0, 0
0, 0
0, 0
0, 0
0, 0
0, 0
0, 0
0, 0
0, 0
0, 0
0, 0
0, 0
0, 0
0, 0
0, 0
0, 0
0, 0
0, 0
0, 0
0, 0
0, 0
#ENDOFDATA     end of spectrum data

File: ps__0567_0717304816_000rfs_shot_181.msa
#FORMAT      : EMSA/MAS spectral data file
#VERSION     : TC202v2.0 PIXL
#TITLE       : Novarupta (sol567) subset1
#DATE        : 02-11-2024      Date in the format DD-MMM-YYYY, for example 07-JUL-2010
#TIME        :             The time of day at which the spectrum was recorded, in 24-hour format
#OWNER       : PIXL Flight Model       (PIXL will use this to indicate which instrument took the data.)
#NPOINTS     : 4096     Number of data points in the spectrum (This can be zero for configuration only files)
#NCOLUMNS    : 2     Number of data columns in the spectrum (This can be zero for configuration only files)
#XUNITS      : eV
#YUNITS      : COUNTS
#DATATYPE    : YY
#XPERCHAN    : 7.862, 7.881   eV per channel (separate by commas if more than one detector)
#OFFSET      : 18.5, -22.4         eV of first channel  (separate by commas if more than one detector
#SIGNALTYPE  : XRF
#YP_TEMP     : 0.375
#LIVETIME    : 8.82591, 8.82081   seconds (separate by commas if more than one detector)
#REALTIME    : 10, 10.0   seconds (separate by commas if more than one detector)
#SPECTRUM    : start of spectrum data
0, 0
0, 0
0, 0
0, 0
0, 0
0, 0
0, 0
1, 1
1, 3
5, 6
6, 6
8, 13
9, 17
27, 24
39, 44
109, 136
521, 515
139, 135
32, 33
29, 23
69, 65
313, 334
130, 138
84, 89
237, 255
114, 129
75, 87
33, 32
7, 10
9, 19
26, 42
13, 18
26, 28
202, 243
344, 350
44, 44
37, 46
43, 51
10, 7
11, 9
16, 24
63, 60
32, 30
18, 14
16, 25
16, 18
10, 14
11, 16
10, 21
27, 31
26, 30
13, 11
15, 10
36, 31
42, 57
25, 14
41, 39
359, 485
1604, 1791
1060, 991
136, 81
21, 13
20, 27
91, 91
276, 290
191, 154
24, 27
10, 6
7, 11
9, 9
6, 6
8, 5
8, 7
6, 7
7, 8
7, 7
5, 4
6, 9
12, 10
12, 17
11, 6
9, 2
5, 5
9, 8
6, 6
6, 7
6, 4
2, 8
6, 6
9, 10
4, 8
1, 2
5, 4
4, 5
3, 3
3, 3
2, 6
2, 3
2, 3
4, 2
2, 1
2, 0
0, 1
4, 3
3, 4
2, 1
2, 2
3, 3
1, 2
2, 0
0, 1
1, 4
0, 1
3, 2
3, 2
1, 1
0, 4
4, 2
1, 2
4, 3
1, 1
2, 0
2, 3
1, 0
1, 1
4, 1
0, 0
1, 1
2, 0
0, 2
1, 2
0, 0
0, 1
0, 0
2, 1
1, 0
0, 0
0, 1
1, 1
0, 0
0, 0
1, 0
1, 1
1, 0
1, 0
0, 0
1, 1
0, 1
0, 0
0, 0
0, 0
0, 1
1, 0
0, 0
0, 0
0, 1
0, 0
0, 0
0, 1
0, 0
0, 0
1, 1
0, 0
1, 1
0, 0
0, 0
0, 0
0, 0
0, 2
1, 0
0, 1
0, 0
0, 0
0, 0
0, 0
0, 0
0, 0
0, 0
0, 0
0, 0
0, 0
0, 0
0, 0
0, 0
0, 0
0, 0
0, 0
0, 0
1, 1
0, 0
0, 0
0, 0
0, 0
0, 0
0, 0
0, 0
0, 0
0, 0
1, 0
0, 0
0, 0
0, 0
0, 0
0, 0
0, 0
0, 0
0, 0
0, 0
0, 0
0, 0
0, 0
0, 0
0, 0
0, 0
0, 0
0, 0
0, 0
0, 0
0, 0
0, 0
0, 0
0, 0
0, 0
0, 0
0, 0
0, 0
0, 0
0, 0
0, 0
0, 0
0, 0
0, 0
0, 0
0, 0
0, 0
0, 0
0, 0
0, 0
0, 0
0, 0
0, 0
0, 0
0, 0
0, 0
0, 0
0, 0
0, 0
0, 0
0, 0
0, 0
0, 0
0, 0
0, 0
0, 0
0, 0
0, 0
0, 0
0, 0
0, 0
0, 0
0, 0
0, 0
0, 0
0, 0
0, 0
0, 0
0, 0
0, 0
0, 0
0, 0
0, 0
0, 0
0, 0
0, 0
0, 0
0, 0
0, 0
0, 0
0, 0
0, 0
0, 0
0, 0
0, 0
0, 0
0, 0
0, 0
0, 0
0, 0
0, 0
0, 0
0, 0
0, 0
0, 0
0, 0
#ENDOFDATA     end of spectrum data