Folder: data-repository/host_upload/02-11-2024/rqc/uplink1 (part 4)

File: ps__0567_0717304816_000rfs_shot_53.msa
#FORMAT      : EMSA/MAS spectral data file
#VERSION     : TC202v2.0 PIXL
#TITLE       : Novarupta (sol567) subset1
#DATE        : 02-11-2024      Date in the format DD-MMM-YYYY, for example 07-JUL-2010
#TIME        :             The time of day at which the spectrum was recorded, in 24-hour format
#OWNER       : PIXL Flight Model       (PIXL will use this to indicate which instrument took the data.)
#NPOINTS     : 4096     Number of data points in the spectrum (This can be zero for configuration only files)
#NCOLUMNS    : 2     Number of data columns in the spectrum (This can be zero for configuration only files)
#XUNITS      : eV
#YUNITS      : COUNTS
#DATATYPE    : YY
#XPERCHAN    : 7.862, 7.881   eV per channel (separate by commas if more than one detector)
#OFFSET      : 18.5, -22.4         eV of first channel  (separate by commas if more than one detector
#SIGNALTYPE  : XRF
#YP_TEMP     : -2.543
#LIVETIME    : 8.82932, 8.82623   seconds (separate by commas if more than one detector)
#REALTIME    : 10, 10.0   seconds (separate by commas if more than one detector)
#SPECTRUM    : start of spectrum data
0, 0
0, 0
0, 0
0, 0
0, 0
0, 0
0, 0
0, 0
3, 5
4, 8
3, 5
13, 11
13, 16
31, 36
36, 44
132, 131
527, 498
122, 109
41, 35
20, 24
72, 55
336, 326
136, 123
99, 93
232, 214
112, 103
68, 71
27, 31
7, 9
7, 16
29, 28
16, 25
19, 25
236, 275
335, 323
58, 35
45, 62
40, 52
12, 10
9, 10
20, 33
59, 69
42, 29
17, 14
17, 10
17, 17
12, 14
12, 8
15, 17
34, 28
28, 10
10, 12
13, 14
28, 37
51, 52
20, 21
35, 53
463, 621
1580, 1790
901, 830
90, 93
16, 14
24, 30
108, 116
264, 242
121, 141
21, 23
16, 15
12, 9
7, 9
11, 7
9, 5
8, 10
6, 11
7, 7
8, 7
8, 4
6, 7
10, 13
7, 6
8, 5
5, 3
5, 8
4, 4
10, 8
3, 3
7, 10
3, 6
1, 8
6, 7
6, 8
3, 4
4, 3
5, 5
4, 1
2, 2
7, 4
6, 3
3, 4
3, 7
2, 4
0, 0
6, 3
3, 1
0, 1
3, 2
2, 2
1, 5
4, 0
4, 4
4, 2
0, 4
1, 3
1, 1
3, 1
5, 1
2, 2
0, 4
1, 4
3, 0
2, 1
2, 0
1, 2
0, 2
1, 2
0, 1
2, 2
0, 2
2, 1
1, 0
1, 0
2, 2
1, 3
1, 0
1, 3
1, 1
1, 0
0, 0
0, 0
1, 2
0, 0
0, 0
1, 0
0, 2
0, 0
1, 0
0, 0
0, 0
0, 0
0, 1
1, 0
0, 0
0, 0
1, 0
1, 0
0, 0
1, 0
0, 0
1, 0
0, 1
1, 0
0, 0
0, 0
0, 0
0, 0
1, 1
0, 1
0, 0
1, 0
0, 0
0, 0
0, 1
0, 1
1, 0
0, 0
0, 0
2, 0
0, 0
0, 0
0, 2
0, 0
0, 1
0, 0
0, 0
0, 0
0, 0
0, 0
0, 0
0, 0
0, 0
0, 0
0, 0
1, 0
1, 0
0, 0
0, 0
0, 0
0, 1
0, 0
0, 0
0, 0
0, 0
0, 0
0, 0
0, 0
0, 0
0, 0
0, 0
0, 0
0, 0
0, 0
0, 0
0, 0
0, 0
0, 0
0, 0
0, 0
0, 0
0, 0
0, 0
0, 0
0, 0
0, 0
0, 0
0, 0
0, 0
0, 0
0, 0
0, 0
0, 0
0, 0
0, 0
0, 0
0, 0
0, 0
0, 0
0, 0
0, 0
0, 0
0, 0
0, 0
0, 0
0, 0
0, 0
0, 0
0, 0
0, 0
0, 0
0, 0
0, 0
0, 0
0, 0
0, 0
0, 0
0, 0
0, 0
0, 0
0, 0
0, 0
0, 0
0, 0
0, 0
0, 0
0, 0
0, 0
0, 0
0, 0
0, 0
0, 0
0, 0
0, 0
0, 0
0, 0
0, 0
0, 0
0, 0
0, 0
0, 0
0, 0
0, 0
0, 0
0, 0
0, 0
0, 0
0, 0
0, 0
0, 0
0, 0
0, 0
0, 0
0, 0
0, 0
0, 0
0, 0
#ENDOFDATA     end of spectrum data

File: ps__0567_0717304816_000rfs_shot_55.msa
#FORMAT      : EMSA/MAS spectral data file
#VERSION     : TC202v2.0 PIXL
#TITLE       : Novarupta (sol567) subset1
#DATE        : 02-11-2024      Date in the format DD-MMM-YYYY, for example 07-JUL-2010
#TIME        :             The time of day at which the spectrum was recorded, in 24-hour format
#OWNER       : PIXL Flight Model       (PIXL will use this to indicate which instrument took the data.)
#NPOINTS     : 4096     Number of data points in the spectrum (This can be zero for configuration only files)
#NCOLUMNS    : 2     Number of data columns in the spectrum (This can be zero for configuration only files)
#XUNITS      : eV
#YUNITS      : COUNTS
#DATATYPE    : YY
#XPERCHAN    : 7.862, 7.881   eV per channel (separate by commas if more than one detector)
#OFFSET      : 18.5, -22.4         eV of first channel  (separate by commas if more than one detector
#SIGNALTYPE  : XRF
#YP_TEMP     : -2.543
#LIVETIME    : 8.83403, 8.82014   seconds (separate by commas if more than one detector)
#REALTIME    : 10, 10.0   seconds (separate by commas if more than one detector)
#SPECTRUM    : start of spectrum data
0, 0
0, 0
0, 0
0, 0
0, 0
0, 0
0, 0
0, 0
0, 3
4, 6
2, 3
5, 12
14, 7
22, 29
40, 49
145, 129
479, 533
107, 100
34, 30
16, 18
69, 65
335, 357
121, 130
80, 89
207, 245
113, 106
71, 62
37, 39
7, 7
12, 8
29, 25
12, 12
23, 27
243, 287
310, 317
52, 37
45, 57
52, 47
12, 16
12, 6
16, 26
63, 78
34, 41
17, 14
15, 17
14, 21
11, 14
5, 6
12, 18
25, 32
19, 29
13, 12
11, 8
33, 38
36, 39
24, 30
51, 39
490, 582
1642, 1723
927, 785
87, 85
18, 18
21, 31
109, 118
248, 294
121, 123
20, 14
14, 11
8, 10
8, 9
6, 9
3, 8
4, 4
4, 6
2, 5
3, 5
5, 4
3, 9
8, 17
8, 6
7, 4
7, 10
6, 7
4, 2
6, 4
7, 3
3, 4
3, 7
1, 7
5, 4
5, 5
1, 9
3, 3
4, 2
3, 2
3, 4
3, 6
5, 6
2, 4
6, 3
1, 6
4, 3
2, 1
0, 4
3, 3
3, 2
3, 5
2, 3
0, 6
1, 1
0, 4
1, 1
3, 4
3, 2
1, 2
2, 4
1, 0
3, 2
1, 4
4, 0
0, 4
0, 0
3, 2
0, 0
0, 2
1, 0
1, 2
0, 0
0, 2
0, 0
0, 0
1, 0
1, 0
0, 1
1, 1
5, 1
1, 0
0, 1
2, 0
0, 0
0, 2
1, 0
0, 1
0, 0
0, 0
0, 2
1, 0
1, 0
0, 0
1, 0
1, 0
0, 0
0, 1
0, 1
1, 0
0, 0
0, 0
1, 1
0, 0
0, 0
0, 0
0, 0
0, 0
0, 0
0, 0
0, 1
0, 0
0, 0
0, 0
0, 0
0, 1
1, 0
0, 0
0, 0
0, 0
0, 0
0, 0
0, 1
1, 0
0, 0
0, 0
0, 1
0, 1
0, 0
0, 0
0, 0
0, 0
0, 0
0, 0
0, 0
0, 0
0, 0
0, 0
0, 0
0, 0
1, 1
0, 0
0, 0
0, 0
0, 0
0, 0
0, 0
0, 0
0, 0
0, 0
0, 0
0, 0
0, 0
0, 0
0, 0
0, 0
0, 0
0, 0
0, 0
0, 0
0, 0
0, 0
0, 0
0, 0
0, 0
0, 0
0, 0
0, 0
0, 0
0, 0
0, 0
0, 0
0, 0
0, 0
0, 0
0, 0
0, 0
0, 0
0, 0
0, 0
0, 0
0, 0
0, 0
0, 0
0, 0
0, 0
0, 0
0, 0
0, 0
0, 0
0, 0
0, 0
0, 0
0, 0
0, 0
0, 0
0, 0
0, 0
0, 0
0, 0
0, 0
0, 0
0, 0
0, 0
0, 0
0, 0
0, 0
0, 0
0, 0
0, 0
0, 0
0, 0
0, 0
0, 0
0, 0
0, 0
0, 0
0, 0
0, 0
0, 0
0, 0
0, 0
0, 0
0, 0
0, 0
0, 0
0, 0
0, 0
0, 0
0, 0
0, 0
0, 0
0, 0
0, 0
0, 0
0, 0
0, 0
0, 0
0, 0
#ENDOFDATA     end of spectrum data

File: ps__0567_0717304816_000rfs_shot_56.msa
#FORMAT      : EMSA/MAS spectral data file
#VERSION     : TC202v2.0 PIXL
#TITLE       : Novarupta (sol567) subset1
#DATE        : 02-11-2024      Date in the format DD-MMM-YYYY, for example 07-JUL-2010
#TIME        :             The time of day at which the spectrum was recorded, in 24-hour format
#OWNER       : PIXL Flight Model       (PIXL will use this to indicate which instrument took the data.)
#NPOINTS     : 4096     Number of data points in the spectrum (This can be zero for configuration only files)
#NCOLUMNS    : 2     Number of data columns in the spectrum (This can be zero for configuration only files)
#XUNITS      : eV
#YUNITS      : COUNTS
#DATATYPE    : YY
#XPERCHAN    : 7.862, 7.881   eV per channel (separate by commas if more than one detector)
#OFFSET      : 18.5, -22.4         eV of first channel  (separate by commas if more than one detector
#SIGNALTYPE  : XRF
#YP_TEMP     : -2.511
#LIVETIME    : 8.83034, 8.64083   seconds (separate by commas if more than one detector)
#REALTIME    : 10, 10.0   seconds (separate by commas if more than one detector)
#SPECTRUM    : start of spectrum data
0, 0
0, 0
0, 0
0, 0
0, 0
0, 0
0, 0
0, 0
3, 4
3, 4
5, 2
8, 11
11, 15
26, 19
46, 40
131, 145
462, 525
133, 119
21, 38
12, 30
69, 70
333, 382
119, 132
90, 96
202, 241
120, 117
79, 82
45, 34
9, 11
10, 10
18, 13
14, 10
23, 30
273, 290
296, 339
56, 45
42, 65
48, 50
7, 6
13, 14
26, 38
56, 53
32, 29
14, 13
14, 12
14, 26
18, 13
10, 11
18, 17
24, 37
22, 26
8, 15
14, 16
36, 41
38, 47
13, 28
38, 52
496, 585
1606, 1839
887, 859
98, 83
20, 15
23, 22
97, 117
210, 323
116, 142
18, 23
6, 9
11, 11
7, 12
7, 8
2, 5
4, 4
8, 4
3, 11
7, 6
3, 4
4, 9
15, 14
9, 12
9, 1
6, 6
4, 5
5, 7
5, 5
6, 6
5, 6
0, 4
4, 2
3, 5
5, 2
8, 6
4, 5
6, 1
1, 6
1, 2
2, 2
3, 7
3, 2
4, 5
1, 5
3, 2
5, 3
2, 2
3, 4
6, 2
3, 2
4, 6
1, 10
5, 4
3, 2
3, 1
2, 2
1, 2
1, 1
4, 3
3, 4
3, 1
2, 1
2, 1
2, 3
2, 4
2, 2
2, 3
0, 1
1, 1
4, 2
0, 0
2, 2
4, 0
0, 2
0, 1
2, 1
0, 0
1, 3
1, 1
1, 1
1, 1
1, 1
0, 1
0, 1
1, 0
0, 1
0, 0
0, 0
1, 1
0, 1
0, 1
1, 0
1, 1
0, 0
0, 1
0, 2
0, 0
0, 0
0, 1
0, 0
1, 0
0, 1
0, 1
1, 0
1, 0
0, 0
1, 0
0, 0
0, 1
0, 0
0, 0
0, 1
1, 0
0, 1
0, 0
1, 1
0, 0
1, 0
0, 1
0, 0
0, 0
0, 0
0, 0
0, 0
0, 0
0, 0
0, 0
0, 0
0, 0
0, 0
0, 0
0, 0
0, 0
0, 0
0, 0
1, 0
0, 0
0, 0
0, 0
0, 0
1, 0
0, 0
0, 0
0, 0
0, 0
1, 0
0, 0
0, 0
0, 1
0, 0
0, 0
0, 0
0, 0
0, 0
0, 0
0, 0
0, 0
0, 0
0, 0
0, 0
0, 0
0, 0
0, 0
0, 0
0, 0
0, 0
0, 0
0, 0
0, 0
0, 0
0, 0
0, 0
0, 0
0, 0
0, 0
0, 0
0, 0
0, 0
0, 0
0, 0
0, 0
0, 0
0, 0
0, 0
0, 0
0, 0
0, 0
0, 0
0, 0
0, 0
0, 0
0, 0
0, 0
0, 0
0, 0
0, 0
0, 0
0, 0
0, 0
0, 0
0, 0
0, 0
0, 0
0, 0
0, 0
0, 0
0, 0
0, 0
0, 0
0, 0
0, 0
0, 0
0, 0
0, 0
0, 0
0, 0
0, 0
0, 0
0, 0
0, 0
0, 0
0, 0
0, 0
0, 0
0, 0
0, 0
0, 0
0, 0
0, 0
0, 0
0, 0
0, 0
0, 0
0, 0
0, 0
0, 0
0, 0
#ENDOFDATA     end of spectrum data

File: ps__0567_0717304816_000rfs_shot_62.msa
#FORMAT      : EMSA/MAS spectral data file
#VERSION     : TC202v2.0 PIXL
#TITLE       : Novarupta (sol567) subset1
#DATE        : 02-11-2024      Date in the format DD-MMM-YYYY, for example 07-JUL-2010
#TIME        :             The time of day at which the spectrum was recorded, in 24-hour format
#OWNER       : PIXL Flight Model       (PIXL will use this to indicate which instrument took the data.)
#NPOINTS     : 4096     Number of data points in the spectrum (This can be zero for configuration only files)
#NCOLUMNS    : 2     Number of data columns in the spectrum (This can be zero for configuration only files)
#XUNITS      : eV
#YUNITS      : COUNTS
#DATATYPE    : YY
#XPERCHAN    : 7.862, 7.881   eV per channel (separate by commas if more than one detector)
#OFFSET      : 18.5, -22.4         eV of first channel  (separate by commas if more than one detector
#SIGNALTYPE  : XRF
#YP_TEMP     : -2.03
#LIVETIME    : 8.8314, 8.81582   seconds (separate by commas if more than one detector)
#REALTIME    : 10, 10.0   seconds (separate by commas if more than one detector)
#SPECTRUM    : start of spectrum data
0, 0
0, 0
0, 0
0, 0
0, 0
0, 0
0, 0
0, 0
2, 2
3, 6
5, 4
16, 8
7, 15
25, 28
46, 47
119, 115
449, 488
128, 134
26, 24
20, 20
78, 74
330, 313
122, 118
93, 81
232, 240
90, 101
67, 64
33, 20
11, 6
9, 8
32, 30
20, 16
27, 27
251, 255
292, 340
46, 45
58, 56
48, 53
16, 2
8, 11
30, 19
60, 62
33, 43
26, 15
19, 13
15, 26
7, 19
11, 8
12, 20
29, 38
21, 20
11, 15
18, 14
38, 39
41, 54
18, 18
40, 40
474, 558
1625, 1782
952, 881
100, 76
19, 17
24, 20
95, 138
263, 304
138, 121
19, 16
6, 11
13, 13
7, 12
6, 10
5, 9
6, 7
9, 7
7, 4
7, 11
6, 5
5, 6
6, 14
10, 9
3, 8
3, 4
7, 6
7, 9
7, 5
6, 5
5, 5
6, 1
5, 7
4, 10
5, 5
5, 4
3, 7
9, 6
7, 3
5, 6
3, 8
2, 0
3, 4
1, 5
2, 2
0, 1
2, 5
4, 1
0, 2
3, 1
3, 2
1, 2
3, 4
1, 0
3, 2
2, 1
3, 3
1, 2
3, 2
3, 3
8, 5
2, 5
3, 4
5, 3
2, 2
3, 3
4, 2
4, 0
1, 1
1, 0
2, 2
1, 2
0, 0
0, 0
1, 2
2, 3
0, 0
1, 1
2, 0
2, 2
0, 0
1, 1
0, 0
1, 0
0, 2
1, 2
2, 0
2, 1
2, 0
0, 0
0, 1
0, 0
0, 1
1, 0
2, 0
0, 1
0, 0
0, 0
0, 0
0, 1
0, 0
1, 0
2, 0
0, 0
0, 0
0, 0
0, 0
0, 0
0, 0
0, 1
0, 0
0, 0
0, 0
1, 1
1, 0
0, 0
0, 0
0, 0
1, 0
0, 1
1, 0
0, 0
0, 0
0, 0
0, 0
0, 0
0, 0
0, 0
1, 0
0, 0
0, 0
0, 1
0, 0
0, 0
0, 1
0, 0
0, 0
0, 0
0, 0
0, 0
0, 0
0, 0
0, 0
0, 0
0, 0
0, 0
0, 0
0, 0
0, 0
0, 0
0, 0
0, 0
0, 0
0, 0
0, 0
0, 0
0, 0
0, 0
0, 0
0, 0
0, 0
0, 0
0, 0
0, 0
0, 0
0, 0
0, 0
0, 0
0, 0
0, 0
0, 0
0, 0
0, 0
0, 0
0, 0
0, 0
0, 0
0, 0
0, 0
0, 0
0, 0
0, 0
0, 0
0, 0
0, 0
0, 0
0, 0
0, 0
0, 0
0, 0
0, 0
0, 0
0, 0
0, 0
0, 0
0, 0
0, 0
0, 0
0, 0
0, 0
0, 0
0, 0
0, 0
0, 0
0, 0
0, 0
0, 0
0, 0
0, 0
0, 0
0, 0
0, 0
0, 0
0, 0
0, 0
0, 0
0, 0
0, 0
0, 0
0, 0
0, 0
0, 0
0, 0
0, 0
0, 0
0, 0
0, 0
0, 0
0, 0
0, 0
0, 0
0, 0
0, 0
0, 0
0, 0
0, 0
0, 0
0, 0
#ENDOFDATA     end of spectrum data

File: ps__0567_0717304816_000rfs_shot_68.msa
#FORMAT      : EMSA/MAS spectral data file
#VERSION     : TC202v2.0 PIXL
#TITLE       : Novarupta (sol567) subset1
#DATE        : 02-11-2024      Date in the format DD-MMM-YYYY, for example 07-JUL-2010
#TIME        :             The time of day at which the spectrum was recorded, in 24-hour format
#OWNER       : PIXL Flight Model       (PIXL will use this to indicate which instrument took the data.)
#NPOINTS     : 4096     Number of data points in the spectrum (This can be zero for configuration only files)
#NCOLUMNS    : 2     Number of data columns in the spectrum (This can be zero for configuration only files)
#XUNITS      : eV
#YUNITS      : COUNTS
#DATATYPE    : YY
#XPERCHAN    : 7.862, 7.881   eV per channel (separate by commas if more than one detector)
#OFFSET      : 18.5, -22.4         eV of first channel  (separate by commas if more than one detector
#SIGNALTYPE  : XRF
#YP_TEMP     : -1.774
#LIVETIME    : 8.82274, 8.81828   seconds (separate by commas if more than one detector)
#REALTIME    : 10, 10.0   seconds (separate by commas if more than one detector)
#SPECTRUM    : start of spectrum data
0, 0
0, 0
0, 0
0, 0
0, 0
0, 0
0, 0
0, 1
3, 2
2, 3
1, 4
13, 15
18, 10
36, 19
31, 49
129, 144
491, 538
118, 140
38, 34
15, 29
61, 61
338, 333
112, 131
82, 84
215, 264
119, 124
69, 74
28, 37
14, 3
8, 12
28, 38
20, 13
19, 34
236, 289
333, 295
58, 52
32, 52
56, 48
16, 9
8, 7
19, 30
68, 77
32, 37
10, 14
19, 10
22, 21
12, 16
12, 9
24, 13
28, 22
25, 28
12, 12
14, 18
39, 43
47, 43
16, 20
38, 39
497, 579
1665, 1803
987, 825
112, 84
12, 18
18, 39
94, 119
244, 275
147, 124
21, 15
11, 7
10, 10
10, 4
9, 4
6, 6
2, 7
5, 10
4, 9
4, 7
5, 5
2, 10
8, 12
13, 10
3, 6
6, 6
6, 4
6, 6
11, 8
4, 7
2, 10
7, 3
2, 9
4, 6
3, 3
3, 5
1, 4
3, 3
3, 6
1, 4
4, 5
2, 3
3, 1
4, 3
4, 1
2, 2
1, 1
7, 2
2, 2
2, 1
3, 3
5, 1
2, 1
2, 1
4, 4
4, 1
2, 4
1, 3
2, 3
1, 1
2, 3
3, 2
4, 0
3, 0
3, 0
2, 0
2, 1
1, 2
1, 1
1, 1
0, 3
1, 1
1, 2
2, 1
1, 0
1, 1
2, 0
0, 1
2, 0
1, 0
0, 0
1, 1
1, 1
1, 0
1, 0
0, 0
1, 0
2, 0
0, 0
1, 0
2, 0
0, 0
0, 1
0, 1
0, 0
0, 0
0, 0
1, 0
0, 0
2, 1
1, 0
0, 0
0, 0
0, 0
0, 0
0, 0
0, 0
0, 0
1, 0
0, 0
0, 0
1, 0
1, 1
2, 0
0, 1
0, 1
0, 0
0, 0
0, 0
0, 0
0, 0
0, 0
0, 0
1, 1
0, 1
0, 0
1, 1
0, 0
0, 0
1, 0
0, 0
0, 0
0, 0
0, 0
0, 0
0, 0
0, 0
0, 0
0, 0
0, 0
0, 0
0, 0
1, 0
0, 0
0, 0
0, 0
0, 0
0, 0
0, 0
0, 0
0, 0
0, 0
0, 0
0, 0
0, 0
0, 0
0, 0
0, 0
0, 0
0, 0
0, 0
0, 0
0, 0
0, 0
0, 0
0, 0
0, 0
0, 0
0, 0
0, 0
0, 0
0, 0
0, 0
0, 0
0, 0
0, 0
0, 0
0, 0
0, 0
0, 0
0, 0
0, 0
0, 0
0, 0
0, 0
0, 0
0, 0
0, 0
0, 0
0, 0
0, 0
0, 0
0, 0
0, 0
0, 0
0, 0
0, 0
0, 0
0, 0
0, 0
0, 0
0, 0
0, 0
0, 0
0, 0
0, 0
0, 0
0, 0
0, 0
0, 0
0, 0
0, 0
0, 0
0, 0
0, 0
0, 0
0, 0
0, 0
0, 0
0, 0
0, 0
0, 0
0, 0
0, 0
0, 0
0, 0
0, 0
0, 0
0, 0
0, 0
0, 0
0, 0
0, 0
0, 0
0, 0
0, 0
0, 0
0, 0
#ENDOFDATA     end of spectrum data

File: ps__0567_0717304816_000rfs_shot_72.msa
#FORMAT      : EMSA/MAS spectral data file
#VERSION     : TC202v2.0 PIXL
#TITLE       : Novarupta (sol567) subset1
#DATE        : 02-11-2024      Date in the format DD-MMM-YYYY, for example 07-JUL-2010
#TIME        :             The time of day at which the spectrum was recorded, in 24-hour format
#OWNER       : PIXL Flight Model       (PIXL will use this to indicate which instrument took the data.)
#NPOINTS     : 4096     Number of data points in the spectrum (This can be zero for configuration only files)
#NCOLUMNS    : 2     Number of data columns in the spectrum (This can be zero for configuration only files)
#XUNITS      : eV
#YUNITS      : COUNTS
#DATATYPE    : YY
#XPERCHAN    : 7.862, 7.881   eV per channel (separate by commas if more than one detector)
#OFFSET      : 18.5, -22.4         eV of first channel  (separate by commas if more than one detector
#SIGNALTYPE  : XRF
#YP_TEMP     : -1.742
#LIVETIME    : 8.83946, 8.64636   seconds (separate by commas if more than one detector)
#REALTIME    : 10, 10.0   seconds (separate by commas if more than one detector)
#SPECTRUM    : start of spectrum data
0, 0
0, 0
0, 0
0, 0
0, 0
0, 0
0, 0
0, 0
3, 4
4, 2
2, 3
13, 13
18, 6
35, 20
41, 38
111, 124
482, 573
117, 129
24, 35
23, 26
71, 84
311, 336
114, 115
79, 108
206, 219
112, 125
68, 89
26, 27
8, 10
13, 11
24, 34
24, 14
27, 21
242, 273
293, 357
39, 52
49, 55
49, 49
4, 13
12, 10
19, 13
63, 58
32, 21
11, 11
6, 8
15, 24
15, 7
12, 13
10, 15
22, 36
12, 12
14, 15
13, 13
26, 35
44, 51
29, 31
42, 45
422, 556
1563, 1840
880, 866
94, 99
21, 13
18, 17
82, 131
220, 289
151, 138
19, 19
9, 10
14, 10
7, 13
7, 9
9, 5
7, 6
7, 6
8, 3
9, 8
13, 2
6, 9
9, 13
12, 7
10, 5
6, 5
9, 4
1, 6
5, 8
5, 2
2, 5
3, 10
5, 5
5, 6
3, 5
1, 2
2, 1
2, 3
2, 6
4, 5
2, 4
4, 5
2, 2
0, 7
4, 1
2, 5
1, 3
3, 3
3, 3
1, 0
2, 2
1, 2
2, 1
4, 3
2, 5
2, 4
6, 0
3, 1
1, 1
2, 8
0, 5
0, 2
1, 1
0, 3
2, 0
2, 1
2, 4
1, 1
0, 4
2, 0
3, 2
0, 1
1, 0
1, 0
0, 2
0, 5
2, 1
0, 1
0, 0
0, 0
1, 2
0, 0
0, 0
0, 0
0, 0
0, 1
1, 0
0, 0
1, 0
1, 0
0, 0
0, 0
1, 1
0, 0
0, 1
0, 0
0, 1
0, 0
0, 0
0, 1
0, 0
0, 0
0, 1
0, 0
1, 1
0, 0
0, 1
0, 1
1, 0
0, 0
0, 0
0, 0
0, 0
0, 0
0, 0
0, 1
0, 0
0, 0
0, 0
0, 0
0, 0
0, 0
0, 0
0, 0
0, 0
0, 0
0, 1
1, 0
0, 0
0, 0
0, 0
0, 0
1, 0
0, 0
0, 0
0, 0
0, 0
1, 0
0, 0
0, 0
0, 0
0, 0
0, 0
0, 0
0, 0
0, 0
0, 0
0, 0
0, 0
0, 0
0, 0
0, 0
0, 0
1, 0
0, 0
0, 0
0, 0
0, 0
0, 0
0, 0
0, 0
0, 0
0, 0
0, 0
0, 0
0, 0
0, 0
0, 0
0, 0
0, 0
0, 0
0, 0
0, 0
0, 0
0, 0
0, 0
0, 0
0, 0
0, 0
0, 0
0, 0
0, 0
0, 0
0, 0
0, 0
0, 0
0, 0
0, 0
0, 0
0, 0
0, 0
0, 0
0, 0
0, 0
0, 0
0, 0
0, 0
0, 0
0, 0
0, 0
0, 0
0, 0
0, 0
0, 0
0, 0
0, 0
0, 0
0, 0
0, 0
0, 0
0, 0
0, 0
0, 0
0, 0
0, 0
0, 0
0, 0
0, 0
0, 0
0, 0
0, 0
0, 0
0, 0
0, 0
0, 0
0, 0
0, 0
0, 0
0, 0
0, 0
0, 0
0, 0
0, 0
0, 0
0, 0
0, 0
0, 0
0, 0
#ENDOFDATA     end of spectrum data

File: ps__0567_0717304816_000rfs_shot_73.msa
#FORMAT      : EMSA/MAS spectral data file
#VERSION     : TC202v2.0 PIXL
#TITLE       : Novarupta (sol567) subset1
#DATE        : 02-11-2024      Date in the format DD-MMM-YYYY, for example 07-JUL-2010
#TIME        :             The time of day at which the spectrum was recorded, in 24-hour format
#OWNER       : PIXL Flight Model       (PIXL will use this to indicate which instrument took the data.)
#NPOINTS     : 4096     Number of data points in the spectrum (This can be zero for configuration only files)
#NCOLUMNS    : 2     Number of data columns in the spectrum (This can be zero for configuration only files)
#XUNITS      : eV
#YUNITS      : COUNTS
#DATATYPE    : YY
#XPERCHAN    : 7.862, 7.881   eV per channel (separate by commas if more than one detector)
#OFFSET      : 18.5, -22.4         eV of first channel  (separate by commas if more than one detector
#SIGNALTYPE  : XRF
#YP_TEMP     : -1.902
#LIVETIME    : 8.84426, 8.82397   seconds (separate by commas if more than one detector)
#REALTIME    : 10, 10.0   seconds (separate by commas if more than one detector)
#SPECTRUM    : start of spectrum data
0, 0
0, 0
0, 0
0, 0
0, 0
0, 0
0, 0
2, 0
3, 5
6, 1
1, 7
12, 7
16, 11
25, 23
36, 52
106, 128
475, 556
99, 114
25, 30
17, 23
58, 76
295, 321
98, 123
69, 82
202, 239
105, 109
74, 57
23, 25
6, 15
5, 9
19, 34
17, 19
27, 30
228, 280
331, 300
43, 48
41, 49
50, 57
15, 11
3, 6
23, 29
61, 61
26, 37
18, 16
11, 9
14, 18
22, 14
12, 9
12, 10
36, 45
16, 32
16, 16
10, 16
29, 46
45, 52
14, 21
44, 33
424, 550
1598, 1802
843, 916
104, 96
6, 13
24, 27
119, 107
236, 271
130, 112
18, 19
7, 7
11, 9
10, 10
6, 8
5, 5
7, 11
5, 9
7, 8
8, 8
7, 4
5, 8
8, 7
7, 7
4, 4
5, 9
3, 3
11, 7
6, 5
5, 5
3, 9
2, 5
6, 4
1, 4
3, 6
5, 4
2, 7
4, 3
3, 1
5, 3
4, 4
6, 4
2, 2
0, 3
1, 4
1, 2
4, 6
4, 3
0, 3
2, 0
0, 4
4, 2
2, 0
2, 2
3, 1
0, 4
2, 6
1, 1
2, 2
3, 3
3, 3
2, 0
1, 1
0, 0
2, 4
2, 3
0, 1
2, 4
1, 1
0, 3
2, 4
1, 3
2, 1
0, 0
1, 0
0, 3
0, 1
1, 1
1, 1
1, 0
0, 1
1, 1
2, 1
0, 1
1, 0
0, 3
0, 1
1, 0
1, 1
0, 0
0, 0
0, 1
3, 1
1, 0
0, 0
0, 2
1, 0
1, 0
1, 2
1, 0
0, 0
0, 0
1, 0
0, 0
0, 0
0, 0
0, 0
0, 1
0, 1
2, 0
0, 1
0, 0
0, 0
0, 1
0, 1
0, 1
0, 1
2, 0
0, 0
0, 0
0, 1
0, 1
0, 0
0, 0
0, 1
0, 0
0, 0
0, 1
0, 1
0, 0
0, 0
0, 0
0, 0
0, 0
0, 0
0, 0
0, 0
0, 0
0, 0
0, 0
0, 0
0, 0
0, 0
0, 0
0, 2
0, 0
0, 0
0, 0
0, 0
0, 0
0, 0
0, 0
0, 0
0, 0
0, 0
0, 0
0, 0
0, 0
0, 0
0, 0
0, 0
0, 0
0, 0
0, 0
0, 0
0, 0
0, 0
0, 0
0, 0
0, 0
0, 0
0, 0
0, 0
0, 0
0, 0
0, 0
0, 0
0, 0
0, 0
0, 0
0, 0
0, 0
0, 0
0, 0
0, 0
0, 0
0, 0
0, 0
0, 0
0, 0
0, 0
0, 0
0, 0
0, 0
0, 0
0, 0
0, 0
0, 0
0, 0
0, 0
0, 0
0, 0
0, 0
0, 0
0, 0
0, 0
0, 0
0, 0
0, 0
0, 0
0, 0
0, 0
0, 0
0, 0
0, 0
0, 0
0, 0
0, 0
0, 0
0, 0
0, 0
0, 0
0, 0
0, 0
0, 0
0, 0
0, 0
0, 0
0, 0
0, 0
0, 0
0, 0
0, 0
0, 0
0, 0
0, 0
0, 0
0, 0
#ENDOFDATA     end of spectrum data

File: ps__0567_0717304816_000rfs_shot_74.msa
#FORMAT      : EMSA/MAS spectral data file
#VERSION     : TC202v2.0 PIXL
#TITLE       : Novarupta (sol567) subset1
#DATE        : 02-11-2024      Date in the format DD-MMM-YYYY, for example 07-JUL-2010
#TIME        :             The time of day at which the spectrum was recorded, in 24-hour format
#OWNER       : PIXL Flight Model       (PIXL will use this to indicate which instrument took the data.)
#NPOINTS     : 4096     Number of data points in the spectrum (This can be zero for configuration only files)
#NCOLUMNS    : 2     Number of data columns in the spectrum (This can be zero for configuration only files)
#XUNITS      : eV
#YUNITS      : COUNTS
#DATATYPE    : YY
#XPERCHAN    : 7.862, 7.881   eV per channel (separate by commas if more than one detector)
#OFFSET      : 18.5, -22.4         eV of first channel  (separate by commas if more than one detector
#SIGNALTYPE  : XRF
#YP_TEMP     : -1.838
#LIVETIME    : 8.84099, 8.81746   seconds (separate by commas if more than one detector)
#REALTIME    : 10, 10.0   seconds (separate by commas if more than one detector)
#SPECTRUM    : start of spectrum data
0, 0
0, 0
0, 0
0, 0
0, 0
0, 0
0, 0
0, 0
2, 5
3, 4
1, 4
5, 7
8, 8
16, 19
51, 38
120, 146
452, 542
113, 148
33, 33
23, 26
57, 58
292, 341
104, 132
84, 79
223, 238
119, 126
69, 69
34, 28
6, 11
7, 12
35, 31
14, 16
25, 24
222, 288
289, 304
38, 40
58, 51
48, 42
7, 13
10, 15
19, 21
56, 67
37, 43
16, 11
16, 21
19, 20
12, 13
16, 11
20, 18
28, 27
22, 31
15, 12
12, 18
45, 38
47, 58
14, 14
38, 44
428, 568
1502, 1743
898, 897
105, 76
16, 18
21, 25
92, 127
222, 286
139, 133
12, 18
10, 6
5, 12
4, 12
6, 9
1, 9
12, 3
5, 11
10, 12
10, 11
10, 5
8, 7
10, 15
6, 8
6, 6
8, 7
9, 3
8, 5
6, 2
3, 6
4, 9
7, 5
6, 7
3, 4
2, 4
2, 4
3, 3
3, 4
6, 4
7, 1
3, 4
3, 1
2, 4
3, 4
6, 1
3, 0
3, 0
1, 4
3, 0
4, 4
4, 1
4, 3
4, 4
1, 2
2, 1
1, 1
4, 3
2, 1
4, 3
2, 1
4, 3
0, 0
4, 2
0, 2
2, 1
0, 2
2, 2
1, 3
0, 2
2, 0
1, 0
0, 1
1, 1
2, 0
3, 1
0, 3
2, 2
3, 1
0, 2
1, 4
0, 1
1, 1
4, 0
1, 0
1, 1
0, 0
0, 0
0, 0
0, 0
0, 0
1, 3
1, 1
0, 2
0, 0
0, 3
0, 1
1, 1
1, 0
0, 2
0, 0
0, 0
0, 0
0, 0
0, 0
0, 1
0, 0
1, 1
0, 0
0, 0
0, 0
0, 0
0, 0
0, 0
0, 1
0, 0
0, 0
0, 0
0, 1
0, 0
0, 0
0, 0
0, 0
0, 0
0, 0
0, 1
0, 0
0, 0
1, 0
0, 1
0, 0
0, 0
0, 0
0, 0
0, 0
0, 0
0, 0
0, 0
0, 0
0, 0
0, 0
0, 0
0, 0
0, 0
0, 0
0, 0
0, 0
0, 0
0, 0
0, 0
0, 0
0, 0
0, 0
0, 0
0, 0
0, 0
0, 0
0, 0
0, 0
0, 0
0, 0
0, 0
0, 0
0, 0
0, 0
0, 0
0, 0
0, 0
0, 0
0, 0
0, 0
0, 0
0, 0
0, 0
0, 0
0, 0
0, 0
0, 0
0, 0
0, 0
0, 0
0, 0
0, 0
0, 0
0, 0
0, 0
0, 0
0, 0
0, 0
0, 0
0, 0
0, 0
0, 0
0, 0
0, 0
0, 0
0, 0
0, 0
0, 0
0, 0
0, 0
0, 0
0, 0
0, 0
0, 0
0, 0
0, 0
0, 0
0, 0
0, 0
0, 0
0, 0
0, 0
0, 0
0, 0
0, 0
0, 0
0, 0
0, 0
0, 0
0, 0
0, 0
0, 0
0, 0
0, 0
0, 0
0, 0
0, 0
0, 0
0, 0
0, 0
0, 0
0, 0
0, 0
0, 0
0, 0
0, 0
0, 0
0, 0
#ENDOFDATA     end of spectrum data

File: ps__0567_0717304816_000rfs_shot_75.msa
#FORMAT      : EMSA/MAS spectral data file
#VERSION     : TC202v2.0 PIXL
#TITLE       : Novarupta (sol567) subset1
#DATE        : 02-11-2024      Date in the format DD-MMM-YYYY, for example 07-JUL-2010
#TIME        :             The time of day at which the spectrum was recorded, in 24-hour format
#OWNER       : PIXL Flight Model       (PIXL will use this to indicate which instrument took the data.)
#NPOINTS     : 4096     Number of data points in the spectrum (This can be zero for configuration only files)
#NCOLUMNS    : 2     Number of data columns in the spectrum (This can be zero for configuration only files)
#XUNITS      : eV
#YUNITS      : COUNTS
#DATATYPE    : YY
#XPERCHAN    : 7.862, 7.881   eV per channel (separate by commas if more than one detector)
#OFFSET      : 18.5, -22.4         eV of first channel  (separate by commas if more than one detector
#SIGNALTYPE  : XRF
#YP_TEMP     : -1.774
#LIVETIME    : 8.85271, 8.82183   seconds (separate by commas if more than one detector)
#REALTIME    : 10, 10.0   seconds (separate by commas if more than one detector)
#SPECTRUM    : start of spectrum data
0, 0
0, 0
0, 0
0, 0
0, 0
0, 0
0, 0
1, 0
2, 3
1, 0
2, 5
14, 10
12, 15
23, 30
34, 52
98, 144
448, 572
120, 126
29, 37
16, 37
68, 80
250, 358
115, 111
78, 93
202, 243
102, 130
83, 71
39, 31
9, 9
5, 14
25, 28
10, 15
22, 30
222, 274
300, 370
58, 54
43, 47
45, 50
10, 16
10, 15
21, 27
62, 69
27, 31
17, 11
12, 12
15, 21
6, 11
12, 11
10, 16
31, 36
26, 26
9, 16
16, 11
28, 45
57, 40
21, 14
30, 54
446, 543
1481, 1833
890, 920
103, 88
13, 15
17, 20
94, 115
218, 270
136, 123
16, 17
11, 9
9, 15
11, 9
6, 8
4, 4
7, 10
10, 10
17, 5
6, 7
3, 5
9, 9
16, 6
12, 17
6, 8
5, 6
6, 8
7, 7
2, 10
8, 8
6, 3
3, 2
5, 3
4, 6
5, 7
4, 4
4, 3
2, 4
2, 2
6, 4
2, 2
3, 8
0, 4
5, 3
0, 4
1, 0
1, 5
1, 2
0, 1
0, 3
1, 4
3, 2
2, 4
1, 4
5, 3
3, 2
3, 5
2, 2
0, 3
3, 2
3, 2
2, 0
1, 0
0, 2
0, 0
5, 2
2, 0
2, 0
1, 2
2, 1
5, 0
1, 1
1, 0
1, 0
1, 0
0, 1
2, 0
1, 1
0, 1
2, 2
0, 0
1, 1
0, 1
0, 1
2, 1
0, 0
0, 0
1, 2
0, 1
0, 1
0, 1
0, 0
0, 0
0, 0
0, 0
1, 1
0, 0
0, 0
0, 1
0, 1
0, 0
0, 1
0, 1
0, 0
0, 0
1, 0
0, 1
0, 0
0, 0
0, 0
1, 0
0, 0
0, 0
1, 1
0, 0
0, 1
0, 0
0, 0
0, 0
0, 1
0, 1
0, 0
0, 0
0, 0
0, 0
0, 0
0, 0
0, 0
0, 0
0, 0
0, 0
0, 0
0, 0
0, 0
0, 1
0, 0
0, 1
0, 0
0, 0
0, 0
0, 0
0, 0
0, 0
0, 0
0, 0
1, 0
0, 0
0, 0
0, 0
0, 0
0, 0
0, 0
0, 0
0, 0
0, 0
0, 0
0, 0
0, 0
0, 0
0, 0
0, 0
0, 0
0, 0
0, 0
0, 0
0, 0
0, 0
0, 0
0, 0
0, 0
0, 0
0, 0
0, 0
0, 0
0, 0
0, 0
0, 0
0, 0
0, 0
0, 0
0, 0
0, 0
0, 0
0, 0
0, 0
0, 0
0, 0
0, 0
0, 0
0, 0
0, 0
0, 0
0, 0
0, 0
0, 0
0, 0
0, 0
0, 0
0, 0
0, 0
0, 0
0, 0
0, 0
0, 0
0, 0
0, 0
0, 0
0, 0
0, 0
0, 0
0, 0
0, 0
0, 0
0, 0
0, 0
0, 0
0, 0
0, 0
0, 0
0, 0
0, 0
0, 0
0, 0
0, 0
0, 0
0, 0
0, 0
0, 0
0, 0
0, 0
0, 0
0, 0
0, 0
0, 0
0, 0
0, 0
0, 0
0, 0
#ENDOFDATA     end of spectrum data