Folder: data-repository/host_upload/02-11-2024/rqc/uplink1 (part 2)

File: ps__0567_0717304816_000rfs_shot_17.msa
#FORMAT      : EMSA/MAS spectral data file
#VERSION     : TC202v2.0 PIXL
#TITLE       : Novarupta (sol567) subset1
#DATE        : 02-11-2024      Date in the format DD-MMM-YYYY, for example 07-JUL-2010
#TIME        :             The time of day at which the spectrum was recorded, in 24-hour format
#OWNER       : PIXL Flight Model       (PIXL will use this to indicate which instrument took the data.)
#NPOINTS     : 4096     Number of data points in the spectrum (This can be zero for configuration only files)
#NCOLUMNS    : 2     Number of data columns in the spectrum (This can be zero for configuration only files)
#XUNITS      : eV
#YUNITS      : COUNTS
#DATATYPE    : YY
#XPERCHAN    : 7.862, 7.881   eV per channel (separate by commas if more than one detector)
#OFFSET      : 18.5, -22.4         eV of first channel  (separate by commas if more than one detector
#SIGNALTYPE  : XRF
#YP_TEMP     : -4.307
#LIVETIME    : 8.83748, 8.81917   seconds (separate by commas if more than one detector)
#REALTIME    : 10, 10.0   seconds (separate by commas if more than one detector)
#SPECTRUM    : start of spectrum data
0, 0
0, 0
0, 0
0, 0
0, 0
0, 0
0, 0
0, 1
5, 0
2, 3
8, 1
11, 13
6, 12
24, 35
44, 43
127, 143
410, 501
124, 119
38, 31
27, 12
72, 74
247, 323
94, 110
96, 107
223, 221
111, 133
57, 78
31, 21
8, 9
6, 9
34, 35
15, 18
35, 33
261, 287
268, 272
41, 48
56, 56
44, 45
10, 9
8, 10
24, 33
67, 68
33, 28
11, 24
15, 16
20, 26
8, 13
9, 19
19, 13
31, 38
22, 19
16, 11
19, 23
43, 47
41, 46
25, 22
54, 73
645, 775
1672, 1775
715, 664
69, 52
15, 9
22, 31
158, 156
241, 268
111, 105
11, 9
13, 10
13, 17
8, 6
8, 6
6, 5
3, 10
2, 6
6, 3
7, 8
7, 8
2, 8
11, 12
7, 8
5, 1
6, 7
7, 8
4, 3
7, 4
3, 6
8, 6
6, 5
1, 3
3, 6
5, 6
3, 5
6, 4
3, 1
3, 1
4, 1
3, 6
3, 2
4, 4
3, 3
1, 2
4, 5
4, 3
2, 2
2, 4
1, 4
0, 0
1, 3
1, 4
2, 3
3, 2
3, 4
1, 2
1, 3
0, 0
2, 5
4, 1
0, 1
1, 3
5, 0
0, 4
1, 1
1, 3
3, 3
3, 1
0, 1
0, 1
1, 0
2, 0
1, 1
0, 4
0, 3
1, 0
0, 0
0, 0
0, 0
2, 1
0, 1
1, 0
1, 1
0, 1
0, 0
3, 1
0, 0
0, 2
0, 0
1, 1
1, 0
1, 0
0, 0
0, 1
1, 1
3, 1
0, 1
0, 1
0, 1
0, 1
0, 0
0, 1
1, 0
1, 0
1, 0
0, 0
0, 0
0, 1
0, 0
0, 0
0, 1
0, 0
1, 0
0, 0
0, 0
1, 0
0, 0
0, 0
0, 0
0, 0
0, 1
0, 0
0, 0
1, 0
0, 0
0, 0
0, 0
1, 0
1, 0
0, 0
0, 0
0, 0
0, 0
0, 0
0, 0
0, 0
0, 0
0, 0
0, 0
0, 0
0, 0
0, 0
0, 0
0, 0
0, 1
0, 0
0, 0
0, 0
0, 0
0, 0
0, 0
0, 0
0, 0
0, 0
0, 0
0, 0
0, 0
0, 0
0, 0
0, 0
0, 0
0, 0
0, 0
0, 0
0, 0
0, 0
0, 0
0, 0
0, 0
0, 0
0, 0
0, 0
0, 0
0, 0
0, 0
0, 0
0, 0
0, 0
0, 0
0, 0
0, 0
0, 0
0, 0
0, 0
0, 0
0, 0
0, 0
0, 0
0, 0
0, 0
0, 0
0, 0
0, 0
0, 0
0, 0
0, 0
0, 0
0, 0
0, 0
0, 0
0, 0
0, 0
0, 0
0, 0
0, 0
0, 0
0, 0
0, 0
0, 0
0, 0
0, 0
0, 0
0, 0
0, 0
0, 0
0, 0
0, 0
0, 0
0, 0
0, 0
0, 0
0, 0
0, 0
0, 0
0, 0
0, 0
0, 0
0, 0
0, 0
0, 0
0, 0
0, 0
0, 0
0, 0
0, 0
0, 0
0, 0
#ENDOFDATA     end of spectrum data

File: ps__0567_0717304816_000rfs_shot_19.msa
#FORMAT      : EMSA/MAS spectral data file
#VERSION     : TC202v2.0 PIXL
#TITLE       : Novarupta (sol567) subset1
#DATE        : 02-11-2024      Date in the format DD-MMM-YYYY, for example 07-JUL-2010
#TIME        :             The time of day at which the spectrum was recorded, in 24-hour format
#OWNER       : PIXL Flight Model       (PIXL will use this to indicate which instrument took the data.)
#NPOINTS     : 4096     Number of data points in the spectrum (This can be zero for configuration only files)
#NCOLUMNS    : 2     Number of data columns in the spectrum (This can be zero for configuration only files)
#XUNITS      : eV
#YUNITS      : COUNTS
#DATATYPE    : YY
#XPERCHAN    : 7.862, 7.881   eV per channel (separate by commas if more than one detector)
#OFFSET      : 18.5, -22.4         eV of first channel  (separate by commas if more than one detector
#SIGNALTYPE  : XRF
#YP_TEMP     : -4.243
#LIVETIME    : 8.84589, 8.82829   seconds (separate by commas if more than one detector)
#REALTIME    : 10, 10.0   seconds (separate by commas if more than one detector)
#SPECTRUM    : start of spectrum data
0, 0
0, 0
0, 0
0, 0
0, 0
0, 0
0, 0
0, 1
5, 1
6, 2
5, 1
18, 8
14, 12
25, 33
39, 38
145, 141
468, 468
105, 110
28, 33
15, 20
72, 74
270, 308
107, 84
101, 82
210, 234
130, 108
70, 65
27, 19
15, 13
12, 9
20, 25
8, 15
34, 36
247, 268
279, 271
54, 41
44, 41
52, 41
12, 9
9, 6
27, 32
66, 68
31, 27
12, 11
11, 13
19, 15
10, 13
7, 14
21, 17
28, 34
21, 20
11, 15
13, 18
47, 52
38, 48
14, 18
57, 63
638, 774
1726, 1724
744, 643
82, 65
17, 9
25, 18
132, 166
290, 272
119, 91
10, 9
15, 8
9, 11
9, 6
6, 5
8, 7
8, 7
4, 7
10, 9
5, 3
11, 5
6, 8
5, 10
7, 4
5, 6
6, 7
9, 6
4, 7
5, 8
7, 4
8, 6
3, 6
4, 2
5, 2
5, 6
10, 4
2, 5
7, 6
3, 2
3, 4
3, 4
6, 5
5, 2
3, 4
4, 2
3, 1
6, 2
2, 2
3, 2
4, 4
0, 3
1, 1
3, 2
2, 2
2, 4
1, 6
2, 1
2, 1
2, 2
2, 1
2, 5
2, 0
1, 3
0, 1
2, 2
2, 2
4, 2
1, 2
1, 1
0, 0
2, 0
2, 1
0, 1
2, 1
0, 2
0, 1
0, 0
1, 0
0, 0
0, 1
0, 0
0, 1
0, 0
1, 0
0, 0
0, 0
0, 1
0, 2
1, 0
0, 1
1, 0
0, 2
0, 2
1, 0
0, 2
0, 0
0, 0
0, 0
1, 0
0, 0
1, 1
0, 0
0, 0
0, 0
0, 1
0, 1
0, 0
0, 0
0, 0
0, 0
0, 0
0, 1
0, 0
0, 0
0, 0
0, 0
0, 0
0, 0
0, 0
1, 0
0, 0
0, 0
0, 0
0, 0
0, 0
0, 0
0, 0
1, 0
0, 0
0, 0
0, 0
0, 0
0, 0
0, 0
0, 0
0, 0
0, 0
0, 0
0, 0
0, 0
0, 0
0, 0
0, 0
0, 0
0, 0
0, 0
0, 0
0, 0
0, 0
0, 0
0, 0
0, 0
0, 0
1, 0
0, 0
0, 0
0, 0
0, 0
0, 0
0, 0
0, 0
0, 0
0, 0
0, 0
0, 0
0, 0
0, 0
0, 0
0, 0
0, 0
0, 0
0, 0
0, 0
0, 0
0, 0
0, 0
0, 0
0, 0
0, 0
0, 0
0, 0
0, 0
0, 0
0, 0
0, 0
0, 0
0, 0
0, 0
0, 0
0, 0
0, 0
0, 0
0, 0
0, 0
0, 0
0, 0
0, 0
0, 0
0, 0
0, 0
0, 0
0, 0
0, 0
0, 0
0, 0
0, 0
0, 0
0, 0
0, 0
0, 0
0, 0
0, 0
0, 0
0, 0
0, 0
0, 0
0, 0
0, 0
0, 0
0, 0
0, 0
0, 0
0, 0
0, 0
0, 0
0, 0
0, 0
0, 0
0, 0
0, 0
0, 0
0, 0
0, 0
0, 0
0, 0
0, 0
0, 0
0, 0
#ENDOFDATA     end of spectrum data

File: ps__0567_0717304816_000rfs_shot_20.msa
#FORMAT      : EMSA/MAS spectral data file
#VERSION     : TC202v2.0 PIXL
#TITLE       : Novarupta (sol567) subset1
#DATE        : 02-11-2024      Date in the format DD-MMM-YYYY, for example 07-JUL-2010
#TIME        :             The time of day at which the spectrum was recorded, in 24-hour format
#OWNER       : PIXL Flight Model       (PIXL will use this to indicate which instrument took the data.)
#NPOINTS     : 4096     Number of data points in the spectrum (This can be zero for configuration only files)
#NCOLUMNS    : 2     Number of data columns in the spectrum (This can be zero for configuration only files)
#XUNITS      : eV
#YUNITS      : COUNTS
#DATATYPE    : YY
#XPERCHAN    : 7.862, 7.881   eV per channel (separate by commas if more than one detector)
#OFFSET      : 18.5, -22.4         eV of first channel  (separate by commas if more than one detector
#SIGNALTYPE  : XRF
#YP_TEMP     : -4.211
#LIVETIME    : 8.83494, 8.83081   seconds (separate by commas if more than one detector)
#REALTIME    : 10, 10.0   seconds (separate by commas if more than one detector)
#SPECTRUM    : start of spectrum data
0, 0
0, 0
0, 0
0, 0
0, 0
0, 0
0, 0
1, 1
3, 7
2, 1
4, 4
9, 4
11, 12
25, 22
44, 32
144, 151
448, 457
129, 113
28, 22
22, 16
76, 75
319, 305
105, 118
86, 95
224, 256
113, 123
55, 62
17, 26
14, 6
9, 12
27, 22
18, 16
30, 24
262, 236
280, 297
39, 47
53, 46
43, 58
13, 13
12, 12
28, 34
56, 51
27, 35
15, 11
17, 15
18, 21
18, 8
12, 15
11, 15
32, 34
12, 16
7, 13
12, 10
46, 42
42, 30
13, 17
69, 46
579, 716
1691, 1745
736, 712
79, 63
21, 19
22, 29
121, 144
269, 269
105, 103
14, 14
8, 6
16, 13
4, 7
7, 7
9, 5
6, 9
4, 4
6, 4
2, 2
5, 7
2, 8
8, 12
12, 8
8, 4
6, 7
6, 4
5, 5
5, 7
5, 5
4, 3
7, 8
4, 4
7, 7
2, 5
5, 3
5, 5
2, 1
1, 6
3, 3
6, 4
3, 3
0, 3
5, 0
1, 4
2, 7
3, 0
2, 2
1, 4
2, 4
3, 2
2, 4
3, 4
0, 2
4, 2
0, 3
1, 3
3, 2
5, 3
1, 3
1, 1
2, 2
2, 4
1, 2
2, 3
0, 2
3, 1
2, 1
1, 5
2, 1
1, 1
0, 1
0, 0
0, 2
0, 0
1, 1
2, 0
1, 3
0, 3
0, 3
1, 0
3, 0
0, 0
2, 0
2, 1
0, 2
1, 0
1, 0
1, 1
1, 1
0, 0
1, 0
0, 0
1, 2
0, 1
0, 0
0, 0
1, 0
0, 1
0, 1
0, 0
0, 0
0, 0
0, 0
1, 1
0, 2
2, 1
0, 0
1, 0
0, 1
0, 0
1, 0
1, 0
2, 0
0, 1
0, 0
1, 0
0, 0
0, 0
0, 0
0, 0
0, 0
0, 0
0, 0
0, 0
1, 0
0, 0
0, 0
0, 0
0, 0
0, 0
0, 0
0, 0
0, 0
0, 0
0, 1
0, 0
0, 0
0, 0
0, 0
0, 0
0, 0
0, 0
0, 0
0, 0
0, 0
0, 0
0, 0
0, 1
0, 0
0, 0
0, 0
0, 0
0, 0
0, 0
0, 0
0, 0
0, 0
0, 1
0, 0
0, 0
0, 0
0, 0
0, 0
0, 0
0, 0
0, 0
0, 0
0, 0
0, 0
0, 0
0, 0
0, 0
0, 0
0, 0
0, 0
0, 0
0, 0
0, 0
0, 0
0, 0
0, 0
0, 0
0, 0
0, 0
0, 0
0, 0
0, 0
0, 0
0, 0
0, 0
0, 0
0, 0
0, 0
0, 0
0, 0
0, 0
0, 0
0, 0
0, 0
0, 0
0, 0
0, 0
0, 0
0, 0
0, 0
0, 0
0, 0
0, 0
0, 0
0, 0
0, 0
0, 0
0, 0
0, 0
0, 0
0, 0
0, 0
0, 0
0, 0
0, 0
0, 0
0, 0
0, 0
0, 0
0, 0
0, 0
0, 0
0, 0
0, 0
0, 0
0, 0
0, 0
0, 0
0, 0
0, 0
0, 0
0, 0
#ENDOFDATA     end of spectrum data

File: ps__0567_0717304816_000rfs_shot_21.msa
#FORMAT      : EMSA/MAS spectral data file
#VERSION     : TC202v2.0 PIXL
#TITLE       : Novarupta (sol567) subset1
#DATE        : 02-11-2024      Date in the format DD-MMM-YYYY, for example 07-JUL-2010
#TIME        :             The time of day at which the spectrum was recorded, in 24-hour format
#OWNER       : PIXL Flight Model       (PIXL will use this to indicate which instrument took the data.)
#NPOINTS     : 4096     Number of data points in the spectrum (This can be zero for configuration only files)
#NCOLUMNS    : 2     Number of data columns in the spectrum (This can be zero for configuration only files)
#XUNITS      : eV
#YUNITS      : COUNTS
#DATATYPE    : YY
#XPERCHAN    : 7.862, 7.881   eV per channel (separate by commas if more than one detector)
#OFFSET      : 18.5, -22.4         eV of first channel  (separate by commas if more than one detector
#SIGNALTYPE  : XRF
#YP_TEMP     : -4.115
#LIVETIME    : 8.83979, 8.64063   seconds (separate by commas if more than one detector)
#REALTIME    : 10, 10.0   seconds (separate by commas if more than one detector)
#SPECTRUM    : start of spectrum data
0, 0
0, 0
0, 0
0, 0
0, 0
0, 0
0, 0
0, 0
5, 5
2, 3
1, 2
11, 17
14, 11
22, 21
39, 37
133, 132
479, 483
129, 107
31, 41
16, 15
73, 81
320, 296
101, 113
112, 104
232, 292
137, 118
67, 61
23, 26
2, 11
9, 14
35, 24
13, 11
24, 33
246, 317
254, 290
46, 40
47, 52
36, 41
9, 12
9, 20
26, 25
59, 73
28, 21
15, 17
17, 16
17, 29
9, 16
13, 11
22, 21
31, 26
21, 25
11, 6
14, 10
42, 41
39, 40
32, 18
55, 64
626, 714
1645, 1720
751, 706
90, 72
15, 14
26, 23
147, 144
262, 246
113, 114
12, 21
13, 9
7, 7
10, 9
7, 3
6, 6
8, 4
4, 8
3, 5
8, 11
1, 5
9, 9
12, 8
7, 3
4, 7
6, 6
5, 2
4, 1
3, 7
6, 2
7, 3
4, 8
3, 6
5, 3
4, 4
4, 6
4, 6
5, 4
1, 8
3, 4
2, 5
0, 5
2, 1
3, 1
6, 1
2, 3
1, 4
2, 1
3, 2
3, 0
0, 2
2, 2
6, 2
8, 4
1, 0
3, 1
2, 1
1, 2
3, 4
3, 2
4, 4
1, 2
0, 1
4, 2
1, 3
2, 2
0, 2
2, 3
0, 0
1, 2
0, 2
2, 1
1, 1
0, 3
2, 0
2, 0
0, 1
0, 0
3, 1
0, 0
0, 3
1, 1
0, 1
0, 0
0, 1
1, 2
0, 0
1, 0
0, 0
1, 0
0, 0
0, 2
1, 0
0, 0
1, 1
0, 1
0, 0
0, 0
1, 0
1, 2
1, 0
1, 0
0, 0
0, 0
0, 0
0, 0
0, 0
0, 0
0, 0
0, 0
0, 0
0, 0
1, 1
1, 0
0, 1
0, 0
0, 1
0, 0
0, 0
1, 1
0, 0
0, 0
0, 0
0, 0
0, 0
1, 0
0, 0
0, 0
0, 0
0, 0
0, 0
0, 0
0, 0
0, 0
0, 0
0, 1
0, 0
0, 0
1, 0
0, 0
1, 0
0, 0
1, 0
0, 0
0, 0
0, 0
0, 0
0, 0
0, 0
0, 0
0, 0
0, 0
0, 0
0, 0
0, 0
0, 0
0, 0
0, 0
0, 0
0, 0
0, 0
0, 0
0, 0
0, 0
0, 0
0, 0
0, 0
0, 0
0, 0
0, 0
0, 0
0, 0
0, 0
0, 0
0, 0
0, 0
0, 0
0, 0
0, 0
0, 0
0, 0
0, 0
0, 0
0, 0
0, 0
0, 0
0, 0
0, 0
0, 0
0, 0
0, 0
0, 0
0, 0
0, 0
0, 0
0, 0
0, 0
0, 0
0, 0
0, 0
0, 0
0, 0
0, 0
0, 0
0, 0
0, 0
0, 0
0, 0
0, 0
0, 0
0, 0
0, 0
0, 0
0, 0
0, 0
0, 0
0, 0
0, 0
0, 0
0, 0
0, 0
0, 0
0, 0
0, 0
0, 0
0, 0
0, 0
0, 0
0, 0
0, 0
0, 0
0, 0
0, 0
0, 0
0, 0
0, 0
0, 0
0, 0
#ENDOFDATA     end of spectrum data

File: ps__0567_0717304816_000rfs_shot_22.msa
#FORMAT      : EMSA/MAS spectral data file
#VERSION     : TC202v2.0 PIXL
#TITLE       : Novarupta (sol567) subset1
#DATE        : 02-11-2024      Date in the format DD-MMM-YYYY, for example 07-JUL-2010
#TIME        :             The time of day at which the spectrum was recorded, in 24-hour format
#OWNER       : PIXL Flight Model       (PIXL will use this to indicate which instrument took the data.)
#NPOINTS     : 4096     Number of data points in the spectrum (This can be zero for configuration only files)
#NCOLUMNS    : 2     Number of data columns in the spectrum (This can be zero for configuration only files)
#XUNITS      : eV
#YUNITS      : COUNTS
#DATATYPE    : YY
#XPERCHAN    : 7.862, 7.881   eV per channel (separate by commas if more than one detector)
#OFFSET      : 18.5, -22.4         eV of first channel  (separate by commas if more than one detector
#SIGNALTYPE  : XRF
#YP_TEMP     : -4.115
#LIVETIME    : 8.84632, 8.8202   seconds (separate by commas if more than one detector)
#REALTIME    : 10, 10.0   seconds (separate by commas if more than one detector)
#SPECTRUM    : start of spectrum data
0, 0
0, 0
0, 0
0, 0
0, 0
0, 0
0, 0
1, 1
6, 3
3, 6
4, 3
10, 19
5, 11
31, 23
39, 48
140, 141
415, 469
110, 95
34, 42
18, 23
88, 72
264, 318
101, 117
78, 91
226, 247
106, 129
76, 70
24, 34
10, 5
8, 10
29, 28
14, 13
40, 28
262, 296
301, 273
57, 49
45, 55
38, 45
11, 13
9, 6
36, 36
61, 59
26, 37
15, 9
18, 15
19, 24
10, 11
7, 8
16, 24
31, 42
27, 12
14, 13
25, 14
48, 33
45, 48
24, 17
60, 61
556, 659
1702, 1760
799, 663
94, 66
11, 10
25, 33
126, 151
227, 242
111, 98
15, 13
11, 7
11, 5
8, 14
7, 6
8, 8
6, 6
6, 6
5, 5
7, 6
9, 5
8, 8
9, 11
13, 10
7, 7
6, 13
6, 9
4, 4
3, 5
7, 7
2, 7
5, 11
4, 6
2, 3
2, 4
4, 4
5, 4
5, 3
4, 4
3, 2
2, 5
3, 5
1, 2
7, 5
6, 3
2, 3
2, 2
1, 6
4, 3
3, 1
7, 2
2, 2
0, 4
1, 3
2, 0
3, 1
3, 1
2, 2
4, 2
2, 1
4, 2
2, 1
1, 2
4, 0
1, 1
0, 0
2, 2
0, 1
2, 1
2, 2
1, 2
2, 3
5, 2
1, 1
0, 0
0, 2
0, 1
2, 0
2, 3
1, 0
2, 1
0, 5
1, 1
0, 0
0, 0
1, 1
1, 1
1, 0
0, 0
1, 0
1, 0
0, 0
0, 0
0, 0
0, 1
0, 0
0, 0
1, 0
1, 0
1, 0
0, 2
0, 0
0, 1
0, 0
0, 0
0, 0
0, 0
0, 0
0, 1
0, 0
0, 0
0, 0
1, 0
0, 0
0, 0
0, 0
0, 3
0, 0
0, 0
0, 0
0, 0
0, 0
0, 0
0, 0
0, 0
0, 0
0, 0
0, 0
0, 1
0, 1
0, 0
0, 0
0, 1
0, 0
0, 0
0, 0
0, 0
0, 0
1, 0
0, 0
0, 0
1, 0
0, 0
0, 0
0, 0
0, 0
0, 1
0, 0
0, 0
0, 0
0, 0
0, 0
0, 0
0, 0
0, 0
0, 0
0, 0
0, 0
0, 0
0, 0
0, 0
0, 0
0, 0
0, 0
0, 0
0, 0
0, 0
0, 0
1, 0
0, 0
0, 0
0, 0
0, 0
0, 0
0, 0
0, 0
0, 0
0, 0
0, 0
0, 0
0, 0
0, 0
0, 0
0, 0
0, 0
0, 0
0, 0
0, 0
0, 0
0, 0
0, 0
0, 0
0, 0
0, 0
0, 0
0, 0
0, 0
0, 0
0, 0
0, 0
0, 0
0, 0
0, 0
0, 0
0, 0
0, 0
0, 0
0, 0
0, 0
0, 0
0, 0
0, 0
0, 0
0, 0
0, 0
0, 0
0, 0
0, 0
0, 0
0, 0
0, 0
0, 0
0, 0
0, 0
0, 0
0, 0
0, 0
0, 0
0, 0
0, 0
0, 0
0, 0
0, 0
0, 0
0, 0
0, 0
0, 0
0, 0
#ENDOFDATA     end of spectrum data

File: ps__0567_0717304816_000rfs_shot_24.msa
#FORMAT      : EMSA/MAS spectral data file
#VERSION     : TC202v2.0 PIXL
#TITLE       : Novarupta (sol567) subset1
#DATE        : 02-11-2024      Date in the format DD-MMM-YYYY, for example 07-JUL-2010
#TIME        :             The time of day at which the spectrum was recorded, in 24-hour format
#OWNER       : PIXL Flight Model       (PIXL will use this to indicate which instrument took the data.)
#NPOINTS     : 4096     Number of data points in the spectrum (This can be zero for configuration only files)
#NCOLUMNS    : 2     Number of data columns in the spectrum (This can be zero for configuration only files)
#XUNITS      : eV
#YUNITS      : COUNTS
#DATATYPE    : YY
#XPERCHAN    : 7.862, 7.881   eV per channel (separate by commas if more than one detector)
#OFFSET      : 18.5, -22.4         eV of first channel  (separate by commas if more than one detector
#SIGNALTYPE  : XRF
#YP_TEMP     : -4.179
#LIVETIME    : 8.83634, 8.83063   seconds (separate by commas if more than one detector)
#REALTIME    : 10, 10.0   seconds (separate by commas if more than one detector)
#SPECTRUM    : start of spectrum data
0, 0
0, 0
0, 0
0, 0
0, 0
0, 0
0, 1
1, 1
4, 4
3, 6
5, 6
9, 6
8, 11
21, 28
43, 39
125, 137
457, 503
97, 101
37, 35
20, 25
65, 79
280, 337
130, 107
100, 105
253, 249
111, 95
63, 55
30, 30
12, 9
7, 12
24, 32
10, 15
35, 27
269, 263
265, 274
34, 51
41, 48
41, 57
14, 16
11, 7
28, 31
65, 64
23, 31
11, 16
17, 15
16, 13
10, 19
15, 4
21, 16
19, 25
24, 14
7, 9
18, 17
47, 56
45, 40
17, 14
47, 66
583, 719
1594, 1865
782, 768
98, 56
20, 7
26, 25
135, 126
253, 249
91, 89
22, 12
7, 10
9, 14
1, 9
5, 8
4, 3
7, 4
7, 6
7, 9
9, 10
6, 9
9, 8
4, 12
9, 7
7, 7
5, 6
7, 3
5, 5
5, 6
2, 8
6, 8
8, 5
4, 4
4, 4
3, 3
4, 9
2, 3
5, 7
9, 3
5, 1
5, 7
3, 2
1, 4
3, 5
4, 2
4, 0
0, 2
3, 5
3, 1
4, 1
3, 2
1, 3
1, 3
3, 3
2, 1
0, 1
2, 4
3, 1
4, 4
4, 3
2, 2
3, 3
2, 5
1, 3
1, 4
0, 4
1, 6
1, 1
1, 0
1, 0
3, 3
1, 3
1, 1
0, 1
0, 3
1, 3
1, 1
0, 1
1, 3
0, 5
2, 1
0, 0
2, 0
1, 0
0, 2
0, 1
0, 1
0, 0
2, 0
0, 0
0, 0
1, 0
2, 0
0, 0
0, 0
2, 0
0, 1
0, 0
1, 0
0, 0
0, 1
0, 0
0, 0
0, 0
1, 0
0, 2
1, 0
0, 0
0, 0
0, 0
0, 0
0, 1
0, 0
0, 0
0, 0
1, 0
0, 0
0, 1
0, 0
0, 0
0, 0
1, 1
0, 0
0, 1
0, 1
0, 0
0, 0
0, 0
0, 0
0, 0
0, 0
0, 0
0, 0
0, 0
0, 0
0, 0
0, 0
0, 0
0, 0
0, 0
0, 0
0, 1
0, 0
0, 1
0, 0
0, 0
0, 0
0, 0
0, 0
0, 0
0, 0
0, 0
0, 0
0, 0
1, 0
0, 0
0, 0
0, 0
0, 0
0, 0
0, 0
0, 0
0, 0
0, 0
0, 0
0, 0
0, 0
0, 0
0, 0
0, 0
0, 0
0, 0
0, 0
0, 0
0, 1
0, 0
0, 0
0, 0
0, 0
0, 0
0, 0
0, 0
0, 0
0, 0
0, 0
0, 0
0, 0
0, 0
0, 0
0, 0
0, 0
0, 0
0, 0
0, 0
0, 0
0, 0
0, 0
0, 0
0, 0
0, 0
0, 0
0, 0
0, 0
0, 0
0, 0
0, 0
0, 0
0, 0
0, 0
0, 0
0, 0
0, 0
0, 0
0, 0
0, 0
0, 0
0, 0
0, 0
0, 0
0, 0
0, 0
0, 0
0, 0
0, 0
0, 0
0, 0
0, 0
0, 0
0, 0
0, 0
0, 0
0, 0
0, 0
0, 0
0, 0
0, 0
0, 0
0, 0
#ENDOFDATA     end of spectrum data

File: ps__0567_0717304816_000rfs_shot_25.msa
#FORMAT      : EMSA/MAS spectral data file
#VERSION     : TC202v2.0 PIXL
#TITLE       : Novarupta (sol567) subset1
#DATE        : 02-11-2024      Date in the format DD-MMM-YYYY, for example 07-JUL-2010
#TIME        :             The time of day at which the spectrum was recorded, in 24-hour format
#OWNER       : PIXL Flight Model       (PIXL will use this to indicate which instrument took the data.)
#NPOINTS     : 4096     Number of data points in the spectrum (This can be zero for configuration only files)
#NCOLUMNS    : 2     Number of data columns in the spectrum (This can be zero for configuration only files)
#XUNITS      : eV
#YUNITS      : COUNTS
#DATATYPE    : YY
#XPERCHAN    : 7.862, 7.881   eV per channel (separate by commas if more than one detector)
#OFFSET      : 18.5, -22.4         eV of first channel  (separate by commas if more than one detector
#SIGNALTYPE  : XRF
#YP_TEMP     : -4.275
#LIVETIME    : 8.83708, 8.82704   seconds (separate by commas if more than one detector)
#REALTIME    : 10, 10.0   seconds (separate by commas if more than one detector)
#SPECTRUM    : start of spectrum data
0, 0
0, 0
0, 0
0, 0
0, 0
0, 0
0, 0
1, 1
3, 4
1, 2
3, 2
9, 8
6, 22
30, 26
52, 45
144, 148
488, 487
116, 106
38, 35
20, 26
64, 72
280, 285
116, 107
72, 103
210, 221
98, 105
74, 73
25, 27
9, 8
6, 17
25, 30
16, 12
23, 43
270, 284
289, 302
38, 48
42, 58
30, 39
7, 16
8, 9
19, 31
71, 67
26, 31
12, 22
9, 13
23, 17
15, 11
10, 9
16, 21
18, 35
19, 29
11, 3
24, 11
44, 32
47, 37
16, 24
61, 63
567, 703
1600, 1816
777, 718
70, 54
7, 22
24, 25
140, 136
238, 270
114, 100
22, 17
7, 9
17, 12
8, 6
6, 6
6, 8
5, 4
5, 8
13, 10
5, 8
4, 8
4, 3
11, 10
9, 10
6, 5
7, 6
8, 8
3, 7
1, 11
4, 3
5, 5
4, 0
4, 1
3, 6
4, 5
3, 5
5, 3
8, 3
2, 3
2, 5
4, 5
7, 3
4, 2
4, 0
4, 6
2, 3
3, 8
3, 3
1, 0
0, 3
2, 4
4, 0
3, 1
3, 1
2, 6
2, 2
1, 2
0, 1
1, 1
5, 2
2, 1
2, 3
1, 3
2, 0
3, 1
3, 1
0, 0
2, 2
2, 1
1, 2
0, 3
2, 0
1, 0
1, 0
1, 4
1, 0
2, 0
0, 0
0, 0
1, 0
2, 0
1, 1
1, 1
0, 1
0, 1
0, 0
1, 0
0, 0
0, 0
0, 1
0, 0
0, 1
0, 0
0, 1
0, 0
0, 0
0, 0
0, 0
0, 0
0, 0
1, 0
0, 1
0, 1
0, 0
0, 0
1, 0
0, 1
0, 0
1, 0
1, 0
1, 1
0, 0
0, 1
0, 0
0, 0
1, 0
0, 0
0, 0
0, 0
1, 0
0, 0
0, 0
0, 0
0, 0
0, 0
0, 0
0, 0
0, 0
0, 1
0, 0
0, 0
0, 1
0, 0
0, 0
0, 0
0, 0
0, 1
0, 1
0, 0
0, 0
0, 0
0, 0
1, 0
0, 0
0, 0
0, 0
0, 0
0, 0
0, 0
0, 0
0, 0
0, 0
0, 0
0, 0
0, 0
0, 0
0, 0
0, 0
0, 0
0, 0
0, 0
0, 0
0, 0
0, 0
0, 0
0, 0
0, 0
0, 0
0, 0
0, 0
0, 0
0, 0
0, 0
0, 0
0, 0
0, 0
0, 0
0, 0
0, 0
0, 0
0, 0
0, 0
0, 0
0, 0
0, 0
0, 0
0, 0
0, 0
0, 0
0, 0
0, 0
0, 0
0, 0
0, 0
0, 0
0, 0
0, 0
0, 0
0, 0
0, 0
0, 0
0, 0
0, 0
0, 0
0, 0
0, 0
0, 0
0, 0
0, 0
0, 0
0, 0
0, 0
0, 0
0, 0
0, 0
0, 0
0, 0
0, 0
0, 0
0, 0
0, 0
0, 0
0, 0
0, 0
0, 0
0, 0
0, 0
0, 0
0, 0
0, 0
0, 0
0, 0
0, 0
0, 0
0, 0
0, 0
0, 0
0, 0
#ENDOFDATA     end of spectrum data

File: ps__0567_0717304816_000rfs_shot_26.msa
#FORMAT      : EMSA/MAS spectral data file
#VERSION     : TC202v2.0 PIXL
#TITLE       : Novarupta (sol567) subset1
#DATE        : 02-11-2024      Date in the format DD-MMM-YYYY, for example 07-JUL-2010
#TIME        :             The time of day at which the spectrum was recorded, in 24-hour format
#OWNER       : PIXL Flight Model       (PIXL will use this to indicate which instrument took the data.)
#NPOINTS     : 4096     Number of data points in the spectrum (This can be zero for configuration only files)
#NCOLUMNS    : 2     Number of data columns in the spectrum (This can be zero for configuration only files)
#XUNITS      : eV
#YUNITS      : COUNTS
#DATATYPE    : YY
#XPERCHAN    : 7.862, 7.881   eV per channel (separate by commas if more than one detector)
#OFFSET      : 18.5, -22.4         eV of first channel  (separate by commas if more than one detector
#SIGNALTYPE  : XRF
#YP_TEMP     : -4.243
#LIVETIME    : 8.83516, 8.83037   seconds (separate by commas if more than one detector)
#REALTIME    : 10, 10.0   seconds (separate by commas if more than one detector)
#SPECTRUM    : start of spectrum data
0, 0
0, 0
0, 0
0, 0
0, 0
0, 0
0, 0
1, 0
5, 2
1, 6
0, 2
9, 11
14, 10
22, 25
39, 44
146, 133
511, 534
128, 115
35, 27
26, 20
83, 83
299, 306
110, 117
81, 97
226, 221
107, 124
65, 57
32, 37
14, 13
11, 9
26, 24
16, 15
16, 31
234, 308
311, 318
40, 38
47, 47
53, 44
14, 10
14, 10
19, 26
56, 58
27, 37
22, 13
11, 21
17, 22
15, 17
8, 8
18, 13
26, 30
28, 23
14, 17
15, 15
38, 41
42, 60
19, 25
52, 54
607, 740
1611, 1846
793, 716
55, 61
11, 15
36, 38
126, 148
268, 283
127, 114
18, 9
8, 5
14, 14
5, 10
5, 7
6, 5
4, 4
13, 9
4, 7
10, 7
4, 8
12, 8
8, 10
14, 9
8, 10
6, 10
2, 6
9, 8
7, 1
4, 9
4, 8
8, 6
5, 8
5, 4
4, 6
4, 3
5, 4
1, 3
4, 2
5, 5
3, 4
3, 1
1, 5
5, 5
1, 2
5, 2
4, 3
1, 3
2, 3
2, 2
3, 1
2, 2
3, 3
3, 1
2, 4
3, 1
2, 1
0, 1
3, 2
3, 1
1, 5
1, 3
2, 1
0, 3
1, 1
3, 2
1, 2
2, 2
1, 0
0, 2
0, 4
0, 1
1, 0
1, 1
1, 1
0, 1
2, 3
1, 0
1, 1
0, 0
1, 0
0, 0
2, 1
0, 0
1, 1
1, 1
0, 0
0, 1
3, 0
0, 0
1, 0
0, 1
0, 0
1, 1
2, 2
0, 1
0, 1
0, 0
1, 0
0, 0
3, 0
1, 0
0, 0
0, 0
1, 0
0, 1
0, 0
0, 1
0, 0
0, 0
0, 1
0, 1
0, 0
0, 1
0, 0
0, 0
0, 1
0, 1
1, 0
0, 0
1, 0
0, 1
0, 0
0, 0
0, 0
0, 0
1, 0
1, 0
0, 0
0, 0
0, 0
0, 0
0, 0
0, 0
0, 0
0, 0
1, 0
0, 0
0, 0
0, 0
1, 0
0, 0
0, 0
0, 0
0, 0
0, 0
0, 0
0, 0
0, 0
0, 0
0, 0
0, 0
0, 0
0, 1
0, 0
0, 0
0, 0
0, 0
0, 0
0, 0
0, 0
0, 0
0, 0
0, 0
0, 0
0, 0
0, 0
0, 0
0, 0
0, 0
0, 0
0, 0
0, 0
0, 0
0, 0
0, 0
0, 0
0, 0
0, 0
0, 0
0, 0
0, 0
0, 0
0, 0
0, 0
0, 0
0, 0
0, 0
0, 0
0, 0
0, 0
0, 0
0, 0
0, 0
0, 0
0, 0
0, 0
0, 0
0, 0
0, 0
0, 0
0, 0
0, 0
0, 0
0, 0
0, 0
0, 0
0, 0
0, 0
0, 0
0, 0
0, 0
0, 0
0, 0
0, 0
0, 0
0, 0
0, 0
0, 0
0, 0
0, 0
0, 0
0, 0
0, 0
0, 0
0, 0
0, 0
0, 0
0, 0
0, 0
0, 0
0, 0
0, 0
0, 0
0, 0
0, 0
0, 0
0, 0
#ENDOFDATA     end of spectrum data

File: ps__0567_0717304816_000rfs_shot_27.msa
#FORMAT      : EMSA/MAS spectral data file
#VERSION     : TC202v2.0 PIXL
#TITLE       : Novarupta (sol567) subset1
#DATE        : 02-11-2024      Date in the format DD-MMM-YYYY, for example 07-JUL-2010
#TIME        :             The time of day at which the spectrum was recorded, in 24-hour format
#OWNER       : PIXL Flight Model       (PIXL will use this to indicate which instrument took the data.)
#NPOINTS     : 4096     Number of data points in the spectrum (This can be zero for configuration only files)
#NCOLUMNS    : 2     Number of data columns in the spectrum (This can be zero for configuration only files)
#XUNITS      : eV
#YUNITS      : COUNTS
#DATATYPE    : YY
#XPERCHAN    : 7.862, 7.881   eV per channel (separate by commas if more than one detector)
#OFFSET      : 18.5, -22.4         eV of first channel  (separate by commas if more than one detector
#SIGNALTYPE  : XRF
#YP_TEMP     : -4.211
#LIVETIME    : 8.83118, 8.81731   seconds (separate by commas if more than one detector)
#REALTIME    : 10, 10.0   seconds (separate by commas if more than one detector)
#SPECTRUM    : start of spectrum data
0, 0
0, 0
0, 0
0, 0
0, 0
0, 0
0, 0
0, 0
2, 5
3, 2
3, 4
11, 14
9, 14
19, 31
36, 41
143, 142
498, 494
102, 96
29, 25
31, 22
71, 64
297, 331
113, 123
64, 96
230, 229
103, 103
57, 61
21, 25
11, 9
5, 9
20, 33
14, 10
41, 41
271, 297
294, 286
49, 47
43, 48
44, 43
11, 16
9, 10
23, 29
56, 60
32, 42
16, 10
15, 9
12, 21
14, 12
7, 12
16, 13
29, 36
23, 25
13, 5
11, 16
34, 44
36, 30
21, 26
42, 71
594, 702
1647, 1814
783, 795
76, 52
16, 20
29, 31
121, 135
257, 298
114, 125
18, 23
10, 7
6, 15
8, 6
6, 6
5, 8
5, 7
5, 9
7, 3
12, 9
7, 4
4, 7
6, 12
14, 11
10, 8
7, 6
6, 8
4, 11
7, 2
8, 5
9, 5
3, 2
3, 7
2, 1
3, 4
6, 4
6, 6
3, 3
3, 6
5, 3
2, 4
4, 1
5, 4
2, 1
3, 4
2, 4
0, 2
3, 2
4, 3
2, 0
2, 3
3, 3
5, 2
3, 0
1, 3
1, 3
3, 3
0, 1
3, 3
2, 3
3, 1
2, 1
0, 1
1, 2
3, 2
0, 3
4, 2
2, 4
1, 3
2, 0
2, 2
1, 1
0, 1
0, 0
0, 2
1, 3
1, 0
1, 1
1, 0
1, 1
2, 0
0, 2
2, 2
0, 1
0, 1
1, 0
1, 0
0, 0
1, 0
0, 0
0, 1
0, 1
0, 0
0, 0
1, 0
0, 0
2, 0
0, 0
0, 0
1, 0
0, 0
0, 1
0, 0
0, 0
0, 0
1, 0
1, 0
0, 0
0, 1
0, 0
0, 1
0, 1
0, 0
0, 0
1, 0
0, 0
0, 0
0, 0
0, 0
0, 0
1, 0
1, 0
0, 0
0, 0
0, 0
0, 0
0, 0
0, 2
0, 0
1, 1
0, 0
0, 0
0, 0
0, 0
0, 0
0, 0
0, 0
0, 0
0, 0
0, 0
0, 0
0, 0
0, 0
1, 0
0, 0
0, 0
0, 0
0, 0
0, 0
1, 0
0, 0
0, 0
0, 0
0, 0
0, 0
0, 0
0, 0
0, 0
0, 0
0, 0
0, 0
0, 0
0, 0
0, 0
0, 0
0, 0
0, 0
0, 0
0, 0
0, 0
0, 0
0, 0
0, 0
0, 0
0, 0
0, 0
0, 0
0, 0
0, 0
0, 0
0, 0
0, 0
0, 0
0, 0
0, 0
0, 0
0, 0
0, 0
0, 0
0, 0
0, 0
0, 0
0, 0
0, 0
0, 0
0, 0
0, 0
0, 0
0, 0
0, 0
0, 0
0, 0
0, 0
0, 0
0, 0
0, 0
0, 0
0, 0
0, 0
0, 0
0, 0
0, 0
0, 0
0, 0
0, 0
0, 0
0, 0
0, 0
0, 0
0, 0
0, 0
0, 0
0, 0
0, 0
0, 0
0, 0
0, 0
0, 0
0, 0
0, 0
0, 0
0, 0
0, 0
0, 0
0, 0
0, 0
0, 0
0, 0
#ENDOFDATA     end of spectrum data