Folder: data-repository/host_upload/02-11-2024/rqc/uplink1 (part 22)

File: ps__0567_0717304816_000rfs_shot_364.msa
#FORMAT      : EMSA/MAS spectral data file
#VERSION     : TC202v2.0 PIXL
#TITLE       : Novarupta (sol567) subset1
#DATE        : 02-11-2024      Date in the format DD-MMM-YYYY, for example 07-JUL-2010
#TIME        :             The time of day at which the spectrum was recorded, in 24-hour format
#OWNER       : PIXL Flight Model       (PIXL will use this to indicate which instrument took the data.)
#NPOINTS     : 4096     Number of data points in the spectrum (This can be zero for configuration only files)
#NCOLUMNS    : 2     Number of data columns in the spectrum (This can be zero for configuration only files)
#XUNITS      : eV
#YUNITS      : COUNTS
#DATATYPE    : YY
#XPERCHAN    : 7.862, 7.881   eV per channel (separate by commas if more than one detector)
#OFFSET      : 18.5, -22.4         eV of first channel  (separate by commas if more than one detector
#SIGNALTYPE  : XRF
#YP_TEMP     : 1.626
#LIVETIME    : 8.84805, 8.8109   seconds (separate by commas if more than one detector)
#REALTIME    : 10, 10.0   seconds (separate by commas if more than one detector)
#SPECTRUM    : start of spectrum data
0, 0
0, 0
0, 0
0, 0
0, 0
0, 0
1, 0
1, 0
6, 1
5, 2
4, 2
14, 12
8, 18
18, 18
51, 40
98, 131
498, 572
137, 127
28, 29
19, 32
51, 52
254, 270
88, 101
45, 64
176, 206
98, 101
64, 71
40, 32
8, 15
8, 10
20, 39
17, 26
19, 26
172, 231
298, 337
35, 48
40, 47
43, 46
19, 14
6, 12
18, 23
68, 72
41, 44
11, 8
15, 17
17, 23
14, 12
11, 10
18, 10
27, 39
24, 36
13, 15
6, 13
34, 47
44, 42
20, 22
28, 42
341, 472
1533, 1956
1021, 1064
103, 106
18, 18
21, 23
74, 89
243, 338
148, 146
24, 29
9, 11
15, 8
10, 7
5, 7
4, 8
6, 8
3, 9
10, 7
3, 6
4, 5
6, 9
11, 12
16, 13
8, 4
6, 6
2, 8
6, 6
4, 3
3, 6
1, 8
5, 12
2, 5
6, 5
5, 3
4, 3
3, 1
3, 3
2, 2
4, 3
2, 3
4, 2
3, 4
2, 6
4, 4
3, 7
3, 5
1, 2
1, 3
5, 1
2, 3
1, 4
6, 4
0, 2
0, 3
1, 1
3, 4
2, 4
2, 4
2, 7
0, 2
5, 1
2, 1
1, 4
1, 0
1, 4
3, 4
1, 1
0, 4
0, 1
2, 0
1, 4
0, 3
0, 2
0, 1
3, 4
1, 0
0, 0
1, 1
0, 0
2, 0
0, 1
0, 0
1, 1
0, 1
0, 0
1, 1
0, 2
0, 0
1, 0
2, 1
0, 1
0, 0
0, 1
0, 0
1, 1
0, 1
0, 0
0, 0
0, 0
0, 0
1, 0
0, 1
0, 0
1, 0
0, 0
0, 0
0, 1
0, 0
0, 0
0, 1
0, 1
0, 1
0, 0
0, 0
1, 0
0, 1
1, 0
1, 0
0, 0
1, 1
1, 0
0, 1
0, 0
0, 0
0, 0
0, 1
0, 0
0, 0
0, 0
0, 0
0, 0
0, 0
0, 0
1, 1
0, 0
0, 0
0, 0
0, 0
0, 0
0, 0
0, 0
0, 0
0, 1
0, 0
0, 0
0, 0
1, 0
0, 0
0, 0
0, 0
0, 0
0, 0
0, 0
0, 0
0, 0
0, 0
0, 0
0, 0
0, 0
0, 0
0, 0
0, 0
0, 0
0, 0
0, 0
0, 0
0, 0
0, 0
0, 0
0, 0
0, 0
0, 0
0, 0
0, 0
0, 0
0, 0
0, 0
0, 0
0, 0
0, 0
0, 0
0, 0
0, 0
0, 0
0, 0
0, 0
0, 0
0, 0
0, 0
0, 0
0, 0
0, 0
0, 0
0, 0
0, 0
0, 0
0, 0
0, 0
0, 0
0, 0
0, 0
0, 0
0, 0
0, 0
0, 0
0, 0
0, 0
0, 0
0, 0
0, 0
0, 0
0, 0
0, 0
0, 0
0, 0
0, 0
0, 0
0, 0
0, 0
0, 0
0, 0
0, 0
0, 0
0, 0
0, 0
0, 0
0, 0
0, 0
0, 0
0, 0
0, 0
0, 0
0, 0
0, 0
0, 0
0, 0
0, 0
#ENDOFDATA     end of spectrum data

File: ps__0567_0717304816_000rfs_shot_365.msa
#FORMAT      : EMSA/MAS spectral data file
#VERSION     : TC202v2.0 PIXL
#TITLE       : Novarupta (sol567) subset1
#DATE        : 02-11-2024      Date in the format DD-MMM-YYYY, for example 07-JUL-2010
#TIME        :             The time of day at which the spectrum was recorded, in 24-hour format
#OWNER       : PIXL Flight Model       (PIXL will use this to indicate which instrument took the data.)
#NPOINTS     : 4096     Number of data points in the spectrum (This can be zero for configuration only files)
#NCOLUMNS    : 2     Number of data columns in the spectrum (This can be zero for configuration only files)
#XUNITS      : eV
#YUNITS      : COUNTS
#DATATYPE    : YY
#XPERCHAN    : 7.862, 7.881   eV per channel (separate by commas if more than one detector)
#OFFSET      : 18.5, -22.4         eV of first channel  (separate by commas if more than one detector
#SIGNALTYPE  : XRF
#YP_TEMP     : 1.69
#LIVETIME    : 8.83702, 8.82422   seconds (separate by commas if more than one detector)
#REALTIME    : 10, 10.0   seconds (separate by commas if more than one detector)
#SPECTRUM    : start of spectrum data
0, 0
0, 0
0, 0
0, 0
0, 0
0, 0
0, 0
1, 1
2, 2
2, 4
1, 3
9, 8
15, 17
25, 24
50, 57
104, 113
536, 540
110, 116
20, 37
29, 23
55, 41
275, 281
109, 106
80, 80
232, 225
112, 105
73, 81
34, 22
8, 12
8, 12
23, 19
17, 12
17, 26
207, 207
349, 357
60, 41
43, 49
56, 52
6, 16
9, 12
18, 26
60, 55
38, 44
17, 17
12, 16
22, 31
12, 16
6, 10
14, 19
37, 28
12, 16
13, 8
13, 15
45, 37
41, 51
15, 18
29, 28
342, 434
1556, 1754
1061, 1024
133, 87
16, 25
18, 21
62, 93
260, 262
186, 147
22, 16
10, 14
20, 10
5, 9
10, 10
4, 7
2, 5
8, 4
7, 5
12, 8
9, 7
10, 4
13, 13
10, 14
7, 8
2, 1
10, 5
6, 6
4, 9
5, 10
5, 11
2, 11
8, 4
3, 4
3, 4
3, 5
6, 6
3, 4
4, 2
3, 4
3, 2
5, 3
3, 6
2, 3
3, 3
0, 5
1, 4
1, 1
1, 1
1, 3
1, 2
2, 3
1, 1
3, 3
0, 2
0, 1
2, 0
1, 1
0, 2
0, 3
3, 4
4, 1
3, 1
1, 0
3, 1
1, 4
3, 3
0, 1
0, 0
1, 0
1, 0
1, 1
0, 2
1, 0
0, 1
0, 0
2, 0
0, 3
1, 0
0, 1
1, 2
1, 1
0, 0
0, 1
0, 2
0, 1
0, 0
0, 1
0, 2
0, 1
1, 1
0, 0
0, 1
0, 0
0, 0
0, 0
0, 0
1, 1
0, 0
0, 0
0, 1
0, 0
0, 0
0, 0
0, 0
1, 0
1, 2
0, 0
0, 0
0, 0
1, 0
1, 0
1, 0
0, 1
0, 0
0, 0
1, 0
0, 0
0, 0
0, 0
0, 0
0, 1
0, 0
0, 0
0, 0
0, 0
0, 0
0, 0
0, 0
0, 0
1, 0
0, 0
0, 0
0, 0
0, 0
0, 0
0, 0
0, 0
0, 0
0, 0
0, 0
0, 0
0, 0
0, 0
0, 0
0, 0
0, 0
0, 0
0, 0
0, 0
0, 0
1, 0
0, 0
0, 0
0, 0
0, 0
0, 0
0, 0
0, 0
0, 0
0, 0
0, 0
0, 0
0, 0
0, 0
0, 0
0, 0
0, 0
0, 0
0, 0
0, 0
0, 0
0, 0
0, 0
0, 0
0, 0
0, 0
0, 0
0, 0
0, 0
0, 0
0, 0
0, 0
0, 0
0, 0
0, 0
0, 0
0, 0
0, 0
0, 0
0, 0
0, 0
0, 0
0, 0
0, 0
0, 0
0, 0
0, 0
0, 0
0, 0
0, 0
0, 0
0, 0
0, 0
0, 0
0, 0
0, 0
0, 0
0, 0
0, 0
0, 0
0, 0
0, 0
0, 0
0, 0
0, 0
0, 0
0, 0
0, 0
0, 0
0, 0
0, 0
0, 0
0, 0
0, 0
0, 0
0, 0
0, 0
0, 0
0, 0
0, 0
0, 0
0, 0
0, 0
0, 0
0, 0
0, 0
0, 0
#ENDOFDATA     end of spectrum data

File: ps__0567_0717304816_000rfs_shot_366.msa
#FORMAT      : EMSA/MAS spectral data file
#VERSION     : TC202v2.0 PIXL
#TITLE       : Novarupta (sol567) subset1
#DATE        : 02-11-2024      Date in the format DD-MMM-YYYY, for example 07-JUL-2010
#TIME        :             The time of day at which the spectrum was recorded, in 24-hour format
#OWNER       : PIXL Flight Model       (PIXL will use this to indicate which instrument took the data.)
#NPOINTS     : 4096     Number of data points in the spectrum (This can be zero for configuration only files)
#NCOLUMNS    : 2     Number of data columns in the spectrum (This can be zero for configuration only files)
#XUNITS      : eV
#YUNITS      : COUNTS
#DATATYPE    : YY
#XPERCHAN    : 7.862, 7.881   eV per channel (separate by commas if more than one detector)
#OFFSET      : 18.5, -22.4         eV of first channel  (separate by commas if more than one detector
#SIGNALTYPE  : XRF
#YP_TEMP     : 1.658
#LIVETIME    : 8.81859, 8.81545   seconds (separate by commas if more than one detector)
#REALTIME    : 10, 10.0   seconds (separate by commas if more than one detector)
#SPECTRUM    : start of spectrum data
0, 0
0, 0
0, 0
0, 0
0, 0
0, 0
0, 0
3, 2
3, 2
2, 5
6, 1
10, 12
11, 20
22, 22
44, 47
102, 128
532, 549
99, 125
43, 40
26, 25
48, 62
303, 312
120, 123
83, 59
188, 245
109, 104
70, 62
33, 21
15, 10
9, 7
26, 32
13, 18
19, 22
209, 230
344, 346
59, 45
42, 36
51, 59
8, 16
12, 9
24, 24
68, 57
26, 36
13, 12
16, 18
16, 15
9, 18
10, 14
13, 14
30, 29
31, 33
12, 13
13, 13
32, 43
59, 35
18, 24
29, 32
394, 412
1692, 1811
1050, 951
108, 101
21, 26
36, 26
85, 103
282, 253
200, 131
30, 19
6, 12
16, 19
11, 4
10, 9
7, 9
8, 10
6, 9
4, 8
6, 6
6, 7
6, 9
8, 12
16, 13
11, 5
9, 9
6, 5
6, 7
8, 8
2, 6
6, 3
9, 7
5, 5
4, 5
3, 4
6, 4
4, 1
4, 3
11, 2
5, 2
8, 5
8, 3
5, 6
2, 3
1, 3
6, 2
2, 1
4, 4
0, 2
2, 0
2, 3
2, 5
3, 3
0, 2
5, 2
2, 2
4, 1
4, 2
2, 4
1, 1
4, 2
0, 3
2, 0
0, 1
1, 4
2, 0
1, 0
3, 2
2, 3
2, 2
0, 3
1, 0
4, 1
2, 0
3, 1
3, 1
1, 0
0, 2
0, 0
0, 0
0, 0
0, 0
2, 1
0, 2
0, 1
1, 1
0, 2
0, 0
0, 2
1, 1
0, 0
0, 0
0, 1
0, 2
0, 0
1, 1
0, 0
1, 0
0, 2
0, 0
0, 0
0, 0
0, 0
0, 1
0, 0
2, 0
0, 1
0, 0
1, 0
0, 0
0, 1
0, 0
0, 1
1, 0
0, 0
0, 0
0, 0
0, 0
0, 0
1, 1
0, 0
0, 0
0, 0
0, 0
0, 0
0, 0
0, 1
1, 1
1, 0
0, 0
0, 0
0, 0
0, 0
0, 0
0, 0
0, 0
0, 0
0, 0
0, 0
0, 0
0, 0
0, 1
0, 0
0, 0
0, 0
0, 0
0, 0
0, 0
0, 1
0, 0
0, 0
0, 0
0, 0
0, 0
0, 0
0, 0
0, 0
0, 1
0, 0
0, 0
0, 0
0, 0
0, 0
0, 0
0, 0
0, 0
0, 0
0, 0
0, 0
0, 0
0, 0
0, 0
0, 0
0, 0
0, 0
0, 0
0, 0
0, 0
0, 0
0, 0
0, 0
0, 0
0, 0
0, 0
0, 0
0, 0
0, 0
0, 0
0, 0
0, 0
0, 0
0, 0
0, 0
0, 0
0, 0
0, 0
0, 0
0, 0
0, 0
0, 0
0, 0
0, 0
0, 0
0, 0
0, 0
0, 0
0, 0
0, 0
0, 0
0, 0
0, 0
0, 0
0, 0
0, 0
0, 0
0, 0
0, 0
0, 0
0, 0
0, 0
0, 0
0, 0
0, 0
0, 0
0, 0
0, 0
0, 0
0, 0
0, 0
0, 0
0, 0
0, 0
0, 0
0, 0
0, 0
0, 0
0, 0
0, 0
#ENDOFDATA     end of spectrum data

File: ps__0567_0717304816_000rfs_shot_367.msa
#FORMAT      : EMSA/MAS spectral data file
#VERSION     : TC202v2.0 PIXL
#TITLE       : Novarupta (sol567) subset1
#DATE        : 02-11-2024      Date in the format DD-MMM-YYYY, for example 07-JUL-2010
#TIME        :             The time of day at which the spectrum was recorded, in 24-hour format
#OWNER       : PIXL Flight Model       (PIXL will use this to indicate which instrument took the data.)
#NPOINTS     : 4096     Number of data points in the spectrum (This can be zero for configuration only files)
#NCOLUMNS    : 2     Number of data columns in the spectrum (This can be zero for configuration only files)
#XUNITS      : eV
#YUNITS      : COUNTS
#DATATYPE    : YY
#XPERCHAN    : 7.862, 7.881   eV per channel (separate by commas if more than one detector)
#OFFSET      : 18.5, -22.4         eV of first channel  (separate by commas if more than one detector
#SIGNALTYPE  : XRF
#YP_TEMP     : 1.722
#LIVETIME    : 8.82556, 8.82158   seconds (separate by commas if more than one detector)
#REALTIME    : 10, 10.0   seconds (separate by commas if more than one detector)
#SPECTRUM    : start of spectrum data
0, 0
0, 0
0, 0
0, 0
0, 0
0, 0
0, 0
1, 1
2, 2
7, 3
2, 4
10, 10
8, 16
24, 28
40, 38
97, 124
501, 522
116, 120
24, 29
18, 28
61, 42
282, 303
123, 102
73, 82
210, 254
130, 119
91, 67
29, 18
7, 10
11, 4
30, 37
23, 17
16, 19
207, 220
313, 298
52, 45
43, 41
48, 55
12, 12
5, 8
22, 22
77, 68
35, 44
17, 16
16, 19
18, 20
9, 5
10, 12
13, 12
35, 31
28, 19
11, 17
21, 14
23, 48
44, 43
25, 27
25, 29
390, 460
1723, 1889
1112, 1012
121, 96
16, 15
18, 29
96, 112
272, 283
178, 158
22, 28
9, 11
10, 10
8, 8
5, 9
4, 5
6, 6
8, 7
4, 4
3, 9
9, 7
4, 8
9, 10
10, 10
4, 8
4, 4
6, 6
3, 3
6, 6
4, 2
6, 4
3, 1
4, 7
1, 5
4, 2
2, 3
7, 2
5, 3
6, 5
6, 4
2, 4
2, 4
1, 3
1, 2
3, 1
2, 2
1, 3
1, 3
3, 3
6, 3
1, 1
4, 0
2, 3
3, 2
3, 1
2, 2
0, 0
5, 2
2, 0
2, 4
6, 3
1, 4
3, 0
0, 2
1, 5
2, 3
0, 3
1, 2
0, 0
0, 1
0, 2
3, 2
0, 1
1, 0
2, 0
0, 0
2, 3
2, 1
0, 3
1, 1
1, 0
2, 0
0, 1
0, 0
0, 0
0, 0
0, 0
1, 0
1, 4
0, 1
2, 0
1, 1
0, 0
0, 0
2, 1
0, 0
1, 0
0, 1
1, 0
0, 0
0, 0
0, 0
0, 0
0, 1
1, 0
0, 1
0, 0
0, 0
0, 0
0, 0
0, 0
0, 0
0, 0
1, 0
0, 0
0, 2
0, 0
0, 0
0, 1
1, 1
0, 0
0, 0
0, 0
0, 0
0, 0
0, 0
0, 0
0, 0
0, 1
0, 0
0, 0
0, 0
0, 0
0, 0
0, 0
0, 0
0, 0
0, 0
0, 0
0, 0
1, 0
0, 0
0, 0
0, 0
0, 0
0, 0
0, 0
0, 0
0, 0
0, 0
0, 0
0, 0
0, 0
0, 0
0, 0
0, 0
0, 0
0, 0
0, 0
0, 0
0, 0
0, 0
0, 0
0, 0
0, 0
0, 0
0, 0
0, 0
0, 0
0, 0
0, 0
0, 0
0, 0
0, 0
0, 0
0, 0
0, 0
0, 0
0, 0
0, 0
0, 0
0, 0
0, 0
0, 0
0, 0
0, 0
0, 0
0, 0
0, 0
0, 0
0, 0
0, 0
0, 0
0, 0
0, 0
0, 0
0, 0
0, 0
0, 0
0, 0
0, 0
0, 0
0, 0
0, 0
0, 0
0, 0
0, 0
0, 0
0, 0
0, 0
0, 0
0, 0
0, 0
0, 0
0, 0
0, 0
0, 0
0, 0
0, 0
0, 0
0, 0
0, 0
0, 0
0, 0
0, 0
0, 0
0, 0
0, 0
0, 0
0, 0
0, 0
0, 0
0, 0
0, 0
0, 0
0, 0
0, 0
0, 0
#ENDOFDATA     end of spectrum data

File: ps__0567_0717304816_000rfs_shot_369.msa
#FORMAT      : EMSA/MAS spectral data file
#VERSION     : TC202v2.0 PIXL
#TITLE       : Novarupta (sol567) subset1
#DATE        : 02-11-2024      Date in the format DD-MMM-YYYY, for example 07-JUL-2010
#TIME        :             The time of day at which the spectrum was recorded, in 24-hour format
#OWNER       : PIXL Flight Model       (PIXL will use this to indicate which instrument took the data.)
#NPOINTS     : 4096     Number of data points in the spectrum (This can be zero for configuration only files)
#NCOLUMNS    : 2     Number of data columns in the spectrum (This can be zero for configuration only files)
#XUNITS      : eV
#YUNITS      : COUNTS
#DATATYPE    : YY
#XPERCHAN    : 7.862, 7.881   eV per channel (separate by commas if more than one detector)
#OFFSET      : 18.5, -22.4         eV of first channel  (separate by commas if more than one detector
#SIGNALTYPE  : XRF
#YP_TEMP     : 1.786
#LIVETIME    : 8.82337, 8.8093   seconds (separate by commas if more than one detector)
#REALTIME    : 10, 10.0   seconds (separate by commas if more than one detector)
#SPECTRUM    : start of spectrum data
0, 0
0, 0
0, 0
0, 0
0, 0
0, 0
0, 0
0, 1
6, 4
0, 3
1, 7
14, 9
12, 12
21, 23
52, 41
97, 117
466, 549
112, 139
39, 26
32, 31
50, 62
320, 311
109, 119
72, 71
232, 254
116, 124
69, 75
31, 33
7, 11
9, 11
30, 31
22, 23
18, 18
185, 274
348, 347
49, 39
42, 39
45, 46
11, 5
11, 16
22, 28
61, 71
33, 43
8, 17
14, 13
16, 26
11, 16
10, 17
13, 19
44, 41
35, 41
13, 7
11, 15
40, 39
44, 44
23, 26
30, 29
339, 463
1562, 1841
1110, 1044
107, 104
20, 19
18, 14
83, 112
254, 294
149, 149
19, 30
7, 8
10, 12
13, 8
5, 7
4, 6
9, 4
11, 11
10, 10
3, 10
4, 8
10, 2
8, 13
12, 7
5, 3
9, 7
6, 3
5, 7
5, 3
4, 5
8, 3
8, 6
5, 5
2, 6
8, 3
4, 6
2, 3
3, 3
2, 4
4, 1
5, 3
0, 0
1, 1
0, 2
2, 3
2, 3
2, 3
3, 2
1, 11
2, 2
0, 6
2, 1
3, 1
0, 2
2, 1
1, 2
2, 1
1, 3
3, 1
5, 3
2, 4
4, 1
2, 2
2, 1
1, 2
1, 2
1, 3
5, 2
1, 2
2, 2
0, 1
1, 2
0, 1
1, 2
0, 1
2, 0
0, 0
5, 0
1, 2
0, 2
0, 0
0, 1
0, 1
1, 0
0, 0
1, 0
1, 2
0, 0
0, 0
0, 1
0, 0
0, 0
0, 0
0, 1
2, 2
0, 0
1, 0
0, 0
0, 0
2, 0
0, 0
0, 3
0, 0
0, 0
0, 1
0, 0
0, 1
0, 0
0, 0
0, 1
0, 0
0, 1
0, 0
1, 0
1, 0
0, 0
2, 0
1, 0
0, 0
0, 0
0, 0
0, 0
1, 0
0, 1
0, 0
0, 0
0, 1
2, 0
0, 0
0, 0
0, 0
0, 0
0, 0
0, 0
0, 0
0, 0
0, 0
0, 0
0, 0
0, 0
0, 0
0, 0
0, 0
0, 0
0, 0
0, 0
0, 0
0, 0
0, 0
0, 0
0, 0
0, 0
0, 0
0, 0
0, 0
0, 0
0, 0
0, 0
0, 0
0, 0
0, 0
0, 0
0, 1
0, 0
0, 0
0, 0
0, 0
0, 0
0, 0
0, 0
0, 0
0, 0
0, 0
0, 0
0, 0
0, 0
0, 0
0, 0
0, 0
0, 0
0, 0
0, 0
0, 0
0, 0
0, 0
0, 0
0, 0
0, 0
0, 0
0, 0
0, 0
0, 0
0, 0
0, 0
0, 0
0, 0
0, 0
0, 0
0, 0
0, 0
0, 0
0, 0
0, 0
0, 0
0, 0
0, 0
0, 0
0, 0
0, 0
0, 0
0, 0
0, 0
0, 0
0, 0
0, 0
0, 0
0, 0
0, 0
0, 0
0, 0
0, 0
0, 0
0, 0
0, 0
0, 0
0, 0
0, 0
0, 0
0, 0
0, 0
0, 0
0, 0
0, 0
0, 0
0, 0
0, 0
0, 0
0, 0
#ENDOFDATA     end of spectrum data

File: ps__0567_0717304816_000rfs_shot_371.msa
#FORMAT      : EMSA/MAS spectral data file
#VERSION     : TC202v2.0 PIXL
#TITLE       : Novarupta (sol567) subset1
#DATE        : 02-11-2024      Date in the format DD-MMM-YYYY, for example 07-JUL-2010
#TIME        :             The time of day at which the spectrum was recorded, in 24-hour format
#OWNER       : PIXL Flight Model       (PIXL will use this to indicate which instrument took the data.)
#NPOINTS     : 4096     Number of data points in the spectrum (This can be zero for configuration only files)
#NCOLUMNS    : 2     Number of data columns in the spectrum (This can be zero for configuration only files)
#XUNITS      : eV
#YUNITS      : COUNTS
#DATATYPE    : YY
#XPERCHAN    : 7.862, 7.881   eV per channel (separate by commas if more than one detector)
#OFFSET      : 18.5, -22.4         eV of first channel  (separate by commas if more than one detector
#SIGNALTYPE  : XRF
#YP_TEMP     : 1.883
#LIVETIME    : 8.82413, 8.80765   seconds (separate by commas if more than one detector)
#REALTIME    : 10, 10.0   seconds (separate by commas if more than one detector)
#SPECTRUM    : start of spectrum data
0, 0
0, 0
0, 0
0, 0
0, 0
0, 0
0, 0
0, 0
2, 5
3, 1
4, 1
11, 13
10, 9
19, 23
36, 50
115, 145
440, 550
108, 101
28, 45
20, 25
64, 58
307, 397
128, 117
65, 78
199, 249
99, 118
63, 69
36, 33
3, 9
12, 10
29, 35
15, 19
19, 25
195, 259
332, 389
55, 64
36, 49
55, 55
14, 12
7, 15
13, 28
68, 76
38, 41
14, 13
16, 12
19, 19
14, 14
16, 13
15, 14
24, 38
27, 23
11, 16
13, 19
35, 40
38, 53
27, 35
29, 36
329, 500
1491, 1856
1056, 1067
116, 108
19, 20
12, 21
81, 98
253, 321
146, 158
19, 21
6, 8
9, 16
13, 6
4, 9
2, 5
6, 8
10, 6
4, 12
9, 8
9, 5
6, 4
7, 19
13, 9
6, 14
6, 2
3, 5
9, 7
6, 5
2, 8
6, 8
10, 10
5, 4
8, 6
9, 8
1, 3
5, 5
4, 2
2, 5
4, 3
3, 2
3, 3
4, 1
5, 6
2, 2
2, 6
2, 3
1, 4
6, 4
1, 2
4, 3
3, 3
2, 2
3, 5
2, 2
3, 2
3, 3
1, 0
4, 0
5, 3
5, 1
3, 4
1, 3
1, 2
1, 1
0, 5
5, 2
2, 0
0, 2
0, 1
1, 2
2, 0
3, 2
0, 2
1, 1
1, 0
2, 1
1, 2
1, 0
1, 1
0, 0
0, 1
0, 1
0, 2
0, 2
2, 0
0, 0
0, 0
0, 1
0, 0
0, 0
1, 0
0, 0
0, 2
0, 2
0, 0
1, 0
0, 0
0, 2
0, 0
1, 0
1, 0
1, 0
1, 1
0, 1
0, 0
0, 1
0, 0
2, 1
0, 0
0, 0
0, 0
0, 0
2, 1
0, 1
0, 0
0, 0
1, 0
0, 0
0, 0
0, 0
0, 0
0, 0
0, 0
0, 0
0, 0
0, 1
0, 1
1, 0
0, 0
0, 0
0, 0
0, 0
0, 0
0, 0
0, 0
0, 1
0, 0
1, 0
0, 0
0, 0
0, 0
0, 0
0, 0
0, 0
0, 0
0, 0
0, 0
0, 0
0, 0
0, 0
0, 0
0, 0
0, 0
0, 1
0, 0
0, 0
0, 0
0, 0
0, 0
0, 0
0, 0
0, 0
0, 0
0, 0
0, 0
0, 0
0, 0
0, 0
0, 0
0, 0
0, 0
0, 0
0, 0
0, 0
0, 0
0, 0
0, 0
0, 0
0, 0
0, 0
0, 0
0, 0
0, 0
0, 0
0, 0
0, 0
0, 0
0, 0
0, 0
0, 0
0, 0
0, 0
0, 0
0, 0
0, 0
0, 0
0, 0
0, 0
0, 0
0, 0
0, 0
0, 0
0, 0
0, 0
0, 0
0, 0
0, 0
0, 0
0, 0
0, 0
0, 0
0, 0
0, 0
0, 0
0, 0
0, 0
0, 0
0, 0
0, 0
0, 0
0, 0
0, 0
0, 0
0, 0
0, 0
0, 0
0, 0
0, 0
0, 0
0, 0
0, 0
0, 0
0, 0
0, 0
0, 0
0, 0
0, 0
#ENDOFDATA     end of spectrum data

File: ps__0567_0717304816_000rfs_shot_373.msa
#FORMAT      : EMSA/MAS spectral data file
#VERSION     : TC202v2.0 PIXL
#TITLE       : Novarupta (sol567) subset1
#DATE        : 02-11-2024      Date in the format DD-MMM-YYYY, for example 07-JUL-2010
#TIME        :             The time of day at which the spectrum was recorded, in 24-hour format
#OWNER       : PIXL Flight Model       (PIXL will use this to indicate which instrument took the data.)
#NPOINTS     : 4096     Number of data points in the spectrum (This can be zero for configuration only files)
#NCOLUMNS    : 2     Number of data columns in the spectrum (This can be zero for configuration only files)
#XUNITS      : eV
#YUNITS      : COUNTS
#DATATYPE    : YY
#XPERCHAN    : 7.862, 7.881   eV per channel (separate by commas if more than one detector)
#OFFSET      : 18.5, -22.4         eV of first channel  (separate by commas if more than one detector
#SIGNALTYPE  : XRF
#YP_TEMP     : 1.626
#LIVETIME    : 8.81804, 8.80201   seconds (separate by commas if more than one detector)
#REALTIME    : 10, 10.0   seconds (separate by commas if more than one detector)
#SPECTRUM    : start of spectrum data
0, 0
0, 0
0, 0
0, 0
0, 0
0, 0
0, 0
0, 0
3, 3
0, 2
5, 5
6, 10
11, 14
25, 26
29, 49
106, 133
493, 559
107, 131
28, 39
27, 24
60, 47
329, 334
111, 130
74, 95
220, 262
127, 114
58, 82
28, 35
12, 14
12, 6
22, 29
15, 19
18, 22
185, 237
328, 348
45, 50
46, 43
46, 58
10, 13
7, 8
16, 18
65, 61
35, 41
12, 17
9, 15
14, 24
10, 12
11, 11
11, 13
22, 39
22, 20
8, 6
10, 18
22, 40
37, 60
15, 13
26, 44
371, 504
1597, 1927
1128, 1136
125, 96
19, 17
26, 24
76, 108
244, 305
159, 183
23, 20
6, 6
20, 23
6, 16
3, 7
5, 10
5, 6
9, 10
5, 7
10, 13
7, 8
8, 13
7, 17
9, 10
8, 15
8, 6
2, 7
5, 4
5, 5
5, 9
5, 4
2, 4
7, 3
5, 4
2, 4
4, 1
5, 4
6, 5
1, 4
3, 3
3, 1
3, 3
4, 3
5, 5
2, 3
2, 2
5, 2
0, 3
2, 2
4, 2
4, 2
6, 3
2, 2
1, 5
5, 3
1, 2
3, 0
0, 6
2, 5
2, 3
1, 4
3, 4
2, 1
3, 3
1, 2
1, 2
3, 2
1, 3
1, 2
1, 1
2, 4
2, 1
2, 3
1, 2
1, 4
2, 2
3, 2
1, 0
2, 1
3, 1
1, 0
0, 3
0, 1
0, 1
2, 0
0, 0
1, 1
0, 1
1, 1
1, 1
1, 0
0, 1
0, 0
0, 0
0, 0
0, 0
1, 0
0, 0
1, 0
0, 0
1, 0
1, 1
0, 0
0, 0
0, 1
0, 0
0, 0
0, 0
0, 0
0, 0
0, 0
0, 0
0, 0
1, 0
0, 0
0, 1
0, 0
0, 0
0, 0
0, 0
0, 0
2, 0
0, 0
0, 0
0, 0
0, 0
0, 0
0, 0
1, 0
0, 0
0, 0
0, 0
0, 0
0, 0
0, 0
0, 0
0, 0
0, 0
0, 0
0, 0
0, 0
0, 0
0, 0
0, 0
0, 0
0, 0
0, 0
0, 0
0, 0
0, 0
0, 0
0, 0
0, 0
0, 0
0, 0
0, 0
0, 0
0, 0
0, 0
0, 0
0, 0
0, 0
0, 0
0, 0
0, 0
0, 0
0, 0
0, 0
0, 0
0, 0
0, 0
0, 0
0, 0
0, 0
0, 0
0, 0
0, 0
0, 0
0, 0
0, 0
0, 0
0, 0
0, 0
0, 0
0, 0
0, 0
0, 0
0, 0
0, 0
0, 0
0, 0
0, 0
0, 0
0, 0
0, 0
0, 0
0, 0
0, 0
0, 0
0, 0
0, 0
0, 0
0, 0
0, 0
0, 0
0, 0
0, 0
0, 0
0, 0
0, 0
0, 0
0, 0
0, 0
0, 0
0, 0
0, 0
0, 0
0, 0
0, 0
0, 0
0, 0
0, 0
0, 0
0, 0
0, 0
0, 0
0, 0
0, 0
0, 0
0, 0
0, 0
0, 0
0, 0
0, 0
0, 0
0, 0
0, 0
0, 0
#ENDOFDATA     end of spectrum data

File: ps__0567_0717304816_000rfs_shot_374.msa
#FORMAT      : EMSA/MAS spectral data file
#VERSION     : TC202v2.0 PIXL
#TITLE       : Novarupta (sol567) subset1
#DATE        : 02-11-2024      Date in the format DD-MMM-YYYY, for example 07-JUL-2010
#TIME        :             The time of day at which the spectrum was recorded, in 24-hour format
#OWNER       : PIXL Flight Model       (PIXL will use this to indicate which instrument took the data.)
#NPOINTS     : 4096     Number of data points in the spectrum (This can be zero for configuration only files)
#NCOLUMNS    : 2     Number of data columns in the spectrum (This can be zero for configuration only files)
#XUNITS      : eV
#YUNITS      : COUNTS
#DATATYPE    : YY
#XPERCHAN    : 7.862, 7.881   eV per channel (separate by commas if more than one detector)
#OFFSET      : 18.5, -22.4         eV of first channel  (separate by commas if more than one detector
#SIGNALTYPE  : XRF
#YP_TEMP     : 1.402
#LIVETIME    : 8.83539, 8.79375   seconds (separate by commas if more than one detector)
#REALTIME    : 10, 10.0   seconds (separate by commas if more than one detector)
#SPECTRUM    : start of spectrum data
0, 0
0, 0
0, 0
0, 0
0, 0
0, 0
0, 0
0, 1
5, 4
5, 6
4, 4
5, 10
11, 10
19, 24
42, 53
102, 106
481, 518
127, 118
25, 43
16, 18
48, 53
293, 332
120, 123
72, 72
240, 255
116, 129
71, 58
24, 36
10, 5
6, 14
30, 35
20, 13
17, 21
184, 250
322, 357
45, 52
35, 44
44, 56
10, 14
6, 10
16, 25
61, 79
32, 38
16, 24
13, 9
22, 19
12, 18
11, 13
10, 17
30, 21
17, 19
11, 11
14, 14
24, 53
48, 40
21, 27
28, 30
326, 520
1508, 1928
1088, 1109
126, 131
11, 22
21, 27
77, 124
284, 295
167, 138
21, 25
7, 15
14, 15
8, 14
7, 8
6, 6
3, 11
6, 7
12, 9
6, 16
9, 11
4, 16
13, 9
12, 24
7, 7
3, 6
4, 3
3, 4
8, 2
4, 5
7, 1
6, 6
2, 3
6, 4
4, 6
4, 5
5, 4
5, 3
3, 2
1, 3
2, 6
2, 5
3, 6
1, 3
2, 2
2, 3
6, 4
2, 3
1, 1
4, 2
2, 3
2, 3
0, 1
5, 1
3, 2
1, 1
0, 2
2, 2
0, 3
0, 3
6, 3
1, 2
3, 2
0, 1
3, 1
1, 2
1, 3
1, 3
3, 2
1, 2
0, 0
3, 3
3, 3
5, 1
1, 0
0, 1
3, 1
3, 1
0, 1
1, 0
0, 1
0, 0
0, 0
0, 1
0, 0
0, 0
0, 1
0, 1
0, 1
1, 2
0, 1
1, 0
0, 2
0, 1
1, 2
0, 0
0, 0
1, 1
0, 0
0, 1
0, 0
0, 1
0, 0
0, 0
0, 0
0, 0
0, 0
0, 0
0, 1
0, 0
0, 0
1, 2
0, 0
0, 1
0, 0
0, 0
0, 1
0, 0
1, 0
1, 0
0, 1
0, 0
0, 0
0, 1
0, 0
0, 1
2, 0
1, 1
0, 0
0, 0
1, 0
0, 0
0, 0
0, 0
1, 0
1, 0
0, 0
0, 0
0, 0
1, 0
0, 0
0, 0
0, 0
0, 0
0, 0
0, 0
0, 0
0, 0
0, 0
0, 0
1, 0
0, 0
0, 0
0, 0
0, 0
0, 0
0, 0
0, 0
1, 0
0, 0
0, 0
0, 0
0, 0
0, 0
0, 0
0, 0
0, 0
0, 0
0, 0
0, 0
0, 0
0, 0
0, 0
0, 0
0, 0
0, 0
0, 0
0, 0
0, 0
0, 0
0, 0
0, 0
0, 0
0, 0
0, 0
0, 0
0, 0
0, 0
0, 0
0, 0
0, 0
0, 0
0, 0
0, 0
0, 0
0, 0
0, 0
0, 0
0, 0
0, 0
0, 0
0, 0
0, 0
0, 0
0, 0
0, 0
0, 0
0, 0
0, 0
0, 0
0, 0
0, 0
0, 0
0, 0
0, 0
0, 0
0, 0
0, 0
0, 0
0, 0
0, 0
0, 0
0, 0
0, 0
0, 0
0, 0
0, 0
0, 0
0, 0
0, 0
0, 0
0, 0
0, 0
0, 0
0, 0
0, 0
0, 0
0, 0
#ENDOFDATA     end of spectrum data

File: ps__0567_0717304816_000rfs_shot_377.msa
#FORMAT      : EMSA/MAS spectral data file
#VERSION     : TC202v2.0 PIXL
#TITLE       : Novarupta (sol567) subset1
#DATE        : 02-11-2024      Date in the format DD-MMM-YYYY, for example 07-JUL-2010
#TIME        :             The time of day at which the spectrum was recorded, in 24-hour format
#OWNER       : PIXL Flight Model       (PIXL will use this to indicate which instrument took the data.)
#NPOINTS     : 4096     Number of data points in the spectrum (This can be zero for configuration only files)
#NCOLUMNS    : 2     Number of data columns in the spectrum (This can be zero for configuration only files)
#XUNITS      : eV
#YUNITS      : COUNTS
#DATATYPE    : YY
#XPERCHAN    : 7.862, 7.881   eV per channel (separate by commas if more than one detector)
#OFFSET      : 18.5, -22.4         eV of first channel  (separate by commas if more than one detector
#SIGNALTYPE  : XRF
#YP_TEMP     : 1.851
#LIVETIME    : 8.82666, 8.79253   seconds (separate by commas if more than one detector)
#REALTIME    : 10, 10.0   seconds (separate by commas if more than one detector)
#SPECTRUM    : start of spectrum data
0, 0
0, 0
0, 0
0, 0
0, 0
0, 0
0, 0
2, 0
9, 6
7, 5
2, 5
10, 9
11, 21
29, 23
35, 45
92, 120
454, 560
119, 118
27, 40
20, 26
50, 60
315, 311
111, 136
62, 71
224, 273
111, 102
73, 76
35, 30
7, 9
7, 16
25, 29
20, 13
21, 18
187, 267
353, 359
49, 52
42, 61
51, 58
12, 13
7, 4
20, 20
66, 83
31, 37
15, 21
21, 16
17, 21
20, 11
15, 10
15, 15
21, 26
24, 25
15, 14
17, 20
32, 41
44, 66
21, 20
29, 39
349, 515
1575, 1943
1100, 1109
104, 90
13, 20
18, 30
85, 106
242, 329
139, 165
19, 22
11, 11
10, 11
8, 6
2, 7
3, 5
3, 9
7, 6
6, 7
8, 9
3, 9
4, 12
12, 13
4, 6
3, 7
5, 7
5, 6
4, 4
6, 8
3, 9
3, 9
5, 7
3, 5
6, 3
11, 0
2, 10
5, 3
5, 4
2, 3
3, 4
3, 4
1, 4
6, 3
4, 2
2, 2
3, 0
4, 7
4, 4
0, 4
5, 4
2, 3
3, 5
5, 4
2, 1
1, 2
1, 1
0, 5
0, 3
3, 3
0, 1
3, 3
4, 3
3, 2
0, 1
2, 0
2, 2
0, 1
2, 2
3, 2
1, 1
1, 2
3, 1
3, 1
2, 3
0, 0
2, 2
0, 0
0, 1
0, 1
0, 0
0, 1
2, 1
0, 0
0, 1
1, 0
2, 0
1, 1
0, 1
1, 0
1, 0
1, 0
0, 0
2, 0
1, 0
0, 1
0, 1
1, 0
1, 0
0, 0
1, 0
0, 0
0, 1
0, 1
1, 0
0, 0
0, 0
0, 1
0, 0
0, 1
0, 0
1, 1
0, 1
0, 0
0, 0
1, 0
0, 0
0, 0
0, 0
0, 0
0, 0
0, 0
0, 1
0, 0
0, 1
0, 0
0, 0
1, 1
0, 0
0, 0
0, 0
0, 0
0, 0
0, 0
0, 0
0, 1
1, 0
0, 0
0, 0
0, 1
0, 0
0, 0
0, 0
0, 0
0, 0
0, 0
0, 0
0, 0
0, 0
0, 0
0, 0
0, 0
0, 0
0, 0
0, 0
0, 0
0, 0
0, 0
1, 0
0, 0
0, 0
0, 0
0, 0
0, 0
0, 0
0, 0
0, 0
0, 0
0, 0
0, 0
0, 0
0, 0
0, 0
0, 0
0, 0
0, 0
0, 0
0, 0
0, 0
0, 0
0, 0
0, 0
0, 0
0, 0
0, 0
0, 0
0, 0
0, 0
0, 0
0, 0
0, 0
0, 0
0, 0
0, 0
0, 0
0, 0
0, 0
0, 0
0, 0
0, 0
0, 0
0, 0
0, 0
0, 0
0, 0
0, 0
0, 0
0, 0
0, 0
0, 0
0, 0
0, 0
0, 0
0, 0
0, 0
0, 0
0, 0
0, 0
0, 0
0, 0
0, 0
0, 0
0, 0
0, 0
0, 0
0, 0
0, 0
0, 0
0, 0
0, 0
0, 0
0, 0
0, 0
0, 0
0, 0
0, 0
0, 0
0, 0
0, 0
#ENDOFDATA     end of spectrum data