Folder: data-repository/host_upload/02-11-2024/rqc/uplink1 (part 5)

File: ps__0567_0717304816_000rfs_shot_77.msa
#FORMAT      : EMSA/MAS spectral data file
#VERSION     : TC202v2.0 PIXL
#TITLE       : Novarupta (sol567) subset1
#DATE        : 02-11-2024      Date in the format DD-MMM-YYYY, for example 07-JUL-2010
#TIME        :             The time of day at which the spectrum was recorded, in 24-hour format
#OWNER       : PIXL Flight Model       (PIXL will use this to indicate which instrument took the data.)
#NPOINTS     : 4096     Number of data points in the spectrum (This can be zero for configuration only files)
#NCOLUMNS    : 2     Number of data columns in the spectrum (This can be zero for configuration only files)
#XUNITS      : eV
#YUNITS      : COUNTS
#DATATYPE    : YY
#XPERCHAN    : 7.862, 7.881   eV per channel (separate by commas if more than one detector)
#OFFSET      : 18.5, -22.4         eV of first channel  (separate by commas if more than one detector
#SIGNALTYPE  : XRF
#YP_TEMP     : -1.517
#LIVETIME    : 8.86051, 8.82647   seconds (separate by commas if more than one detector)
#REALTIME    : 10, 10.0   seconds (separate by commas if more than one detector)
#SPECTRUM    : start of spectrum data
0, 0
0, 0
0, 0
0, 0
0, 0
0, 0
0, 0
0, 2
3, 6
3, 5
3, 0
10, 16
13, 10
22, 37
33, 59
104, 145
410, 520
113, 124
25, 33
33, 26
59, 73
287, 378
105, 149
59, 97
208, 229
91, 127
68, 79
22, 31
7, 9
1, 7
26, 38
14, 19
22, 29
206, 298
287, 376
49, 48
42, 59
32, 58
12, 11
12, 9
15, 29
63, 61
41, 38
18, 16
11, 20
22, 27
9, 9
14, 9
9, 19
28, 25
20, 24
12, 17
11, 11
30, 42
29, 61
21, 21
37, 31
393, 561
1451, 1852
761, 956
91, 99
12, 19
20, 28
93, 113
228, 275
125, 121
20, 19
9, 11
13, 15
7, 10
7, 8
6, 7
4, 8
6, 7
5, 6
5, 5
5, 5
8, 5
8, 13
4, 9
8, 5
2, 11
2, 3
3, 8
3, 2
3, 5
3, 6
3, 5
7, 6
11, 5
6, 9
1, 2
3, 3
0, 6
3, 3
2, 2
6, 3
3, 3
5, 3
4, 4
2, 1
4, 3
5, 4
3, 0
3, 0
2, 5
1, 1
3, 4
3, 1
5, 2
3, 1
5, 0
2, 3
4, 3
2, 1
1, 4
2, 3
4, 3
2, 1
1, 2
0, 3
0, 1
1, 1
3, 1
0, 1
2, 0
0, 2
2, 1
0, 0
1, 1
1, 1
1, 1
1, 0
0, 1
0, 1
0, 1
0, 1
1, 0
0, 3
0, 1
1, 1
1, 0
0, 1
1, 0
1, 0
2, 1
0, 1
0, 0
0, 0
1, 0
0, 1
0, 1
0, 1
0, 0
0, 0
0, 0
0, 0
0, 1
1, 1
0, 0
0, 0
1, 0
0, 0
0, 0
0, 0
0, 2
0, 1
0, 1
1, 0
0, 1
0, 0
1, 0
0, 2
1, 0
0, 0
0, 0
0, 0
0, 1
0, 0
0, 0
0, 0
0, 0
0, 0
0, 0
0, 1
0, 0
0, 0
0, 0
0, 0
0, 0
0, 0
0, 0
0, 0
0, 0
0, 0
0, 0
0, 2
1, 0
0, 0
0, 0
0, 0
0, 0
0, 0
0, 0
0, 0
0, 0
0, 0
0, 0
0, 0
0, 0
0, 0
0, 0
0, 0
0, 0
0, 0
0, 0
0, 0
0, 0
0, 0
0, 0
0, 0
0, 0
0, 0
0, 0
0, 0
0, 0
0, 0
0, 0
0, 0
0, 0
0, 0
0, 0
0, 0
0, 0
0, 0
0, 0
0, 0
0, 0
0, 0
0, 0
0, 0
0, 0
0, 0
0, 0
0, 0
0, 0
0, 0
0, 0
0, 0
0, 0
0, 0
0, 0
0, 0
0, 0
0, 0
0, 0
0, 0
0, 0
0, 0
0, 0
0, 0
0, 0
0, 0
0, 0
0, 0
0, 0
0, 0
0, 0
0, 0
0, 0
0, 0
0, 0
0, 0
0, 0
0, 0
0, 0
0, 0
0, 0
0, 0
0, 0
0, 0
0, 0
0, 0
0, 0
0, 0
0, 0
0, 0
0, 0
0, 0
0, 0
0, 0
0, 0
0, 0
0, 0
#ENDOFDATA     end of spectrum data

File: ps__0567_0717304816_000rfs_shot_78.msa
#FORMAT      : EMSA/MAS spectral data file
#VERSION     : TC202v2.0 PIXL
#TITLE       : Novarupta (sol567) subset1
#DATE        : 02-11-2024      Date in the format DD-MMM-YYYY, for example 07-JUL-2010
#TIME        :             The time of day at which the spectrum was recorded, in 24-hour format
#OWNER       : PIXL Flight Model       (PIXL will use this to indicate which instrument took the data.)
#NPOINTS     : 4096     Number of data points in the spectrum (This can be zero for configuration only files)
#NCOLUMNS    : 2     Number of data columns in the spectrum (This can be zero for configuration only files)
#XUNITS      : eV
#YUNITS      : COUNTS
#DATATYPE    : YY
#XPERCHAN    : 7.862, 7.881   eV per channel (separate by commas if more than one detector)
#OFFSET      : 18.5, -22.4         eV of first channel  (separate by commas if more than one detector
#SIGNALTYPE  : XRF
#YP_TEMP     : -1.645
#LIVETIME    : 8.8599, 8.81891   seconds (separate by commas if more than one detector)
#REALTIME    : 10, 10.0   seconds (separate by commas if more than one detector)
#SPECTRUM    : start of spectrum data
0, 0
0, 0
0, 0
0, 0
0, 0
0, 0
0, 0
0, 0
3, 5
1, 0
2, 4
10, 4
13, 13
23, 21
30, 38
118, 149
402, 530
112, 116
27, 32
33, 20
48, 87
286, 352
117, 134
66, 104
198, 265
99, 96
69, 73
25, 32
14, 6
12, 8
25, 32
20, 11
12, 34
171, 268
283, 362
44, 51
37, 48
39, 47
10, 12
5, 10
18, 29
49, 60
39, 28
12, 15
8, 19
15, 29
5, 10
17, 12
9, 14
28, 47
19, 33
8, 10
14, 16
42, 41
40, 44
17, 20
31, 47
409, 625
1475, 1791
878, 876
76, 93
16, 14
19, 22
117, 122
246, 293
115, 140
16, 20
9, 8
15, 16
7, 12
4, 10
5, 7
7, 5
5, 7
7, 8
7, 9
2, 3
6, 6
11, 11
4, 6
10, 2
2, 4
7, 2
4, 3
5, 4
8, 5
4, 6
2, 7
1, 8
2, 2
4, 2
7, 5
5, 2
1, 2
2, 5
1, 5
4, 6
2, 4
2, 3
4, 3
3, 3
2, 7
1, 6
1, 3
0, 8
1, 5
1, 4
4, 2
1, 2
2, 3
5, 3
0, 3
1, 4
2, 2
1, 5
2, 5
2, 2
2, 2
0, 3
0, 1
1, 2
0, 2
0, 1
1, 2
1, 2
0, 4
1, 5
2, 0
1, 1
1, 1
0, 0
1, 1
1, 0
1, 1
0, 2
1, 0
1, 1
1, 0
0, 2
0, 0
1, 1
1, 0
0, 2
0, 1
0, 2
2, 0
0, 1
1, 0
0, 0
0, 0
3, 0
0, 0
1, 0
1, 1
0, 0
1, 0
1, 0
0, 0
0, 0
0, 0
0, 0
0, 0
0, 0
0, 0
0, 0
0, 1
0, 0
1, 0
0, 0
0, 0
1, 1
0, 0
0, 0
0, 0
0, 0
0, 0
0, 0
0, 0
0, 0
0, 2
0, 0
0, 2
0, 0
2, 0
1, 0
0, 0
1, 0
0, 0
0, 0
0, 0
0, 0
1, 0
0, 0
0, 0
0, 0
0, 0
0, 0
0, 0
0, 0
0, 0
0, 0
0, 0
0, 0
0, 0
0, 0
0, 0
0, 0
0, 0
0, 0
0, 0
0, 0
0, 0
0, 0
0, 0
0, 0
0, 0
0, 0
0, 0
0, 0
0, 0
0, 0
0, 0
0, 0
0, 0
0, 0
0, 0
0, 0
0, 0
0, 0
0, 0
0, 0
0, 0
0, 0
0, 0
0, 0
0, 0
0, 0
0, 0
0, 0
0, 0
0, 0
0, 0
0, 0
0, 0
0, 0
0, 0
0, 0
0, 0
0, 0
0, 0
0, 0
0, 0
0, 0
0, 0
0, 0
0, 0
0, 0
0, 0
0, 0
0, 0
0, 0
0, 0
0, 0
0, 0
0, 0
0, 0
0, 0
0, 0
0, 0
0, 0
0, 0
0, 0
0, 0
0, 0
0, 0
0, 0
0, 0
0, 0
0, 0
0, 0
0, 0
0, 0
0, 0
0, 0
0, 0
0, 0
0, 0
0, 0
0, 0
0, 0
0, 0
0, 0
0, 0
0, 0
#ENDOFDATA     end of spectrum data

File: ps__0567_0717304816_000rfs_shot_80.msa
#FORMAT      : EMSA/MAS spectral data file
#VERSION     : TC202v2.0 PIXL
#TITLE       : Novarupta (sol567) subset1
#DATE        : 02-11-2024      Date in the format DD-MMM-YYYY, for example 07-JUL-2010
#TIME        :             The time of day at which the spectrum was recorded, in 24-hour format
#OWNER       : PIXL Flight Model       (PIXL will use this to indicate which instrument took the data.)
#NPOINTS     : 4096     Number of data points in the spectrum (This can be zero for configuration only files)
#NCOLUMNS    : 2     Number of data columns in the spectrum (This can be zero for configuration only files)
#XUNITS      : eV
#YUNITS      : COUNTS
#DATATYPE    : YY
#XPERCHAN    : 7.862, 7.881   eV per channel (separate by commas if more than one detector)
#OFFSET      : 18.5, -22.4         eV of first channel  (separate by commas if more than one detector
#SIGNALTYPE  : XRF
#YP_TEMP     : -1.357
#LIVETIME    : 8.84297, 8.82622   seconds (separate by commas if more than one detector)
#REALTIME    : 10, 10.0   seconds (separate by commas if more than one detector)
#SPECTRUM    : start of spectrum data
0, 0
0, 0
0, 0
0, 0
0, 0
0, 0
0, 0
0, 0
1, 8
2, 6
3, 1
8, 10
14, 6
29, 29
37, 35
82, 136
478, 535
87, 102
30, 39
20, 27
54, 70
274, 311
91, 83
82, 86
204, 234
106, 135
71, 68
32, 25
7, 14
4, 9
23, 30
12, 22
16, 33
214, 274
299, 358
53, 39
50, 53
51, 52
7, 16
9, 11
19, 29
64, 59
33, 38
14, 20
8, 15
15, 21
9, 10
10, 7
15, 16
26, 25
20, 27
15, 8
11, 12
29, 41
38, 46
14, 19
35, 41
429, 603
1559, 1847
914, 880
87, 98
19, 20
19, 27
83, 110
242, 282
153, 123
20, 19
12, 9
9, 15
4, 5
8, 3
10, 3
11, 6
7, 6
13, 10
6, 8
10, 5
7, 9
11, 14
7, 10
5, 4
8, 13
6, 10
5, 5
2, 3
3, 7
2, 6
3, 7
4, 9
1, 3
5, 6
4, 3
3, 6
5, 6
3, 4
2, 3
3, 3
4, 4
1, 4
2, 5
6, 4
2, 6
5, 2
1, 3
1, 2
2, 1
5, 1
1, 4
2, 1
2, 0
1, 0
1, 2
2, 3
2, 4
1, 0
1, 1
1, 3
1, 3
1, 1
1, 2
0, 3
0, 2
1, 1
3, 3
0, 1
0, 3
0, 3
0, 0
0, 2
1, 3
1, 0
1, 0
1, 0
0, 0
0, 0
3, 1
0, 0
0, 2
2, 1
1, 1
0, 1
1, 0
0, 1
0, 1
0, 0
0, 0
0, 0
0, 1
2, 1
0, 0
1, 0
0, 0
0, 0
0, 0
0, 0
0, 0
0, 0
0, 1
0, 2
0, 0
1, 1
0, 0
0, 1
0, 1
0, 0
0, 0
0, 0
0, 2
0, 0
1, 1
1, 1
0, 2
0, 0
0, 0
1, 0
0, 0
0, 0
0, 0
0, 0
0, 0
0, 0
0, 0
0, 0
1, 0
3, 0
1, 0
0, 0
0, 0
0, 0
0, 0
0, 0
0, 0
0, 0
0, 0
0, 0
0, 0
0, 0
0, 0
0, 0
0, 0
0, 0
0, 0
0, 0
0, 0
0, 0
0, 0
0, 0
0, 0
0, 0
0, 0
0, 0
0, 0
0, 0
0, 0
0, 0
0, 0
0, 0
0, 0
0, 0
0, 0
0, 0
0, 0
0, 0
0, 0
0, 0
0, 0
0, 0
0, 0
0, 0
0, 0
0, 0
0, 0
0, 0
0, 0
0, 0
0, 0
0, 0
0, 0
0, 0
0, 0
0, 0
0, 0
0, 0
0, 0
0, 0
0, 0
0, 0
0, 0
0, 0
0, 0
0, 0
0, 0
0, 0
0, 0
0, 0
0, 0
0, 0
0, 0
0, 0
0, 0
0, 0
0, 0
0, 0
0, 0
0, 0
0, 0
0, 0
0, 0
0, 0
0, 0
0, 0
0, 0
0, 0
0, 0
0, 0
0, 0
0, 0
0, 0
0, 0
0, 0
0, 0
0, 0
0, 0
0, 0
0, 0
0, 0
0, 0
0, 0
0, 0
0, 0
0, 0
0, 0
0, 0
0, 0
#ENDOFDATA     end of spectrum data

File: ps__0567_0717304816_000rfs_shot_81.msa
#FORMAT      : EMSA/MAS spectral data file
#VERSION     : TC202v2.0 PIXL
#TITLE       : Novarupta (sol567) subset1
#DATE        : 02-11-2024      Date in the format DD-MMM-YYYY, for example 07-JUL-2010
#TIME        :             The time of day at which the spectrum was recorded, in 24-hour format
#OWNER       : PIXL Flight Model       (PIXL will use this to indicate which instrument took the data.)
#NPOINTS     : 4096     Number of data points in the spectrum (This can be zero for configuration only files)
#NCOLUMNS    : 2     Number of data columns in the spectrum (This can be zero for configuration only files)
#XUNITS      : eV
#YUNITS      : COUNTS
#DATATYPE    : YY
#XPERCHAN    : 7.862, 7.881   eV per channel (separate by commas if more than one detector)
#OFFSET      : 18.5, -22.4         eV of first channel  (separate by commas if more than one detector
#SIGNALTYPE  : XRF
#YP_TEMP     : -1.453
#LIVETIME    : 8.84399, 8.82318   seconds (separate by commas if more than one detector)
#REALTIME    : 10, 10.0   seconds (separate by commas if more than one detector)
#SPECTRUM    : start of spectrum data
0, 0
0, 0
0, 0
0, 0
0, 0
0, 0
0, 0
0, 0
2, 5
5, 3
6, 5
5, 10
17, 14
28, 20
36, 43
101, 137
454, 516
110, 103
27, 26
17, 21
54, 64
285, 319
86, 103
82, 87
248, 245
115, 118
82, 68
29, 27
8, 10
12, 10
29, 31
14, 6
18, 31
224, 257
305, 337
41, 50
47, 51
55, 46
3, 12
10, 9
25, 28
59, 64
37, 29
14, 13
11, 9
20, 15
10, 17
11, 15
15, 18
22, 33
18, 23
13, 16
14, 18
42, 46
48, 40
18, 20
41, 47
447, 538
1537, 1706
883, 887
76, 92
16, 15
20, 22
90, 103
249, 255
152, 119
24, 18
16, 11
7, 13
9, 8
7, 10
3, 5
6, 10
7, 8
8, 6
9, 1
7, 3
5, 12
6, 10
9, 15
10, 3
6, 6
5, 9
5, 4
3, 3
5, 4
5, 7
3, 4
4, 7
3, 5
9, 7
6, 2
4, 2
4, 3
4, 4
1, 4
4, 4
5, 3
4, 5
1, 5
5, 5
4, 1
3, 0
6, 6
4, 3
6, 4
2, 2
3, 5
2, 4
1, 1
1, 3
2, 3
2, 1
1, 1
2, 5
5, 4
3, 2
2, 2
0, 1
0, 2
2, 1
2, 0
0, 2
2, 1
5, 3
1, 1
0, 2
2, 0
1, 2
0, 2
1, 0
0, 2
0, 1
1, 0
3, 0
2, 0
0, 0
2, 2
2, 1
1, 1
0, 2
0, 1
1, 1
1, 0
2, 1
0, 0
0, 1
0, 0
1, 3
0, 1
1, 0
1, 0
0, 0
1, 0
0, 0
1, 0
0, 0
0, 1
0, 0
0, 0
1, 1
0, 1
1, 0
1, 0
0, 0
1, 0
1, 1
0, 0
1, 1
0, 1
1, 0
0, 0
0, 1
0, 1
0, 0
0, 0
0, 0
0, 0
0, 0
0, 0
0, 0
0, 0
0, 0
0, 3
1, 0
0, 0
0, 0
0, 0
0, 0
0, 0
0, 0
0, 0
0, 0
0, 0
0, 0
0, 1
0, 0
0, 0
0, 1
0, 0
0, 0
0, 0
0, 0
0, 0
0, 0
0, 0
0, 0
0, 0
0, 0
0, 0
0, 0
0, 0
0, 0
0, 0
0, 0
0, 0
0, 0
0, 0
0, 0
0, 0
0, 0
0, 0
0, 0
0, 0
0, 0
0, 0
0, 0
0, 0
0, 0
0, 0
0, 0
0, 0
0, 0
0, 0
0, 0
0, 0
0, 0
0, 0
0, 0
0, 0
0, 0
0, 0
0, 0
0, 0
0, 0
0, 0
0, 0
0, 0
0, 0
0, 0
0, 0
0, 0
0, 0
0, 0
0, 0
0, 0
0, 0
0, 0
0, 0
0, 0
0, 0
0, 0
0, 0
0, 0
0, 0
0, 0
0, 0
0, 0
0, 0
0, 0
0, 0
0, 0
0, 0
0, 0
0, 0
0, 0
0, 0
0, 0
0, 0
0, 0
0, 0
0, 0
0, 0
0, 0
0, 0
0, 0
0, 0
0, 0
0, 0
0, 0
0, 0
0, 0
0, 0
0, 0
#ENDOFDATA     end of spectrum data

File: ps__0567_0717304816_000rfs_shot_82.msa
#FORMAT      : EMSA/MAS spectral data file
#VERSION     : TC202v2.0 PIXL
#TITLE       : Novarupta (sol567) subset1
#DATE        : 02-11-2024      Date in the format DD-MMM-YYYY, for example 07-JUL-2010
#TIME        :             The time of day at which the spectrum was recorded, in 24-hour format
#OWNER       : PIXL Flight Model       (PIXL will use this to indicate which instrument took the data.)
#NPOINTS     : 4096     Number of data points in the spectrum (This can be zero for configuration only files)
#NCOLUMNS    : 2     Number of data columns in the spectrum (This can be zero for configuration only files)
#XUNITS      : eV
#YUNITS      : COUNTS
#DATATYPE    : YY
#XPERCHAN    : 7.862, 7.881   eV per channel (separate by commas if more than one detector)
#OFFSET      : 18.5, -22.4         eV of first channel  (separate by commas if more than one detector
#SIGNALTYPE  : XRF
#YP_TEMP     : -1.517
#LIVETIME    : 8.8366, 8.82811   seconds (separate by commas if more than one detector)
#REALTIME    : 10, 10.0   seconds (separate by commas if more than one detector)
#SPECTRUM    : start of spectrum data
0, 0
0, 0
0, 0
0, 0
0, 0
0, 0
0, 0
0, 0
2, 7
4, 3
2, 2
4, 14
4, 13
28, 26
43, 35
120, 128
453, 528
131, 112
27, 42
19, 26
60, 56
271, 317
119, 109
73, 82
189, 240
111, 117
64, 73
29, 23
7, 9
7, 10
18, 27
16, 11
14, 26
211, 228
272, 327
46, 41
42, 40
38, 41
10, 23
11, 6
30, 32
64, 68
45, 27
14, 18
13, 18
15, 22
14, 12
11, 8
22, 12
25, 30
19, 35
16, 10
14, 16
33, 55
38, 42
23, 24
33, 33
445, 519
1612, 1798
941, 860
96, 66
12, 17
14, 34
106, 109
260, 266
147, 137
29, 18
5, 16
9, 8
6, 7
8, 4
6, 6
5, 4
4, 1
11, 6
6, 15
3, 8
10, 8
9, 10
6, 11
7, 4
2, 10
2, 5
4, 4
1, 4
5, 7
6, 7
7, 6
4, 9
4, 5
4, 1
5, 8
5, 5
1, 6
2, 6
5, 6
3, 3
4, 2
4, 0
1, 3
1, 5
1, 2
5, 4
1, 2
3, 1
1, 5
3, 3
1, 5
2, 0
5, 2
0, 1
1, 2
0, 1
3, 1
2, 7
2, 3
1, 2
2, 6
0, 2
1, 1
1, 0
1, 5
0, 2
0, 2
1, 3
0, 1
1, 1
3, 2
1, 2
2, 1
0, 2
3, 1
0, 0
0, 1
0, 2
0, 2
0, 2
0, 0
1, 0
1, 2
2, 0
0, 0
0, 0
0, 1
2, 1
1, 1
0, 1
0, 3
0, 0
0, 0
0, 2
0, 1
1, 0
0, 0
0, 0
1, 0
0, 0
0, 2
0, 1
0, 0
1, 1
0, 0
1, 1
0, 0
0, 1
2, 0
0, 0
0, 0
0, 0
0, 0
2, 0
1, 0
0, 0
0, 0
0, 0
0, 0
0, 0
0, 1
0, 0
0, 0
0, 0
0, 0
0, 1
1, 0
0, 0
0, 0
0, 0
0, 0
1, 0
0, 0
0, 0
0, 0
0, 0
0, 0
0, 0
0, 0
0, 0
0, 0
0, 0
0, 0
0, 0
0, 0
0, 0
0, 0
0, 0
0, 0
0, 0
0, 0
0, 0
0, 0
0, 0
0, 0
0, 0
0, 0
0, 0
0, 0
0, 0
0, 0
0, 0
0, 0
0, 0
0, 0
0, 0
0, 0
0, 0
0, 0
0, 0
0, 0
0, 0
0, 0
0, 0
0, 0
0, 0
0, 0
0, 0
0, 0
0, 0
0, 0
0, 0
0, 0
0, 0
0, 0
0, 0
0, 0
0, 0
0, 0
0, 0
0, 0
0, 0
0, 0
0, 0
0, 0
0, 0
0, 0
0, 0
0, 0
0, 0
0, 0
0, 0
0, 0
0, 0
0, 0
0, 0
0, 0
0, 0
0, 0
0, 0
0, 0
0, 0
0, 0
0, 0
0, 0
0, 0
0, 0
0, 0
0, 0
0, 0
0, 0
0, 0
0, 0
0, 0
0, 0
0, 0
0, 0
0, 0
0, 0
0, 0
0, 0
0, 0
0, 0
0, 0
0, 0
0, 0
0, 0
#ENDOFDATA     end of spectrum data

File: ps__0567_0717304816_000rfs_shot_83.msa
#FORMAT      : EMSA/MAS spectral data file
#VERSION     : TC202v2.0 PIXL
#TITLE       : Novarupta (sol567) subset1
#DATE        : 02-11-2024      Date in the format DD-MMM-YYYY, for example 07-JUL-2010
#TIME        :             The time of day at which the spectrum was recorded, in 24-hour format
#OWNER       : PIXL Flight Model       (PIXL will use this to indicate which instrument took the data.)
#NPOINTS     : 4096     Number of data points in the spectrum (This can be zero for configuration only files)
#NCOLUMNS    : 2     Number of data columns in the spectrum (This can be zero for configuration only files)
#XUNITS      : eV
#YUNITS      : COUNTS
#DATATYPE    : YY
#XPERCHAN    : 7.862, 7.881   eV per channel (separate by commas if more than one detector)
#OFFSET      : 18.5, -22.4         eV of first channel  (separate by commas if more than one detector
#SIGNALTYPE  : XRF
#YP_TEMP     : -1.164
#LIVETIME    : 8.84133, 8.8265   seconds (separate by commas if more than one detector)
#REALTIME    : 10, 10.0   seconds (separate by commas if more than one detector)
#SPECTRUM    : start of spectrum data
0, 0
0, 0
0, 0
0, 0
0, 0
0, 0
0, 0
0, 1
2, 2
4, 4
4, 1
3, 6
16, 9
26, 32
36, 41
122, 121
464, 510
117, 103
33, 34
14, 21
57, 73
292, 297
109, 115
75, 72
211, 255
104, 116
63, 75
24, 31
13, 7
5, 11
29, 31
10, 14
20, 32
198, 260
314, 307
47, 40
47, 50
44, 46
11, 20
5, 9
18, 19
62, 56
37, 31
16, 15
18, 14
20, 24
12, 15
9, 9
18, 28
39, 37
16, 25
11, 14
20, 10
48, 37
42, 50
22, 22
36, 33
430, 564
1656, 1796
935, 900
106, 83
23, 11
18, 19
92, 121
245, 301
148, 105
18, 19
10, 9
13, 11
7, 6
2, 6
9, 5
10, 2
11, 11
1, 6
3, 5
10, 10
1, 6
8, 15
7, 7
7, 8
5, 6
3, 13
7, 4
7, 6
4, 5
8, 4
6, 10
8, 4
3, 3
4, 4
6, 7
7, 1
3, 2
3, 3
3, 2
2, 3
4, 2
4, 5
1, 3
6, 6
1, 0
2, 2
5, 4
3, 3
3, 3
1, 1
3, 3
0, 3
2, 2
1, 4
3, 2
3, 4
3, 4
3, 3
3, 4
1, 1
2, 2
4, 0
0, 1
2, 0
0, 0
1, 1
4, 1
0, 2
0, 1
0, 1
1, 0
2, 2
1, 0
0, 0
2, 0
0, 2
3, 2
1, 0
1, 0
1, 0
0, 1
1, 1
0, 2
2, 1
0, 0
0, 0
2, 1
0, 0
1, 1
0, 0
1, 0
0, 0
0, 0
0, 0
0, 1
0, 1
0, 0
1, 0
0, 0
0, 0
0, 1
1, 0
1, 0
0, 0
0, 0
1, 0
1, 0
0, 0
0, 1
0, 0
0, 0
1, 0
0, 0
0, 0
0, 0
0, 0
0, 0
0, 1
0, 0
0, 0
0, 0
0, 0
1, 0
0, 0
0, 0
0, 0
0, 0
0, 0
0, 0
0, 0
0, 0
0, 0
0, 0
0, 0
0, 0
0, 0
0, 0
0, 0
0, 0
0, 0
0, 0
0, 0
0, 0
0, 0
0, 0
0, 0
0, 0
0, 0
0, 0
0, 0
0, 0
0, 0
0, 0
0, 0
0, 0
0, 0
0, 0
0, 0
0, 0
0, 0
0, 0
0, 0
0, 0
0, 0
0, 0
0, 0
0, 0
0, 0
0, 0
0, 0
0, 0
0, 0
0, 0
0, 0
0, 0
0, 0
0, 0
0, 0
0, 0
0, 0
0, 0
0, 0
0, 0
0, 0
0, 0
0, 0
0, 0
0, 0
0, 0
0, 0
0, 0
0, 0
0, 0
0, 0
0, 0
0, 0
0, 0
0, 0
0, 0
0, 0
0, 0
0, 0
0, 0
0, 0
0, 0
0, 0
0, 0
0, 0
0, 0
0, 0
0, 0
0, 0
0, 0
0, 0
0, 0
0, 0
0, 0
0, 0
0, 0
0, 0
0, 0
0, 0
0, 0
0, 0
0, 0
0, 0
0, 0
0, 0
0, 0
0, 0
0, 0
0, 0
0, 0
0, 0
0, 0
0, 0
0, 0
#ENDOFDATA     end of spectrum data

File: ps__0567_0717304816_000rfs_shot_84.msa
#FORMAT      : EMSA/MAS spectral data file
#VERSION     : TC202v2.0 PIXL
#TITLE       : Novarupta (sol567) subset1
#DATE        : 02-11-2024      Date in the format DD-MMM-YYYY, for example 07-JUL-2010
#TIME        :             The time of day at which the spectrum was recorded, in 24-hour format
#OWNER       : PIXL Flight Model       (PIXL will use this to indicate which instrument took the data.)
#NPOINTS     : 4096     Number of data points in the spectrum (This can be zero for configuration only files)
#NCOLUMNS    : 2     Number of data columns in the spectrum (This can be zero for configuration only files)
#XUNITS      : eV
#YUNITS      : COUNTS
#DATATYPE    : YY
#XPERCHAN    : 7.862, 7.881   eV per channel (separate by commas if more than one detector)
#OFFSET      : 18.5, -22.4         eV of first channel  (separate by commas if more than one detector
#SIGNALTYPE  : XRF
#YP_TEMP     : -1.26
#LIVETIME    : 8.84717, 8.82361   seconds (separate by commas if more than one detector)
#REALTIME    : 10, 10.0   seconds (separate by commas if more than one detector)
#SPECTRUM    : start of spectrum data
0, 0
0, 0
0, 0
0, 0
0, 0
0, 0
0, 0
0, 0
3, 2
2, 6
5, 3
12, 8
13, 16
21, 17
44, 47
109, 140
410, 480
118, 121
27, 26
24, 25
62, 50
273, 299
115, 123
76, 97
243, 227
109, 103
71, 58
26, 18
8, 8
7, 8
21, 30
19, 17
24, 21
205, 237
273, 310
37, 41
43, 43
40, 61
12, 12
12, 13
11, 24
66, 66
38, 26
13, 20
13, 14
16, 11
20, 12
9, 6
21, 14
22, 32
23, 26
9, 9
15, 14
35, 44
61, 49
19, 23
37, 44
446, 550
1591, 1710
935, 868
109, 83
14, 15
20, 27
102, 129
260, 279
141, 117
33, 10
2, 14
12, 11
6, 8
10, 12
2, 8
4, 4
10, 7
7, 7
7, 6
5, 4
7, 8
8, 15
11, 12
5, 4
8, 8
8, 8
5, 5
3, 3
5, 9
5, 1
6, 3
6, 4
3, 2
4, 3
4, 5
3, 5
5, 4
8, 3
1, 3
5, 4
3, 2
4, 4
4, 5
3, 7
3, 1
3, 0
2, 3
2, 0
5, 3
2, 2
4, 1
2, 2
2, 1
2, 3
0, 0
4, 0
0, 3
1, 2
2, 2
5, 2
2, 4
2, 3
1, 2
0, 0
1, 6
0, 0
3, 2
0, 0
0, 1
2, 0
1, 1
1, 3
1, 1
2, 0
2, 3
1, 1
1, 0
0, 1
0, 0
1, 1
0, 0
0, 2
0, 0
1, 0
0, 0
0, 0
0, 0
0, 0
1, 1
1, 0
3, 0
0, 0
0, 0
0, 0
0, 0
1, 0
0, 0
0, 0
1, 1
0, 0
1, 0
0, 0
1, 1
1, 0
0, 0
0, 0
0, 0
0, 0
0, 0
0, 0
0, 0
0, 0
0, 0
0, 1
0, 1
1, 0
0, 0
0, 0
0, 0
0, 1
0, 0
0, 0
0, 1
0, 0
0, 0
0, 1
0, 1
0, 0
0, 0
0, 0
0, 0
0, 1
1, 0
0, 0
0, 0
0, 0
0, 0
0, 0
0, 0
0, 0
0, 0
0, 0
1, 0
0, 0
0, 0
0, 0
0, 0
0, 0
0, 0
0, 0
0, 0
0, 0
0, 0
0, 0
0, 0
0, 0
0, 0
0, 0
0, 0
0, 0
0, 0
0, 0
0, 0
0, 0
0, 0
0, 0
0, 0
0, 0
0, 0
0, 0
0, 0
0, 0
0, 0
0, 0
0, 0
0, 0
0, 0
0, 0
0, 0
0, 0
0, 0
0, 0
0, 0
0, 0
0, 0
0, 0
0, 0
0, 0
0, 0
0, 0
0, 0
0, 0
0, 0
0, 0
0, 0
0, 0
0, 0
0, 0
0, 0
0, 0
0, 0
0, 0
0, 0
0, 0
0, 0
0, 0
0, 0
0, 0
0, 0
0, 0
0, 0
0, 0
0, 0
0, 0
0, 0
0, 0
0, 0
0, 0
0, 0
0, 0
0, 0
0, 0
0, 0
0, 0
0, 0
0, 0
0, 0
0, 0
0, 0
0, 0
0, 0
0, 0
0, 0
0, 0
0, 0
0, 0
0, 0
#ENDOFDATA     end of spectrum data

File: ps__0567_0717304816_000rfs_shot_87.msa
#FORMAT      : EMSA/MAS spectral data file
#VERSION     : TC202v2.0 PIXL
#TITLE       : Novarupta (sol567) subset1
#DATE        : 02-11-2024      Date in the format DD-MMM-YYYY, for example 07-JUL-2010
#TIME        :             The time of day at which the spectrum was recorded, in 24-hour format
#OWNER       : PIXL Flight Model       (PIXL will use this to indicate which instrument took the data.)
#NPOINTS     : 4096     Number of data points in the spectrum (This can be zero for configuration only files)
#NCOLUMNS    : 2     Number of data columns in the spectrum (This can be zero for configuration only files)
#XUNITS      : eV
#YUNITS      : COUNTS
#DATATYPE    : YY
#XPERCHAN    : 7.862, 7.881   eV per channel (separate by commas if more than one detector)
#OFFSET      : 18.5, -22.4         eV of first channel  (separate by commas if more than one detector
#SIGNALTYPE  : XRF
#YP_TEMP     : -1.293
#LIVETIME    : 8.83608, 8.83435   seconds (separate by commas if more than one detector)
#REALTIME    : 10, 10.0   seconds (separate by commas if more than one detector)
#SPECTRUM    : start of spectrum data
0, 0
0, 0
0, 0
0, 0
0, 0
0, 0
0, 0
2, 0
1, 3
2, 1
1, 4
13, 16
10, 16
30, 26
47, 41
121, 131
472, 456
117, 116
25, 34
22, 25
54, 52
291, 317
114, 105
90, 84
242, 231
126, 118
78, 70
34, 20
8, 9
9, 9
31, 25
19, 8
30, 26
239, 202
296, 312
41, 46
47, 42
51, 47
6, 13
10, 9
19, 21
54, 67
35, 33
14, 15
15, 19
13, 19
13, 11
6, 14
21, 25
24, 43
23, 24
15, 9
14, 16
34, 44
44, 46
18, 23
31, 28
389, 541
1633, 1711
922, 848
100, 80
18, 14
26, 23
112, 107
255, 279
133, 130
20, 18
13, 7
16, 20
9, 6
4, 4
7, 5
7, 4
4, 6
5, 6
4, 5
9, 9
7, 5
13, 11
10, 13
10, 7
6, 4
6, 8
8, 5
2, 3
5, 6
8, 2
3, 4
5, 3
6, 4
2, 7
4, 6
0, 4
1, 5
1, 3
1, 6
3, 4
3, 5
1, 5
5, 2
4, 1
7, 3
4, 5
5, 4
5, 2
3, 1
0, 3
0, 2
3, 4
1, 5
1, 2
0, 1
3, 6
0, 1
3, 1
4, 2
1, 6
4, 3
1, 3
1, 0
2, 1
2, 3
1, 3
1, 1
0, 0
1, 0
0, 3
0, 2
2, 0
0, 2
4, 1
0, 0
1, 1
1, 0
1, 1
1, 2
0, 0
0, 0
1, 1
1, 2
0, 2
0, 0
2, 2
2, 0
2, 2
0, 0
0, 0
1, 0
0, 0
1, 0
1, 0
0, 0
0, 0
0, 0
0, 1
0, 0
0, 0
0, 0
0, 0
1, 0
2, 1
0, 1
0, 0
0, 1
1, 0
0, 0
0, 0
1, 0
0, 1
1, 1
2, 0
0, 2
1, 0
0, 0
0, 0
0, 0
0, 0
0, 1
0, 0
0, 0
0, 0
0, 1
0, 0
0, 1
0, 0
0, 0
0, 0
0, 0
0, 0
0, 0
0, 0
0, 0
0, 0
0, 0
0, 0
0, 0
0, 0
0, 0
0, 0
0, 0
0, 0
0, 0
0, 0
0, 0
0, 0
0, 0
0, 0
0, 0
0, 0
0, 0
0, 0
0, 0
0, 0
0, 0
0, 0
0, 0
0, 0
0, 0
0, 0
0, 0
0, 0
0, 0
0, 0
0, 0
0, 0
0, 0
0, 0
0, 0
0, 0
0, 0
0, 0
0, 0
0, 0
0, 0
0, 0
0, 0
0, 0
0, 0
0, 0
0, 0
0, 0
0, 0
0, 0
0, 0
0, 0
0, 0
0, 0
0, 0
0, 0
0, 0
0, 0
0, 0
0, 0
0, 0
0, 0
0, 0
0, 0
0, 0
0, 0
0, 0
0, 0
0, 0
0, 0
0, 0
0, 0
0, 0
0, 0
0, 0
0, 0
0, 0
0, 0
0, 0
0, 0
0, 0
0, 0
0, 0
0, 0
0, 0
0, 0
0, 0
0, 0
0, 0
0, 0
0, 0
0, 0
0, 0
0, 0
0, 0
0, 0
0, 0
0, 0
0, 0
0, 0
0, 0
#ENDOFDATA     end of spectrum data

File: ps__0567_0717304816_000rfs_shot_88.msa
#FORMAT      : EMSA/MAS spectral data file
#VERSION     : TC202v2.0 PIXL
#TITLE       : Novarupta (sol567) subset1
#DATE        : 02-11-2024      Date in the format DD-MMM-YYYY, for example 07-JUL-2010
#TIME        :             The time of day at which the spectrum was recorded, in 24-hour format
#OWNER       : PIXL Flight Model       (PIXL will use this to indicate which instrument took the data.)
#NPOINTS     : 4096     Number of data points in the spectrum (This can be zero for configuration only files)
#NCOLUMNS    : 2     Number of data columns in the spectrum (This can be zero for configuration only files)
#XUNITS      : eV
#YUNITS      : COUNTS
#DATATYPE    : YY
#XPERCHAN    : 7.862, 7.881   eV per channel (separate by commas if more than one detector)
#OFFSET      : 18.5, -22.4         eV of first channel  (separate by commas if more than one detector
#SIGNALTYPE  : XRF
#YP_TEMP     : -1.26
#LIVETIME    : 8.84433, 8.63896   seconds (separate by commas if more than one detector)
#REALTIME    : 10, 10.0   seconds (separate by commas if more than one detector)
#SPECTRUM    : start of spectrum data
0, 0
0, 0
0, 0
0, 0
0, 0
0, 0
0, 0
0, 1
1, 5
2, 0
8, 1
13, 8
11, 17
18, 22
36, 56
105, 140
444, 538
118, 125
36, 35
22, 20
66, 79
297, 320
99, 111
94, 93
217, 231
117, 124
66, 74
28, 31
11, 6
12, 8
24, 32
18, 13
20, 28
192, 219
316, 311
36, 57
46, 52
55, 65
19, 12
6, 8
22, 19
57, 71
29, 41
12, 22
11, 13
16, 16
12, 6
13, 12
10, 10
23, 43
28, 31
8, 17
13, 8
33, 31
53, 55
23, 24
31, 42
402, 563
1589, 1747
933, 921
95, 85
14, 9
26, 18
115, 100
227, 271
127, 138
27, 12
5, 6
4, 13
5, 8
6, 9
10, 5
1, 8
6, 5
6, 4
8, 4
9, 7
8, 6
3, 12
8, 11
2, 4
5, 2
9, 5
4, 10
5, 2
7, 5
4, 3
4, 6
2, 5
6, 5
7, 3
3, 5
9, 4
4, 0
3, 3
1, 10
3, 4
3, 5
4, 3
2, 4
5, 5
4, 7
1, 7
2, 2
0, 3
0, 2
1, 2
1, 3
2, 1
1, 2
2, 3
2, 1
1, 3
2, 1
2, 4
3, 2
5, 4
3, 3
2, 4
0, 1
0, 2
4, 1
2, 4
3, 2
0, 0
2, 1
0, 1
0, 1
0, 1
2, 1
0, 2
0, 2
0, 3
1, 4
0, 0
0, 2
2, 1
2, 1
0, 1
1, 0
0, 1
0, 1
1, 0
0, 0
0, 0
0, 0
2, 0
0, 1
0, 1
1, 0
0, 0
0, 0
0, 1
0, 1
2, 0
0, 0
0, 0
0, 0
0, 0
0, 0
0, 0
1, 0
0, 1
0, 0
0, 1
0, 0
0, 0
0, 0
1, 0
0, 0
1, 1
0, 1
0, 0
0, 0
0, 1
0, 0
0, 0
0, 0
0, 0
0, 1
0, 0
0, 0
0, 1
0, 0
0, 0
0, 0
0, 0
1, 0
0, 0
0, 0
0, 0
1, 0
0, 0
0, 0
1, 1
1, 0
0, 0
0, 0
0, 0
0, 0
0, 0
0, 0
0, 0
0, 0
0, 0
0, 0
0, 0
0, 0
0, 0
0, 0
0, 0
0, 0
0, 0
0, 0
0, 0
0, 0
0, 0
0, 0
0, 0
0, 0
0, 0
0, 0
0, 0
0, 0
0, 0
0, 0
0, 0
0, 0
0, 0
0, 0
0, 0
0, 0
0, 0
0, 0
0, 0
0, 0
0, 0
0, 0
0, 0
0, 0
0, 0
0, 0
0, 0
0, 0
0, 0
0, 0
0, 0
0, 0
0, 0
0, 0
0, 0
0, 0
0, 0
0, 0
0, 0
0, 0
0, 0
0, 0
0, 0
0, 0
0, 0
0, 0
0, 0
0, 0
0, 0
0, 0
0, 0
0, 0
0, 0
0, 0
0, 0
0, 0
0, 0
0, 0
0, 0
0, 0
0, 0
0, 0
0, 0
0, 0
0, 0
0, 0
0, 0
0, 0
0, 0
0, 0
0, 0
0, 0
0, 0
0, 0
0, 0
0, 0
0, 0
0, 0
#ENDOFDATA     end of spectrum data