Folder: data-repository/host_upload/02-11-2024/rqc/uplink1 (part 13)

File: ps__0567_0717304816_000rfs_shot_203.msa
#FORMAT      : EMSA/MAS spectral data file
#VERSION     : TC202v2.0 PIXL
#TITLE       : Novarupta (sol567) subset1
#DATE        : 02-11-2024      Date in the format DD-MMM-YYYY, for example 07-JUL-2010
#TIME        :             The time of day at which the spectrum was recorded, in 24-hour format
#OWNER       : PIXL Flight Model       (PIXL will use this to indicate which instrument took the data.)
#NPOINTS     : 4096     Number of data points in the spectrum (This can be zero for configuration only files)
#NCOLUMNS    : 2     Number of data columns in the spectrum (This can be zero for configuration only files)
#XUNITS      : eV
#YUNITS      : COUNTS
#DATATYPE    : YY
#XPERCHAN    : 7.862, 7.881   eV per channel (separate by commas if more than one detector)
#OFFSET      : 18.5, -22.4         eV of first channel  (separate by commas if more than one detector
#SIGNALTYPE  : XRF
#YP_TEMP     : 0.664
#LIVETIME    : 8.84251, 8.82676   seconds (separate by commas if more than one detector)
#REALTIME    : 10, 10.0   seconds (separate by commas if more than one detector)
#SPECTRUM    : start of spectrum data
0, 0
0, 0
0, 0
0, 0
0, 0
0, 0
0, 0
1, 1
5, 0
3, 2
6, 1
10, 8
17, 22
22, 37
39, 40
93, 130
478, 501
130, 120
27, 31
29, 22
42, 51
305, 337
121, 109
63, 84
173, 227
98, 106
85, 93
34, 27
11, 6
4, 11
24, 28
19, 22
18, 7
204, 235
286, 310
56, 59
40, 46
50, 48
7, 10
9, 6
24, 21
67, 71
41, 43
12, 14
16, 23
19, 22
12, 15
16, 10
13, 16
25, 27
18, 22
14, 12
11, 10
24, 36
45, 39
18, 22
26, 41
359, 476
1537, 1728
1063, 964
105, 94
13, 14
14, 21
74, 96
238, 297
136, 123
23, 20
8, 5
12, 8
8, 4
8, 6
10, 4
2, 6
5, 6
7, 6
5, 8
9, 2
6, 10
9, 7
10, 14
9, 7
6, 10
3, 4
3, 7
5, 10
6, 6
7, 6
2, 4
5, 5
3, 5
4, 3
2, 2
3, 2
3, 4
7, 2
5, 2
4, 6
4, 5
1, 1
2, 2
1, 2
3, 5
1, 2
2, 3
2, 3
4, 1
4, 4
3, 2
0, 5
4, 0
1, 3
2, 2
4, 2
1, 1
2, 3
4, 0
2, 2
3, 2
2, 0
2, 1
2, 2
2, 1
0, 2
1, 2
2, 1
2, 1
1, 0
2, 1
1, 1
0, 0
1, 1
1, 0
0, 0
0, 2
2, 1
0, 1
0, 1
0, 0
1, 0
1, 2
2, 0
0, 0
0, 1
0, 0
0, 1
1, 2
1, 0
1, 0
1, 0
1, 0
0, 2
0, 0
0, 0
2, 1
0, 0
0, 0
0, 0
0, 1
1, 2
1, 0
0, 0
0, 0
0, 0
1, 1
0, 0
0, 1
0, 1
0, 0
0, 0
0, 0
0, 0
0, 0
0, 0
1, 0
1, 1
0, 0
0, 0
0, 0
1, 0
0, 0
0, 0
0, 0
0, 0
0, 0
0, 0
0, 0
0, 0
0, 0
0, 1
0, 0
0, 0
0, 0
0, 1
0, 0
0, 0
0, 0
0, 0
0, 0
0, 0
0, 0
0, 0
0, 0
0, 0
0, 0
0, 0
0, 0
0, 0
0, 0
0, 0
0, 0
0, 0
0, 0
0, 0
0, 0
0, 0
0, 0
0, 0
0, 0
0, 0
0, 1
0, 0
0, 0
0, 0
0, 0
0, 0
0, 0
0, 0
0, 0
0, 0
0, 0
0, 0
0, 0
0, 0
0, 0
0, 0
0, 0
0, 0
0, 0
0, 0
0, 0
0, 0
0, 0
0, 0
0, 0
0, 0
0, 0
0, 0
0, 0
0, 0
0, 0
0, 0
0, 0
0, 0
0, 0
0, 0
0, 0
0, 0
0, 0
0, 0
0, 0
0, 0
0, 0
0, 0
0, 0
0, 0
0, 0
0, 0
0, 0
0, 0
0, 0
0, 0
0, 0
0, 0
0, 0
0, 0
0, 0
0, 0
0, 0
0, 0
0, 0
0, 0
0, 0
0, 0
0, 0
0, 0
0, 0
0, 0
0, 0
0, 0
0, 0
0, 0
0, 0
0, 0
0, 0
#ENDOFDATA     end of spectrum data

File: ps__0567_0717304816_000rfs_shot_208.msa
#FORMAT      : EMSA/MAS spectral data file
#VERSION     : TC202v2.0 PIXL
#TITLE       : Novarupta (sol567) subset1
#DATE        : 02-11-2024      Date in the format DD-MMM-YYYY, for example 07-JUL-2010
#TIME        :             The time of day at which the spectrum was recorded, in 24-hour format
#OWNER       : PIXL Flight Model       (PIXL will use this to indicate which instrument took the data.)
#NPOINTS     : 4096     Number of data points in the spectrum (This can be zero for configuration only files)
#NCOLUMNS    : 2     Number of data columns in the spectrum (This can be zero for configuration only files)
#XUNITS      : eV
#YUNITS      : COUNTS
#DATATYPE    : YY
#XPERCHAN    : 7.862, 7.881   eV per channel (separate by commas if more than one detector)
#OFFSET      : 18.5, -22.4         eV of first channel  (separate by commas if more than one detector
#SIGNALTYPE  : XRF
#YP_TEMP     : 0.664
#LIVETIME    : 8.83824, 8.82645   seconds (separate by commas if more than one detector)
#REALTIME    : 10, 10.0   seconds (separate by commas if more than one detector)
#SPECTRUM    : start of spectrum data
0, 0
0, 0
0, 0
0, 0
0, 0
0, 0
0, 0
0, 0
4, 3
3, 2
5, 0
10, 7
7, 16
21, 25
45, 49
112, 100
486, 526
120, 119
39, 33
28, 20
50, 49
287, 346
116, 116
67, 81
236, 210
123, 98
90, 62
29, 28
6, 8
7, 3
19, 26
21, 17
23, 25
232, 237
351, 343
63, 46
44, 47
47, 45
12, 15
5, 8
20, 19
62, 61
32, 37
17, 9
16, 13
21, 27
14, 13
10, 13
19, 16
24, 27
27, 21
10, 10
21, 9
27, 37
60, 50
16, 18
28, 45
405, 474
1594, 1716
1056, 941
119, 93
11, 15
15, 18
75, 94
261, 273
181, 135
20, 18
7, 6
14, 12
12, 7
4, 7
7, 11
8, 5
3, 9
6, 9
6, 9
4, 10
3, 3
7, 10
9, 12
3, 8
0, 7
4, 7
6, 9
2, 6
0, 3
1, 7
5, 6
6, 6
5, 5
2, 3
7, 3
3, 0
3, 6
6, 3
6, 1
5, 3
5, 3
5, 3
2, 2
4, 1
3, 1
4, 1
1, 0
1, 3
2, 5
1, 1
0, 2
2, 2
1, 5
3, 2
4, 2
1, 3
2, 2
2, 0
2, 1
3, 3
2, 3
0, 2
2, 1
0, 0
0, 2
1, 1
4, 0
0, 3
2, 0
2, 2
2, 1
2, 2
2, 1
0, 1
0, 1
0, 1
0, 0
2, 0
0, 0
2, 0
1, 1
1, 1
1, 0
0, 0
0, 0
1, 0
1, 0
1, 2
1, 1
0, 0
1, 1
1, 1
0, 0
0, 0
0, 1
1, 1
0, 0
1, 0
0, 1
0, 0
0, 0
0, 1
2, 0
0, 1
0, 0
0, 0
0, 1
0, 0
1, 0
0, 0
1, 0
0, 0
0, 0
0, 0
1, 0
0, 1
2, 1
0, 0
0, 0
0, 1
0, 0
0, 0
0, 0
0, 0
0, 0
0, 1
0, 0
1, 0
0, 0
0, 0
0, 0
0, 0
0, 0
0, 0
1, 0
0, 0
0, 0
0, 0
0, 0
0, 0
0, 0
0, 0
0, 0
0, 0
0, 0
0, 0
1, 0
0, 0
0, 0
0, 0
0, 0
0, 0
0, 0
0, 0
0, 0
0, 0
0, 0
0, 0
0, 1
0, 0
0, 0
0, 0
0, 0
0, 0
0, 0
0, 0
0, 0
1, 0
0, 0
0, 0
0, 0
0, 0
0, 0
0, 0
0, 0
0, 0
0, 0
0, 0
0, 0
0, 0
0, 0
0, 0
0, 0
0, 0
0, 0
0, 0
0, 0
0, 0
0, 0
0, 0
0, 0
0, 0
0, 0
0, 0
0, 0
0, 0
0, 0
0, 0
0, 0
0, 0
0, 0
0, 0
0, 0
0, 0
0, 0
0, 0
0, 0
0, 0
0, 0
0, 0
0, 0
0, 0
0, 0
0, 0
0, 0
0, 0
0, 0
0, 0
0, 0
0, 0
0, 0
0, 0
0, 0
0, 0
0, 0
0, 0
0, 0
0, 0
0, 0
0, 0
0, 0
0, 0
0, 0
0, 0
0, 0
0, 0
0, 0
#ENDOFDATA     end of spectrum data

File: ps__0567_0717304816_000rfs_shot_209.msa
#FORMAT      : EMSA/MAS spectral data file
#VERSION     : TC202v2.0 PIXL
#TITLE       : Novarupta (sol567) subset1
#DATE        : 02-11-2024      Date in the format DD-MMM-YYYY, for example 07-JUL-2010
#TIME        :             The time of day at which the spectrum was recorded, in 24-hour format
#OWNER       : PIXL Flight Model       (PIXL will use this to indicate which instrument took the data.)
#NPOINTS     : 4096     Number of data points in the spectrum (This can be zero for configuration only files)
#NCOLUMNS    : 2     Number of data columns in the spectrum (This can be zero for configuration only files)
#XUNITS      : eV
#YUNITS      : COUNTS
#DATATYPE    : YY
#XPERCHAN    : 7.862, 7.881   eV per channel (separate by commas if more than one detector)
#OFFSET      : 18.5, -22.4         eV of first channel  (separate by commas if more than one detector
#SIGNALTYPE  : XRF
#YP_TEMP     : 0.664
#LIVETIME    : 8.82482, 8.82261   seconds (separate by commas if more than one detector)
#REALTIME    : 10, 10.0   seconds (separate by commas if more than one detector)
#SPECTRUM    : start of spectrum data
0, 0
0, 0
0, 0
0, 0
0, 0
0, 0
0, 0
1, 0
2, 3
6, 4
2, 0
11, 10
18, 5
20, 28
44, 35
95, 128
467, 473
133, 102
27, 43
18, 21
60, 73
330, 409
140, 139
81, 64
197, 208
128, 109
77, 65
33, 30
7, 3
11, 13
24, 27
19, 13
21, 20
214, 265
301, 298
49, 38
48, 43
47, 50
13, 9
8, 6
10, 16
56, 67
34, 24
10, 19
22, 16
16, 20
21, 20
6, 13
13, 18
33, 23
31, 22
7, 13
7, 10
36, 27
40, 39
15, 21
29, 21
382, 471
1602, 1777
1017, 928
127, 105
21, 18
23, 11
75, 100
266, 296
158, 152
23, 16
6, 7
17, 15
8, 10
8, 3
8, 6
7, 6
7, 9
5, 10
9, 12
5, 6
7, 5
9, 8
13, 11
3, 1
3, 8
4, 7
2, 7
3, 11
4, 4
4, 3
7, 7
2, 2
4, 11
4, 3
4, 7
5, 2
2, 4
2, 2
2, 5
2, 2
7, 1
1, 3
3, 6
1, 4
4, 2
6, 3
1, 4
0, 4
2, 5
0, 3
0, 3
2, 2
0, 6
2, 3
4, 2
0, 2
2, 2
2, 6
2, 1
3, 7
1, 2
3, 1
1, 3
0, 2
1, 6
2, 0
2, 1
2, 1
3, 0
0, 0
2, 0
0, 1
0, 1
0, 0
1, 0
0, 1
0, 1
1, 0
1, 1
0, 0
0, 1
1, 1
1, 0
1, 1
1, 0
1, 0
0, 0
2, 1
2, 0
0, 1
1, 1
0, 0
0, 2
0, 1
1, 0
0, 1
0, 0
0, 0
0, 1
0, 0
0, 0
0, 0
0, 0
0, 1
0, 0
0, 0
2, 0
0, 0
1, 0
0, 0
0, 1
0, 0
1, 0
0, 0
0, 0
0, 0
0, 1
0, 0
0, 0
0, 0
0, 0
0, 1
1, 0
0, 0
0, 0
0, 0
0, 0
0, 0
0, 0
1, 0
0, 0
0, 0
0, 0
0, 0
0, 0
0, 0
0, 0
0, 0
0, 0
0, 0
0, 0
0, 0
0, 0
0, 0
0, 0
0, 0
0, 0
0, 0
0, 0
0, 0
0, 0
0, 0
0, 0
0, 0
0, 0
1, 0
0, 0
0, 0
0, 0
0, 0
0, 0
0, 0
0, 0
0, 0
0, 0
0, 0
0, 0
0, 0
0, 0
0, 0
0, 0
0, 0
0, 0
0, 0
0, 0
0, 0
0, 0
0, 0
0, 0
0, 0
0, 0
0, 0
0, 0
0, 0
0, 0
0, 0
0, 0
0, 0
0, 0
0, 0
0, 0
0, 0
0, 0
0, 0
0, 0
0, 0
0, 0
0, 0
0, 0
0, 0
0, 0
0, 0
0, 0
0, 0
0, 0
0, 0
0, 0
0, 0
0, 0
0, 0
0, 0
0, 0
0, 0
0, 0
0, 0
0, 0
0, 0
0, 0
0, 0
0, 0
0, 0
0, 0
0, 0
0, 0
0, 0
0, 0
0, 0
0, 0
0, 0
0, 0
0, 0
0, 0
0, 0
0, 0
0, 0
0, 0
0, 0
#ENDOFDATA     end of spectrum data

File: ps__0567_0717304816_000rfs_shot_210.msa
#FORMAT      : EMSA/MAS spectral data file
#VERSION     : TC202v2.0 PIXL
#TITLE       : Novarupta (sol567) subset1
#DATE        : 02-11-2024      Date in the format DD-MMM-YYYY, for example 07-JUL-2010
#TIME        :             The time of day at which the spectrum was recorded, in 24-hour format
#OWNER       : PIXL Flight Model       (PIXL will use this to indicate which instrument took the data.)
#NPOINTS     : 4096     Number of data points in the spectrum (This can be zero for configuration only files)
#NCOLUMNS    : 2     Number of data columns in the spectrum (This can be zero for configuration only files)
#XUNITS      : eV
#YUNITS      : COUNTS
#DATATYPE    : YY
#XPERCHAN    : 7.862, 7.881   eV per channel (separate by commas if more than one detector)
#OFFSET      : 18.5, -22.4         eV of first channel  (separate by commas if more than one detector
#SIGNALTYPE  : XRF
#YP_TEMP     : 0.792
#LIVETIME    : 8.82919, 8.82479   seconds (separate by commas if more than one detector)
#REALTIME    : 10, 10.0   seconds (separate by commas if more than one detector)
#SPECTRUM    : start of spectrum data
0, 0
0, 0
0, 0
0, 0
0, 0
0, 0
0, 0
0, 0
4, 7
2, 6
1, 3
12, 9
10, 10
23, 33
40, 41
97, 125
462, 438
113, 101
36, 34
21, 24
64, 63
373, 363
132, 133
70, 76
212, 185
102, 122
58, 65
25, 28
9, 7
6, 5
25, 28
16, 13
18, 16
179, 234
321, 304
58, 50
42, 39
34, 44
10, 13
8, 11
18, 22
58, 56
29, 26
14, 13
16, 15
18, 16
11, 8
12, 11
14, 22
31, 26
26, 20
15, 15
13, 13
40, 40
48, 51
22, 20
33, 52
427, 440
1714, 1746
1120, 949
112, 106
23, 13
24, 20
90, 89
241, 253
153, 144
25, 16
6, 9
15, 9
11, 9
7, 5
10, 3
5, 6
9, 2
6, 4
12, 8
13, 7
0, 5
17, 6
7, 7
9, 4
6, 9
6, 5
2, 2
5, 4
6, 7
6, 6
4, 5
9, 4
3, 5
3, 4
5, 4
2, 10
3, 5
4, 3
2, 6
6, 2
2, 2
3, 3
2, 4
2, 1
2, 2
2, 2
1, 4
1, 5
3, 1
1, 2
3, 4
2, 2
3, 5
1, 2
2, 1
4, 1
2, 0
5, 3
1, 1
5, 6
2, 1
2, 0
1, 1
1, 0
0, 1
1, 4
0, 2
0, 0
1, 1
3, 1
0, 1
3, 1
1, 0
1, 2
1, 0
1, 0
2, 1
0, 1
0, 1
1, 2
1, 1
0, 0
0, 0
0, 0
0, 1
1, 0
0, 1
0, 0
0, 0
1, 0
0, 0
0, 0
1, 1
0, 0
0, 0
1, 0
0, 0
1, 1
1, 0
0, 1
1, 0
1, 0
0, 0
0, 0
0, 1
1, 0
1, 0
0, 0
0, 0
0, 0
0, 0
0, 0
0, 0
0, 0
0, 0
0, 1
0, 0
1, 0
0, 0
0, 0
1, 0
0, 0
0, 0
0, 0
0, 0
1, 0
1, 2
0, 1
0, 0
0, 0
1, 0
0, 0
0, 0
0, 0
0, 0
0, 0
0, 0
0, 0
0, 0
0, 0
1, 0
0, 0
0, 0
0, 0
0, 0
0, 0
0, 0
0, 0
0, 0
0, 0
0, 0
0, 0
0, 0
0, 0
0, 0
0, 0
0, 0
0, 0
0, 0
0, 0
0, 0
0, 0
0, 0
0, 0
0, 0
0, 0
0, 0
0, 0
0, 0
0, 0
0, 0
0, 0
0, 0
0, 0
0, 0
0, 0
0, 0
0, 0
0, 0
0, 0
0, 0
0, 0
0, 0
0, 0
0, 0
0, 0
0, 0
0, 0
0, 0
0, 0
0, 0
0, 0
0, 0
0, 0
0, 0
0, 0
0, 0
0, 0
0, 0
0, 0
0, 0
0, 0
0, 0
0, 0
0, 0
0, 0
0, 0
0, 0
0, 0
0, 0
0, 0
0, 0
0, 0
0, 0
0, 0
0, 0
0, 0
0, 0
0, 0
0, 0
0, 0
0, 0
0, 0
0, 0
0, 0
0, 0
0, 0
0, 0
0, 0
0, 0
0, 0
0, 0
0, 0
0, 0
0, 0
0, 0
0, 0
#ENDOFDATA     end of spectrum data

File: ps__0567_0717304816_000rfs_shot_211.msa
#FORMAT      : EMSA/MAS spectral data file
#VERSION     : TC202v2.0 PIXL
#TITLE       : Novarupta (sol567) subset1
#DATE        : 02-11-2024      Date in the format DD-MMM-YYYY, for example 07-JUL-2010
#TIME        :             The time of day at which the spectrum was recorded, in 24-hour format
#OWNER       : PIXL Flight Model       (PIXL will use this to indicate which instrument took the data.)
#NPOINTS     : 4096     Number of data points in the spectrum (This can be zero for configuration only files)
#NCOLUMNS    : 2     Number of data columns in the spectrum (This can be zero for configuration only files)
#XUNITS      : eV
#YUNITS      : COUNTS
#DATATYPE    : YY
#XPERCHAN    : 7.862, 7.881   eV per channel (separate by commas if more than one detector)
#OFFSET      : 18.5, -22.4         eV of first channel  (separate by commas if more than one detector
#SIGNALTYPE  : XRF
#YP_TEMP     : 0.6
#LIVETIME    : 8.83072, 8.82945   seconds (separate by commas if more than one detector)
#REALTIME    : 10, 10.0   seconds (separate by commas if more than one detector)
#SPECTRUM    : start of spectrum data
0, 0
0, 0
0, 0
0, 0
0, 0
0, 0
0, 0
1, 0
2, 2
3, 2
4, 1
12, 13
5, 22
18, 25
35, 43
101, 140
466, 526
125, 99
19, 36
23, 22
52, 61
302, 314
129, 122
62, 74
174, 200
112, 110
60, 66
23, 21
12, 7
7, 11
27, 30
15, 19
22, 22
200, 196
293, 326
45, 51
47, 51
50, 49
10, 6
6, 9
18, 21
63, 57
30, 30
12, 15
15, 13
14, 19
15, 13
9, 8
11, 14
22, 35
16, 18
13, 11
13, 16
37, 41
54, 42
19, 19
24, 33
334, 513
1650, 1816
1077, 1058
136, 106
17, 17
26, 29
76, 124
255, 277
155, 123
24, 26
8, 12
9, 16
6, 8
1, 3
8, 8
5, 5
6, 5
9, 11
3, 8
5, 3
6, 7
11, 10
6, 5
3, 5
3, 5
10, 3
4, 6
2, 5
10, 5
3, 6
1, 5
2, 5
2, 5
5, 3
3, 4
1, 3
4, 4
1, 1
2, 3
4, 2
1, 1
2, 3
3, 3
2, 2
3, 2
6, 4
3, 0
1, 2
3, 2
1, 5
7, 3
5, 5
4, 5
3, 4
2, 3
0, 4
2, 2
1, 2
5, 2
4, 2
2, 0
1, 0
1, 2
1, 1
1, 0
4, 3
1, 0
0, 1
0, 1
0, 0
0, 0
2, 1
1, 1
0, 3
0, 0
0, 1
0, 0
0, 1
0, 1
1, 1
1, 1
1, 0
0, 3
0, 1
1, 1
0, 1
0, 0
0, 0
0, 0
0, 0
1, 0
1, 1
0, 0
2, 0
0, 0
0, 1
0, 1
0, 0
1, 0
0, 0
0, 0
0, 0
1, 0
1, 0
0, 0
0, 0
0, 0
0, 0
0, 0
0, 0
0, 0
0, 0
0, 0
0, 0
0, 1
1, 2
0, 0
0, 0
0, 0
0, 0
0, 0
1, 0
0, 0
0, 0
0, 0
0, 0
1, 1
0, 1
0, 0
0, 0
0, 1
0, 0
0, 1
0, 0
0, 0
0, 0
0, 1
0, 0
0, 0
0, 0
0, 0
0, 0
0, 0
0, 0
0, 0
0, 0
0, 0
0, 0
0, 0
0, 0
0, 0
0, 0
0, 0
1, 0
0, 0
0, 0
0, 0
0, 0
0, 0
0, 0
0, 0
0, 0
0, 0
0, 0
0, 0
0, 0
0, 0
0, 0
0, 0
0, 0
0, 0
0, 0
0, 0
0, 0
0, 0
0, 0
0, 0
0, 0
0, 0
0, 0
0, 0
0, 0
0, 0
0, 0
0, 0
0, 0
0, 0
0, 0
0, 0
0, 0
0, 0
0, 0
0, 0
0, 0
0, 0
0, 0
0, 0
0, 0
0, 0
0, 0
0, 0
0, 0
0, 0
0, 0
0, 0
0, 0
0, 0
0, 0
0, 0
0, 0
0, 0
0, 0
0, 0
0, 0
0, 0
0, 0
0, 0
0, 0
0, 0
0, 0
0, 0
0, 0
0, 0
0, 0
0, 0
0, 0
0, 0
0, 0
0, 0
0, 0
0, 0
0, 0
0, 0
0, 0
0, 0
0, 0
0, 0
#ENDOFDATA     end of spectrum data

File: ps__0567_0717304816_000rfs_shot_212.msa
#FORMAT      : EMSA/MAS spectral data file
#VERSION     : TC202v2.0 PIXL
#TITLE       : Novarupta (sol567) subset1
#DATE        : 02-11-2024      Date in the format DD-MMM-YYYY, for example 07-JUL-2010
#TIME        :             The time of day at which the spectrum was recorded, in 24-hour format
#OWNER       : PIXL Flight Model       (PIXL will use this to indicate which instrument took the data.)
#NPOINTS     : 4096     Number of data points in the spectrum (This can be zero for configuration only files)
#NCOLUMNS    : 2     Number of data columns in the spectrum (This can be zero for configuration only files)
#XUNITS      : eV
#YUNITS      : COUNTS
#DATATYPE    : YY
#XPERCHAN    : 7.862, 7.881   eV per channel (separate by commas if more than one detector)
#OFFSET      : 18.5, -22.4         eV of first channel  (separate by commas if more than one detector
#SIGNALTYPE  : XRF
#YP_TEMP     : 0.728
#LIVETIME    : 8.8407, 8.6361   seconds (separate by commas if more than one detector)
#REALTIME    : 10, 10.0   seconds (separate by commas if more than one detector)
#SPECTRUM    : start of spectrum data
0, 0
0, 0
0, 0
0, 0
0, 0
0, 0
0, 0
0, 1
2, 2
2, 2
2, 4
14, 12
12, 8
15, 29
31, 45
110, 133
453, 542
109, 93
26, 36
19, 23
42, 65
290, 326
117, 108
59, 68
179, 218
97, 112
62, 69
23, 31
14, 11
8, 12
20, 28
16, 22
22, 23
202, 293
307, 334
48, 50
40, 53
59, 62
13, 9
8, 10
25, 27
55, 72
29, 29
12, 16
15, 12
12, 18
12, 19
6, 11
14, 10
29, 25
27, 22
11, 8
8, 15
33, 44
48, 43
18, 25
21, 44
377, 477
1585, 1757
1007, 1020
125, 93
14, 18
18, 27
68, 97
235, 285
132, 156
17, 16
10, 12
12, 14
12, 8
3, 8
9, 7
7, 5
6, 6
4, 7
16, 5
9, 9
2, 3
7, 13
10, 8
8, 11
4, 5
4, 6
3, 6
7, 4
4, 2
5, 5
3, 3
5, 3
4, 4
4, 4
4, 3
2, 5
5, 6
7, 9
0, 4
5, 1
5, 3
1, 3
0, 2
0, 1
1, 1
5, 1
5, 3
1, 2
0, 6
3, 2
3, 3
1, 5
3, 1
2, 3
1, 1
1, 0
4, 1
1, 1
1, 2
2, 3
8, 2
1, 2
0, 1
1, 3
1, 1
3, 0
1, 3
0, 1
4, 0
3, 2
0, 3
2, 2
0, 3
0, 1
0, 0
1, 1
1, 1
0, 3
2, 1
0, 1
0, 2
0, 1
1, 1
1, 0
1, 1
0, 2
0, 2
0, 0
1, 0
0, 0
0, 3
1, 0
0, 1
2, 2
1, 0
0, 1
0, 0
1, 1
0, 0
0, 1
1, 0
0, 0
1, 0
0, 0
0, 1
0, 0
0, 0
1, 1
0, 0
0, 0
0, 0
0, 0
0, 1
0, 0
0, 0
0, 0
0, 0
1, 0
1, 0
0, 0
0, 0
1, 0
0, 0
0, 0
0, 0
0, 1
0, 1
0, 0
0, 0
0, 0
0, 1
0, 0
0, 0
0, 0
0, 0
0, 0
0, 0
0, 0
0, 0
0, 0
0, 0
0, 1
0, 0
0, 0
0, 0
0, 0
0, 0
0, 0
0, 0
0, 0
0, 0
0, 0
0, 0
0, 0
0, 0
0, 0
0, 0
0, 0
0, 0
0, 0
0, 0
0, 0
0, 0
0, 0
0, 0
0, 0
0, 0
0, 0
1, 0
0, 0
0, 0
0, 0
0, 0
0, 0
0, 0
0, 0
0, 0
0, 0
0, 0
0, 0
0, 0
0, 0
0, 0
0, 0
0, 0
0, 0
0, 0
0, 0
0, 0
0, 0
0, 0
0, 0
0, 0
0, 0
0, 0
0, 0
0, 0
0, 0
0, 0
0, 0
0, 0
0, 0
0, 0
0, 0
0, 0
0, 0
0, 0
0, 0
0, 0
0, 0
0, 0
0, 0
0, 0
0, 0
0, 0
0, 0
0, 0
0, 0
0, 0
0, 0
0, 0
0, 0
0, 0
0, 0
0, 0
0, 0
0, 0
0, 0
0, 0
0, 0
0, 0
0, 0
0, 0
0, 0
0, 0
0, 0
0, 0
#ENDOFDATA     end of spectrum data

File: ps__0567_0717304816_000rfs_shot_213.msa
#FORMAT      : EMSA/MAS spectral data file
#VERSION     : TC202v2.0 PIXL
#TITLE       : Novarupta (sol567) subset1
#DATE        : 02-11-2024      Date in the format DD-MMM-YYYY, for example 07-JUL-2010
#TIME        :             The time of day at which the spectrum was recorded, in 24-hour format
#OWNER       : PIXL Flight Model       (PIXL will use this to indicate which instrument took the data.)
#NPOINTS     : 4096     Number of data points in the spectrum (This can be zero for configuration only files)
#NCOLUMNS    : 2     Number of data columns in the spectrum (This can be zero for configuration only files)
#XUNITS      : eV
#YUNITS      : COUNTS
#DATATYPE    : YY
#XPERCHAN    : 7.862, 7.881   eV per channel (separate by commas if more than one detector)
#OFFSET      : 18.5, -22.4         eV of first channel  (separate by commas if more than one detector
#SIGNALTYPE  : XRF
#YP_TEMP     : 0.728
#LIVETIME    : 8.84833, 8.81997   seconds (separate by commas if more than one detector)
#REALTIME    : 10, 10.0   seconds (separate by commas if more than one detector)
#SPECTRUM    : start of spectrum data
0, 0
0, 0
0, 0
0, 0
0, 0
0, 0
0, 0
1, 0
4, 2
2, 6
1, 4
7, 11
16, 21
18, 32
37, 40
95, 126
475, 529
115, 127
29, 32
23, 27
51, 63
293, 357
124, 121
59, 64
194, 230
90, 117
75, 60
38, 41
3, 7
11, 11
29, 31
15, 28
18, 29
189, 268
317, 353
45, 54
37, 46
47, 54
13, 10
5, 5
16, 14
50, 64
25, 43
13, 20
13, 13
19, 20
13, 20
4, 13
12, 25
23, 24
14, 20
13, 11
15, 13
28, 45
44, 47
27, 19
25, 22
341, 464
1483, 1818
1011, 1009
110, 93
12, 12
23, 26
77, 87
222, 308
140, 139
24, 17
7, 10
9, 15
6, 14
3, 6
8, 6
4, 5
6, 10
9, 5
5, 10
3, 8
4, 6
3, 11
10, 8
8, 6
4, 4
3, 9
10, 4
2, 9
7, 5
4, 7
11, 5
2, 4
1, 4
2, 4
3, 7
2, 2
3, 3
2, 6
10, 4
3, 4
1, 3
6, 3
2, 2
3, 5
1, 4
2, 4
1, 2
2, 2
5, 1
5, 3
3, 2
4, 3
4, 3
3, 4
2, 2
0, 4
2, 3
1, 2
1, 3
3, 3
1, 2
1, 4
0, 3
1, 1
0, 3
2, 1
2, 4
1, 2
3, 1
0, 3
2, 1
0, 2
0, 0
2, 0
1, 3
0, 0
0, 1
1, 0
2, 0
2, 0
0, 0
0, 0
0, 1
0, 3
0, 1
0, 0
1, 1
1, 1
0, 0
1, 0
0, 0
0, 0
2, 0
1, 0
1, 1
1, 0
1, 0
1, 1
0, 0
0, 0
0, 0
0, 0
0, 0
0, 1
1, 0
0, 0
0, 1
0, 0
1, 0
0, 0
0, 0
0, 0
1, 1
0, 0
0, 0
0, 0
0, 0
0, 1
0, 0
0, 0
1, 0
0, 1
0, 0
1, 0
1, 0
0, 0
0, 0
0, 1
0, 0
0, 0
0, 0
0, 0
0, 0
0, 0
0, 0
0, 0
0, 1
0, 0
0, 0
0, 0
0, 0
0, 0
0, 0
0, 0
0, 0
0, 0
0, 1
0, 0
0, 0
0, 0
0, 0
0, 0
0, 0
0, 0
0, 0
0, 0
0, 0
0, 0
0, 0
0, 0
0, 0
0, 0
0, 0
0, 0
0, 0
0, 0
0, 0
0, 0
0, 0
0, 0
0, 0
0, 0
0, 0
0, 0
0, 0
0, 0
0, 0
0, 0
0, 0
0, 0
0, 0
0, 0
0, 0
0, 0
0, 0
0, 0
0, 0
0, 0
0, 0
0, 0
0, 0
0, 0
0, 0
0, 0
0, 0
0, 0
0, 0
0, 0
0, 0
0, 0
0, 0
0, 0
0, 0
0, 0
0, 0
0, 0
0, 0
0, 0
0, 0
0, 0
0, 0
0, 0
0, 0
0, 0
0, 0
0, 0
0, 0
0, 0
0, 0
0, 0
0, 0
0, 0
0, 0
0, 0
0, 0
0, 0
0, 0
0, 0
0, 0
0, 0
0, 0
0, 0
0, 0
0, 0
0, 0
0, 0
0, 0
#ENDOFDATA     end of spectrum data

File: ps__0567_0717304816_000rfs_shot_215.msa
#FORMAT      : EMSA/MAS spectral data file
#VERSION     : TC202v2.0 PIXL
#TITLE       : Novarupta (sol567) subset1
#DATE        : 02-11-2024      Date in the format DD-MMM-YYYY, for example 07-JUL-2010
#TIME        :             The time of day at which the spectrum was recorded, in 24-hour format
#OWNER       : PIXL Flight Model       (PIXL will use this to indicate which instrument took the data.)
#NPOINTS     : 4096     Number of data points in the spectrum (This can be zero for configuration only files)
#NCOLUMNS    : 2     Number of data columns in the spectrum (This can be zero for configuration only files)
#XUNITS      : eV
#YUNITS      : COUNTS
#DATATYPE    : YY
#XPERCHAN    : 7.862, 7.881   eV per channel (separate by commas if more than one detector)
#OFFSET      : 18.5, -22.4         eV of first channel  (separate by commas if more than one detector
#SIGNALTYPE  : XRF
#YP_TEMP     : 0.632
#LIVETIME    : 8.8508, 8.82371   seconds (separate by commas if more than one detector)
#REALTIME    : 10, 10.0   seconds (separate by commas if more than one detector)
#SPECTRUM    : start of spectrum data
0, 0
0, 0
0, 0
0, 0
0, 0
0, 0
0, 0
1, 1
1, 4
2, 4
4, 2
6, 9
12, 18
21, 26
40, 50
119, 118
442, 511
119, 107
30, 32
17, 29
46, 61
273, 313
83, 119
72, 78
187, 229
98, 124
71, 71
41, 30
10, 4
5, 7
22, 32
11, 18
14, 15
183, 259
284, 293
38, 70
29, 51
37, 53
19, 13
9, 9
11, 28
50, 66
22, 37
15, 15
11, 21
17, 22
15, 16
6, 9
9, 15
30, 36
18, 23
7, 23
6, 9
38, 33
40, 43
17, 20
21, 40
320, 495
1470, 1840
969, 971
101, 103
12, 14
12, 28
76, 114
236, 243
139, 161
23, 12
6, 15
10, 13
3, 15
5, 6
6, 9
5, 6
13, 8
6, 8
5, 9
8, 4
6, 9
7, 9
12, 8
9, 4
7, 7
7, 6
5, 4
3, 5
3, 6
1, 4
6, 7
5, 8
8, 3
7, 2
5, 2
2, 2
2, 2
3, 8
5, 0
3, 3
1, 2
6, 2
0, 1
2, 5
4, 3
2, 5
2, 5
2, 5
0, 1
4, 5
1, 3
1, 1
2, 1
2, 3
1, 2
3, 2
2, 0
4, 3
2, 1
0, 3
3, 0
1, 2
1, 4
1, 1
1, 0
1, 0
4, 1
3, 1
0, 2
1, 4
0, 0
0, 1
0, 0
1, 1
1, 0
2, 2
1, 0
1, 0
0, 2
2, 0
0, 1
1, 0
0, 1
1, 1
0, 1
1, 0
0, 1
0, 5
0, 0
1, 0
1, 1
1, 0
0, 1
0, 0
0, 2
0, 0
0, 0
1, 1
0, 0
0, 0
2, 0
0, 0
0, 1
0, 0
0, 0
0, 0
0, 0
0, 0
0, 0
1, 0
0, 0
0, 1
1, 0
0, 0
0, 0
1, 0
0, 0
0, 0
0, 0
0, 1
0, 0
0, 0
2, 0
0, 0
0, 0
2, 0
0, 0
0, 1
0, 1
0, 0
1, 2
0, 0
0, 1
0, 0
0, 0
0, 0
0, 0
0, 0
0, 0
0, 0
0, 0
0, 0
0, 0
0, 0
0, 0
0, 0
0, 0
0, 0
0, 0
0, 0
0, 1
0, 0
0, 0
0, 0
0, 0
0, 0
0, 0
0, 0
0, 0
0, 0
0, 0
0, 0
0, 0
0, 0
0, 0
0, 0
0, 0
0, 0
0, 0
0, 0
0, 0
0, 0
0, 0
0, 0
0, 0
0, 0
0, 0
0, 0
0, 0
0, 0
0, 0
0, 0
0, 0
0, 0
0, 0
0, 0
0, 0
0, 0
0, 0
0, 0
0, 0
0, 0
0, 0
0, 0
0, 0
0, 0
0, 0
0, 0
0, 0
0, 0
0, 0
0, 0
0, 0
0, 0
0, 0
0, 0
0, 0
0, 0
0, 0
0, 0
0, 0
0, 0
0, 0
0, 0
0, 0
0, 0
0, 0
0, 0
0, 0
0, 0
0, 0
0, 0
0, 0
0, 0
0, 0
0, 0
0, 0
0, 0
0, 0
0, 0
0, 0
0, 0
0, 0
0, 0
0, 0
0, 0
0, 0
#ENDOFDATA     end of spectrum data

File: ps__0567_0717304816_000rfs_shot_217.msa
#FORMAT      : EMSA/MAS spectral data file
#VERSION     : TC202v2.0 PIXL
#TITLE       : Novarupta (sol567) subset1
#DATE        : 02-11-2024      Date in the format DD-MMM-YYYY, for example 07-JUL-2010
#TIME        :             The time of day at which the spectrum was recorded, in 24-hour format
#OWNER       : PIXL Flight Model       (PIXL will use this to indicate which instrument took the data.)
#NPOINTS     : 4096     Number of data points in the spectrum (This can be zero for configuration only files)
#NCOLUMNS    : 2     Number of data columns in the spectrum (This can be zero for configuration only files)
#XUNITS      : eV
#YUNITS      : COUNTS
#DATATYPE    : YY
#XPERCHAN    : 7.862, 7.881   eV per channel (separate by commas if more than one detector)
#OFFSET      : 18.5, -22.4         eV of first channel  (separate by commas if more than one detector
#SIGNALTYPE  : XRF
#YP_TEMP     : 0.824
#LIVETIME    : 8.84721, 8.82641   seconds (separate by commas if more than one detector)
#REALTIME    : 10, 10.0   seconds (separate by commas if more than one detector)
#SPECTRUM    : start of spectrum data
0, 0
0, 0
0, 0
0, 0
0, 0
0, 0
0, 0
0, 0
2, 5
6, 3
1, 5
8, 13
13, 17
21, 21
34, 50
108, 112
432, 457
116, 115
25, 34
19, 19
53, 46
285, 312
100, 104
62, 86
229, 232
104, 110
61, 79
27, 23
8, 10
12, 10
23, 29
13, 16
18, 15
193, 255
300, 334
53, 57
39, 46
49, 52
16, 11
7, 15
26, 21
48, 75
41, 40
14, 15
10, 17
21, 21
10, 26
7, 10
13, 15
27, 26
15, 24
15, 11
11, 20
29, 45
42, 49
22, 25
33, 27
366, 480
1439, 1811
979, 970
120, 86
13, 19
20, 19
86, 94
238, 274
146, 161
18, 14
13, 9
11, 15
8, 12
6, 4
7, 1
6, 7
5, 8
9, 10
7, 12
6, 9
9, 9
12, 8
10, 7
11, 6
5, 7
7, 6
6, 5
2, 5
5, 8
4, 2
7, 7
4, 4
4, 3
5, 3
6, 6
2, 5
1, 3
3, 3
2, 5
4, 1
4, 5
3, 6
2, 5
3, 4
5, 6
4, 2
2, 2
0, 3
2, 3
2, 3
0, 1
2, 1
1, 3
2, 1
3, 1
3, 2
6, 2
1, 2
2, 2
1, 4
0, 3
1, 5
4, 4
0, 2
3, 1
1, 3
1, 1
1, 2
0, 0
1, 1
0, 0
1, 0
0, 4
1, 0
0, 1
0, 1
2, 1
0, 1
0, 0
1, 0
2, 0
0, 0
0, 2
0, 2
0, 1
0, 1
1, 1
0, 0
1, 0
0, 0
0, 0
0, 1
0, 0
0, 0
0, 0
1, 2
0, 0
1, 2
0, 0
0, 0
0, 0
0, 0
0, 1
0, 0
0, 0
0, 0
0, 1
0, 0
0, 0
0, 0
0, 1
0, 0
0, 0
0, 1
1, 0
0, 0
0, 0
0, 0
0, 0
0, 0
0, 0
0, 0
0, 0
0, 0
1, 0
2, 0
0, 0
0, 0
1, 0
0, 0
0, 0
0, 0
0, 0
0, 0
0, 0
0, 0
0, 0
0, 0
0, 0
0, 0
0, 0
0, 0
0, 0
0, 0
0, 0
0, 0
0, 0
0, 0
0, 0
0, 0
0, 0
0, 0
0, 0
0, 0
0, 0
0, 0
0, 0
0, 0
0, 0
0, 0
0, 0
0, 0
0, 0
0, 0
0, 0
0, 0
0, 0
0, 0
0, 0
0, 0
0, 0
0, 0
0, 0
0, 0
0, 0
0, 0
0, 0
0, 0
0, 0
0, 0
0, 0
0, 0
0, 0
0, 0
0, 0
0, 0
0, 0
0, 0
0, 0
0, 0
0, 0
0, 0
0, 0
0, 0
0, 0
0, 0
0, 0
0, 0
0, 0
0, 0
0, 0
0, 0
0, 0
0, 0
0, 0
0, 0
0, 0
0, 0
0, 0
0, 0
0, 0
0, 0
0, 0
0, 0
0, 0
0, 0
0, 0
0, 0
0, 0
0, 0
0, 0
0, 0
0, 0
0, 0
0, 0
0, 0
0, 0
0, 0
0, 0
0, 0
0, 0
0, 0
0, 0
0, 0
0, 0
0, 0
0, 0
#ENDOFDATA     end of spectrum data