Folder: data-repository/host_upload/02-11-2024/rqc/uplink1

Note: host_upload/readME.txt
10-30-2023:
(description: )

11-13-2023:
(description: )

12-01-2023:
(description: )

12-28-2023:
(description: BHVO-2 all sols upload)

File: ps__0567_0717304816_000rfs_shot_1.msa
#FORMAT      : EMSA/MAS spectral data file
#VERSION     : TC202v2.0 PIXL
#TITLE       : Novarupta (sol567) subset1
#DATE        : 02-11-2024      Date in the format DD-MMM-YYYY, for example 07-JUL-2010
#TIME        :             The time of day at which the spectrum was recorded, in 24-hour format
#OWNER       : PIXL Flight Model       (PIXL will use this to indicate which instrument took the data.)
#NPOINTS     : 4096     Number of data points in the spectrum (This can be zero for configuration only files)
#NCOLUMNS    : 2     Number of data columns in the spectrum (This can be zero for configuration only files)
#XUNITS      : eV
#YUNITS      : COUNTS
#DATATYPE    : YY
#XPERCHAN    : 7.862, 7.881   eV per channel (separate by commas if more than one detector)
#OFFSET      : 18.5, -22.4         eV of first channel  (separate by commas if more than one detector
#SIGNALTYPE  : XRF
#YP_TEMP     : -4.371
#LIVETIME    : 8.84519, 8.82559   seconds (separate by commas if more than one detector)
#REALTIME    : 10, 10.0   seconds (separate by commas if more than one detector)
#SPECTRUM    : start of spectrum data
0, 0
0, 0
0, 0
0, 0
0, 0
0, 0
0, 0
0, 0
2, 2
4, 1
3, 2
11, 13
11, 9
32, 27
42, 40
140, 159
422, 507
102, 107
21, 34
15, 21
80, 94
263, 292
106, 96
84, 96
198, 217
91, 114
69, 78
21, 25
13, 7
13, 7
25, 30
7, 16
25, 22
244, 299
246, 237
48, 36
47, 60
49, 38
10, 8
12, 13
37, 44
50, 67
30, 30
12, 15
11, 15
18, 8
8, 9
15, 10
16, 11
32, 25
23, 30
14, 18
9, 19
42, 45
39, 39
16, 20
89, 82
765, 831
1672, 1713
609, 569
62, 52
19, 22
42, 39
158, 175
230, 271
80, 79
13, 16
13, 4
14, 13
9, 4
5, 6
6, 5
10, 9
6, 7
12, 6
4, 8
10, 4
5, 10
9, 15
15, 4
3, 5
4, 6
4, 4
6, 3
5, 6
6, 7
8, 10
8, 8
5, 6
3, 2
5, 3
7, 3
3, 4
6, 2
5, 3
4, 0
3, 5
3, 3
3, 1
3, 1
4, 1
5, 1
2, 3
2, 3
1, 3
4, 1
3, 6
5, 1
3, 1
2, 2
1, 3
1, 0
1, 5
3, 2
1, 1
5, 2
0, 2
1, 0
1, 4
3, 0
1, 2
2, 1
1, 1
1, 0
2, 4
1, 0
2, 2
1, 3
1, 0
2, 1
0, 1
0, 2
2, 1
1, 1
1, 0
1, 0
0, 2
0, 1
1, 0
1, 1
1, 1
0, 1
0, 2
1, 0
0, 0
0, 1
1, 0
1, 2
0, 0
0, 1
0, 2
1, 0
1, 0
0, 0
1, 0
0, 1
0, 0
0, 0
0, 1
0, 1
0, 0
0, 0
0, 0
0, 0
0, 1
0, 0
0, 0
0, 0
0, 1
0, 1
0, 0
1, 0
0, 0
0, 0
0, 0
1, 0
0, 1
0, 0
0, 0
0, 0
0, 0
0, 0
0, 0
0, 0
0, 0
0, 0
0, 0
0, 0
0, 0
0, 1
1, 0
0, 0
0, 0
0, 0
0, 0
0, 0
0, 0
0, 1
0, 0
0, 0
0, 0
0, 0
0, 0
0, 0
0, 0
0, 0
0, 1
0, 0
0, 0
0, 0
0, 0
0, 0
0, 0
0, 0
0, 0
0, 0
0, 0
0, 0
0, 0
0, 0
0, 0
0, 0
0, 0
0, 0
0, 0
0, 0
0, 0
0, 0
0, 0
0, 0
0, 0
0, 0
0, 0
0, 0
0, 0
0, 0
0, 0
0, 0
0, 0
0, 0
0, 0
0, 0
0, 0
0, 0
0, 0
0, 0
0, 0
0, 0
0, 0
0, 0
0, 0
0, 0
0, 0
0, 0
0, 0
0, 0
0, 0
0, 0
0, 0
0, 0
0, 0
0, 0
0, 0
0, 0
0, 0
0, 0
0, 0
0, 0
0, 0
0, 0
0, 0
0, 0
0, 0
0, 0
0, 0
0, 0
0, 0
0, 0
0, 0
0, 0
0, 0
0, 0
0, 0
0, 0
0, 0
0, 0
0, 0
0, 0
0, 0
0, 0
0, 0
0, 0
0, 0
0, 0
#ENDOFDATA     end of spectrum data

File: ps__0567_0717304816_000rfs_shot_4.msa
#FORMAT      : EMSA/MAS spectral data file
#VERSION     : TC202v2.0 PIXL
#TITLE       : Novarupta (sol567) subset1
#DATE        : 02-11-2024      Date in the format DD-MMM-YYYY, for example 07-JUL-2010
#TIME        :             The time of day at which the spectrum was recorded, in 24-hour format
#OWNER       : PIXL Flight Model       (PIXL will use this to indicate which instrument took the data.)
#NPOINTS     : 4096     Number of data points in the spectrum (This can be zero for configuration only files)
#NCOLUMNS    : 2     Number of data columns in the spectrum (This can be zero for configuration only files)
#XUNITS      : eV
#YUNITS      : COUNTS
#DATATYPE    : YY
#XPERCHAN    : 7.862, 7.881   eV per channel (separate by commas if more than one detector)
#OFFSET      : 18.5, -22.4         eV of first channel  (separate by commas if more than one detector
#SIGNALTYPE  : XRF
#YP_TEMP     : -4.404
#LIVETIME    : 8.84217, 8.82982   seconds (separate by commas if more than one detector)
#REALTIME    : 10, 10.0   seconds (separate by commas if more than one detector)
#SPECTRUM    : start of spectrum data
0, 0
0, 0
0, 0
0, 0
0, 0
0, 0
0, 0
0, 1
3, 3
7, 5
3, 8
5, 13
16, 14
24, 26
45, 38
174, 169
458, 433
108, 84
28, 27
16, 17
90, 86
321, 318
134, 124
103, 93
213, 208
110, 98
68, 67
30, 21
6, 11
10, 9
22, 17
16, 12
40, 46
304, 257
263, 234
50, 32
64, 42
48, 39
11, 12
12, 9
24, 32
66, 62
28, 25
16, 9
19, 12
20, 16
7, 12
16, 13
18, 18
24, 34
20, 10
7, 10
20, 8
39, 43
41, 35
23, 20
84, 93
779, 819
1658, 1678
603, 526
58, 50
16, 23
30, 39
152, 159
267, 227
76, 80
8, 9
11, 12
12, 10
8, 6
4, 11
7, 7
8, 6
11, 7
10, 11
11, 9
7, 6
3, 7
8, 8
10, 7
6, 6
6, 4
6, 5
4, 5
6, 8
4, 2
5, 3
3, 6
1, 4
4, 6
3, 7
6, 9
2, 5
4, 3
1, 1
6, 4
3, 2
2, 2
3, 4
2, 1
4, 3
3, 4
8, 5
1, 5
4, 2
3, 3
5, 3
0, 3
1, 0
1, 3
2, 3
2, 4
3, 1
3, 1
1, 3
3, 3
1, 3
2, 2
0, 1
1, 1
2, 2
1, 0
3, 1
0, 2
1, 0
0, 0
1, 2
1, 0
0, 0
1, 0
2, 2
0, 0
1, 0
0, 0
0, 0
0, 0
0, 1
1, 1
1, 1
0, 1
0, 1
0, 0
0, 1
0, 1
0, 0
1, 0
0, 0
0, 0
0, 1
0, 3
0, 0
0, 0
0, 0
0, 2
0, 1
0, 0
0, 0
0, 0
0, 0
0, 0
1, 0
0, 0
0, 0
0, 0
0, 0
0, 0
0, 0
0, 0
0, 1
2, 2
0, 0
1, 0
0, 1
0, 0
0, 0
0, 0
0, 0
0, 0
0, 0
1, 0
0, 0
0, 0
0, 0
0, 0
0, 0
0, 0
0, 0
0, 0
0, 0
0, 0
0, 0
0, 0
0, 0
1, 0
0, 0
0, 0
0, 0
0, 0
0, 0
0, 0
0, 0
0, 0
0, 0
1, 1
0, 0
0, 0
0, 0
0, 0
0, 0
0, 0
0, 0
0, 0
0, 0
0, 0
0, 0
0, 0
0, 0
0, 0
0, 0
0, 0
0, 0
0, 0
0, 1
0, 0
0, 0
0, 0
0, 0
0, 0
0, 0
0, 0
0, 0
0, 0
0, 0
0, 0
0, 0
0, 0
0, 0
0, 0
0, 0
0, 0
0, 0
0, 0
0, 0
0, 0
0, 0
0, 0
0, 0
0, 0
0, 0
0, 0
0, 0
0, 0
0, 0
0, 0
0, 0
0, 0
0, 0
0, 0
0, 0
0, 0
0, 0
0, 0
0, 0
0, 0
0, 0
0, 0
0, 0
0, 0
0, 0
0, 0
0, 0
0, 0
0, 0
0, 0
0, 0
0, 0
0, 0
0, 0
0, 0
0, 0
0, 0
0, 0
0, 0
0, 0
0, 0
0, 0
0, 0
0, 0
0, 0
0, 0
0, 0
0, 0
0, 0
0, 0
#ENDOFDATA     end of spectrum data

File: ps__0567_0717304816_000rfs_shot_8.msa
#FORMAT      : EMSA/MAS spectral data file
#VERSION     : TC202v2.0 PIXL
#TITLE       : Novarupta (sol567) subset1
#DATE        : 02-11-2024      Date in the format DD-MMM-YYYY, for example 07-JUL-2010
#TIME        :             The time of day at which the spectrum was recorded, in 24-hour format
#OWNER       : PIXL Flight Model       (PIXL will use this to indicate which instrument took the data.)
#NPOINTS     : 4096     Number of data points in the spectrum (This can be zero for configuration only files)
#NCOLUMNS    : 2     Number of data columns in the spectrum (This can be zero for configuration only files)
#XUNITS      : eV
#YUNITS      : COUNTS
#DATATYPE    : YY
#XPERCHAN    : 7.862, 7.881   eV per channel (separate by commas if more than one detector)
#OFFSET      : 18.5, -22.4         eV of first channel  (separate by commas if more than one detector
#SIGNALTYPE  : XRF
#YP_TEMP     : -4.339
#LIVETIME    : 8.83459, 8.82571   seconds (separate by commas if more than one detector)
#REALTIME    : 10, 10.0   seconds (separate by commas if more than one detector)
#SPECTRUM    : start of spectrum data
0, 0
0, 0
0, 0
0, 0
0, 0
0, 0
0, 0
1, 0
2, 2
4, 2
2, 9
7, 13
8, 16
35, 25
30, 32
150, 172
439, 442
128, 105
27, 29
14, 15
83, 86
282, 304
106, 84
74, 80
215, 224
97, 105
49, 54
18, 24
9, 5
11, 15
22, 25
17, 17
27, 39
264, 300
236, 265
37, 54
43, 38
38, 42
13, 17
11, 6
30, 30
57, 73
27, 27
16, 7
12, 12
11, 17
10, 19
9, 11
20, 21
16, 32
16, 21
10, 12
22, 13
37, 48
49, 36
19, 20
75, 79
712, 814
1745, 1708
656, 650
60, 53
17, 18
29, 27
133, 165
260, 263
95, 85
10, 10
9, 13
12, 10
13, 7
5, 5
7, 6
7, 3
6, 7
3, 5
6, 11
9, 4
7, 9
19, 9
7, 6
8, 7
7, 3
7, 5
2, 6
6, 5
6, 9
4, 5
3, 10
5, 6
4, 4
8, 5
5, 3
2, 3
3, 6
3, 8
6, 4
4, 4
3, 3
2, 2
2, 1
4, 0
1, 1
3, 4
2, 3
5, 2
2, 1
0, 4
1, 3
6, 5
4, 3
1, 3
4, 1
2, 5
2, 5
1, 5
1, 0
4, 4
1, 2
1, 3
1, 3
2, 1
1, 3
1, 1
1, 1
2, 2
1, 0
0, 1
1, 0
2, 0
0, 0
3, 2
2, 1
0, 1
0, 0
1, 1
0, 1
2, 2
1, 1
1, 0
1, 0
1, 1
0, 0
0, 0
0, 2
0, 0
0, 1
1, 3
0, 0
0, 0
1, 0
0, 0
2, 0
1, 0
0, 0
0, 0
1, 0
0, 0
1, 0
1, 0
0, 1
0, 0
0, 0
0, 1
0, 0
0, 0
0, 0
0, 0
2, 0
0, 0
0, 0
2, 0
1, 1
0, 0
1, 0
0, 0
0, 0
0, 0
0, 0
0, 0
0, 0
0, 1
0, 1
1, 0
1, 0
0, 0
0, 0
0, 0
0, 0
0, 0
0, 0
0, 0
0, 0
0, 0
0, 0
0, 1
0, 0
0, 0
0, 0
0, 0
0, 0
0, 0
0, 0
0, 0
0, 0
0, 0
0, 0
0, 0
0, 0
0, 0
0, 0
0, 0
0, 0
0, 0
0, 0
0, 1
0, 0
0, 0
0, 0
0, 0
0, 0
0, 0
0, 0
0, 0
0, 0
0, 0
0, 0
0, 0
0, 0
0, 0
0, 0
0, 0
0, 0
0, 0
0, 0
0, 0
0, 0
0, 0
0, 0
0, 0
0, 0
0, 0
0, 0
0, 0
0, 0
0, 0
0, 0
0, 0
0, 0
0, 0
0, 0
0, 0
0, 0
0, 0
0, 0
0, 0
0, 0
0, 0
0, 0
0, 0
0, 0
0, 0
0, 0
0, 0
0, 0
0, 0
0, 0
0, 0
0, 0
0, 0
0, 0
0, 0
0, 0
0, 0
0, 0
0, 0
0, 0
0, 0
0, 0
0, 0
0, 0
0, 0
0, 0
0, 0
0, 0
0, 0
0, 0
0, 0
0, 0
0, 0
0, 0
0, 0
0, 0
0, 0
0, 0
#ENDOFDATA     end of spectrum data

File: ps__0567_0717304816_000rfs_shot_9.msa
#FORMAT      : EMSA/MAS spectral data file
#VERSION     : TC202v2.0 PIXL
#TITLE       : Novarupta (sol567) subset1
#DATE        : 02-11-2024      Date in the format DD-MMM-YYYY, for example 07-JUL-2010
#TIME        :             The time of day at which the spectrum was recorded, in 24-hour format
#OWNER       : PIXL Flight Model       (PIXL will use this to indicate which instrument took the data.)
#NPOINTS     : 4096     Number of data points in the spectrum (This can be zero for configuration only files)
#NCOLUMNS    : 2     Number of data columns in the spectrum (This can be zero for configuration only files)
#XUNITS      : eV
#YUNITS      : COUNTS
#DATATYPE    : YY
#XPERCHAN    : 7.862, 7.881   eV per channel (separate by commas if more than one detector)
#OFFSET      : 18.5, -22.4         eV of first channel  (separate by commas if more than one detector
#SIGNALTYPE  : XRF
#YP_TEMP     : -4.275
#LIVETIME    : 8.84481, 8.64624   seconds (separate by commas if more than one detector)
#REALTIME    : 10, 10.0   seconds (separate by commas if more than one detector)
#SPECTRUM    : start of spectrum data
0, 0
0, 0
0, 0
0, 0
0, 0
0, 0
0, 0
0, 1
4, 6
2, 2
3, 4
6, 7
10, 13
26, 33
36, 43
131, 150
464, 453
106, 110
30, 30
24, 17
64, 92
262, 351
92, 99
82, 91
158, 240
120, 102
58, 50
30, 17
9, 13
17, 10
26, 19
16, 23
45, 37
238, 282
256, 287
44, 58
37, 58
38, 42
14, 7
9, 8
35, 31
56, 66
22, 33
15, 16
11, 16
23, 12
13, 16
12, 6
10, 18
24, 28
25, 27
15, 13
14, 20
42, 41
25, 47
23, 17
70, 64
700, 887
1577, 1771
667, 598
67, 45
11, 12
40, 39
146, 157
225, 280
88, 102
10, 12
10, 12
9, 10
6, 7
6, 6
7, 8
4, 7
7, 5
3, 9
13, 2
8, 7
7, 9
7, 9
12, 9
2, 11
9, 7
8, 6
4, 6
8, 5
2, 3
3, 2
4, 7
7, 5
6, 5
10, 6
4, 5
3, 3
3, 3
3, 2
0, 4
3, 3
4, 2
3, 4
3, 1
1, 3
1, 4
2, 1
3, 5
2, 1
2, 4
1, 1
3, 2
2, 2
3, 1
3, 1
0, 1
1, 2
0, 0
0, 3
3, 8
3, 1
1, 5
3, 0
3, 5
0, 0
2, 3
1, 1
0, 0
2, 0
1, 1
0, 1
1, 2
1, 1
0, 0
1, 1
2, 1
1, 1
0, 0
1, 1
0, 1
0, 0
0, 0
2, 1
0, 1
0, 1
0, 0
1, 0
0, 0
0, 0
2, 1
0, 0
0, 1
1, 0
1, 0
1, 0
1, 1
0, 0
1, 0
0, 0
0, 0
1, 1
0, 1
0, 0
0, 0
0, 0
0, 0
0, 0
0, 0
0, 0
0, 0
0, 0
0, 0
0, 0
0, 1
0, 0
0, 0
0, 1
0, 0
0, 0
1, 0
1, 0
0, 0
0, 0
0, 0
0, 0
0, 0
0, 0
0, 1
0, 0
0, 1
0, 0
0, 0
0, 0
0, 0
0, 0
0, 0
0, 0
0, 0
0, 0
0, 0
0, 0
0, 0
0, 0
0, 0
0, 0
0, 0
0, 0
0, 0
0, 0
0, 0
0, 0
0, 0
0, 0
0, 0
0, 0
0, 0
0, 0
0, 0
0, 0
0, 0
0, 0
0, 0
0, 0
0, 0
0, 0
0, 0
0, 0
0, 0
0, 0
0, 0
0, 0
0, 0
0, 0
0, 0
0, 0
0, 0
0, 0
0, 0
0, 0
0, 0
0, 0
0, 0
0, 0
0, 0
0, 0
0, 0
0, 0
0, 0
0, 0
0, 0
0, 0
0, 0
0, 0
0, 0
0, 0
0, 0
0, 0
0, 0
0, 0
0, 0
0, 0
0, 0
0, 0
0, 0
0, 0
0, 0
0, 0
0, 0
0, 0
0, 0
0, 0
0, 0
0, 0
0, 0
0, 0
0, 0
0, 0
0, 0
0, 0
0, 0
0, 0
0, 0
0, 0
0, 0
0, 0
0, 0
0, 0
0, 0
0, 0
0, 0
0, 0
0, 0
0, 0
0, 0
0, 0
0, 0
0, 0
0, 0
#ENDOFDATA     end of spectrum data

File: ps__0567_0717304816_000rfs_shot_11.msa
#FORMAT      : EMSA/MAS spectral data file
#VERSION     : TC202v2.0 PIXL
#TITLE       : Novarupta (sol567) subset1
#DATE        : 02-11-2024      Date in the format DD-MMM-YYYY, for example 07-JUL-2010
#TIME        :             The time of day at which the spectrum was recorded, in 24-hour format
#OWNER       : PIXL Flight Model       (PIXL will use this to indicate which instrument took the data.)
#NPOINTS     : 4096     Number of data points in the spectrum (This can be zero for configuration only files)
#NCOLUMNS    : 2     Number of data columns in the spectrum (This can be zero for configuration only files)
#XUNITS      : eV
#YUNITS      : COUNTS
#DATATYPE    : YY
#XPERCHAN    : 7.862, 7.881   eV per channel (separate by commas if more than one detector)
#OFFSET      : 18.5, -22.4         eV of first channel  (separate by commas if more than one detector
#SIGNALTYPE  : XRF
#YP_TEMP     : -4.404
#LIVETIME    : 8.84501, 8.82805   seconds (separate by commas if more than one detector)
#REALTIME    : 10, 10.0   seconds (separate by commas if more than one detector)
#SPECTRUM    : start of spectrum data
0, 0
0, 0
0, 0
0, 0
0, 0
0, 0
0, 0
0, 1
3, 5
2, 1
5, 1
13, 9
11, 14
19, 26
46, 49
158, 183
425, 483
107, 106
31, 45
16, 23
81, 71
282, 273
92, 77
77, 94
185, 203
93, 105
50, 67
21, 27
10, 9
13, 18
21, 30
14, 11
31, 34
245, 298
247, 239
40, 50
38, 47
38, 56
14, 7
12, 8
32, 28
58, 80
30, 43
13, 16
19, 14
14, 19
16, 14
3, 7
17, 25
19, 32
21, 19
13, 6
14, 15
39, 55
31, 40
16, 21
68, 65
620, 867
1594, 1781
705, 636
58, 45
16, 19
24, 38
118, 153
259, 249
89, 91
20, 14
8, 8
10, 9
8, 9
7, 9
8, 7
5, 6
5, 3
3, 15
5, 5
7, 5
7, 4
12, 9
9, 5
4, 2
5, 7
4, 6
2, 5
4, 2
7, 4
3, 8
6, 4
3, 5
4, 1
6, 2
2, 6
5, 4
3, 2
1, 6
4, 5
1, 4
1, 2
4, 3
1, 5
1, 3
3, 2
2, 4
3, 4
1, 1
2, 6
1, 0
2, 1
3, 5
4, 2
2, 5
0, 2
3, 2
1, 1
0, 0
1, 3
1, 3
0, 1
1, 1
2, 1
1, 3
0, 2
4, 2
3, 0
1, 4
3, 2
1, 2
0, 2
1, 1
0, 3
0, 0
0, 0
2, 0
1, 2
0, 1
0, 0
0, 1
1, 0
1, 0
1, 0
1, 0
0, 0
1, 2
0, 0
0, 0
0, 0
0, 0
0, 0
0, 1
0, 0
0, 0
0, 1
1, 0
0, 0
2, 1
0, 0
0, 0
0, 1
0, 0
0, 0
0, 0
0, 0
1, 0
0, 1
0, 0
1, 0
0, 1
0, 1
0, 0
0, 0
1, 0
1, 0
1, 1
0, 0
0, 1
0, 0
0, 1
0, 1
0, 0
0, 0
0, 0
0, 0
0, 1
0, 0
0, 0
0, 0
0, 0
0, 0
0, 0
0, 0
0, 0
0, 0
0, 0
0, 0
1, 0
1, 0
0, 0
0, 0
0, 0
0, 0
0, 0
0, 0
0, 0
0, 0
0, 0
0, 0
0, 0
0, 0
0, 0
0, 0
0, 0
0, 0
0, 0
0, 0
0, 0
0, 0
0, 0
0, 0
0, 0
0, 0
0, 0
0, 0
0, 0
0, 0
0, 0
0, 0
0, 0
0, 0
0, 0
0, 0
0, 0
0, 0
0, 0
0, 0
0, 0
0, 0
0, 0
0, 0
0, 0
0, 0
0, 0
0, 0
0, 0
0, 0
0, 0
0, 0
0, 0
0, 0
0, 0
0, 0
0, 0
0, 0
0, 0
0, 0
0, 0
0, 0
0, 0
0, 0
0, 0
0, 0
0, 0
0, 0
0, 0
0, 0
0, 0
0, 0
0, 0
0, 0
0, 0
0, 0
0, 0
0, 0
0, 0
0, 0
0, 0
0, 0
0, 0
0, 0
0, 0
0, 0
0, 0
0, 0
0, 0
0, 0
0, 0
0, 0
0, 0
0, 0
0, 0
0, 0
0, 0
0, 0
0, 0
0, 0
#ENDOFDATA     end of spectrum data

File: ps__0567_0717304816_000rfs_shot_12.msa
#FORMAT      : EMSA/MAS spectral data file
#VERSION     : TC202v2.0 PIXL
#TITLE       : Novarupta (sol567) subset1
#DATE        : 02-11-2024      Date in the format DD-MMM-YYYY, for example 07-JUL-2010
#TIME        :             The time of day at which the spectrum was recorded, in 24-hour format
#OWNER       : PIXL Flight Model       (PIXL will use this to indicate which instrument took the data.)
#NPOINTS     : 4096     Number of data points in the spectrum (This can be zero for configuration only files)
#NCOLUMNS    : 2     Number of data columns in the spectrum (This can be zero for configuration only files)
#XUNITS      : eV
#YUNITS      : COUNTS
#DATATYPE    : YY
#XPERCHAN    : 7.862, 7.881   eV per channel (separate by commas if more than one detector)
#OFFSET      : 18.5, -22.4         eV of first channel  (separate by commas if more than one detector
#SIGNALTYPE  : XRF
#YP_TEMP     : -4.371
#LIVETIME    : 8.84365, 8.82156   seconds (separate by commas if more than one detector)
#REALTIME    : 10, 10.0   seconds (separate by commas if more than one detector)
#SPECTRUM    : start of spectrum data
0, 0
0, 0
0, 0
0, 0
0, 0
0, 0
0, 0
0, 0
2, 2
4, 2
3, 7
3, 12
11, 13
23, 21
36, 46
141, 161
404, 485
95, 101
30, 31
16, 28
50, 84
252, 283
95, 97
87, 104
174, 222
76, 96
52, 71
33, 29
8, 2
12, 10
23, 31
6, 17
26, 39
249, 271
238, 266
37, 42
39, 50
45, 35
11, 18
9, 12
25, 34
47, 61
29, 31
10, 14
13, 18
21, 23
11, 14
14, 8
8, 19
21, 39
14, 25
12, 3
20, 20
54, 50
47, 37
22, 19
61, 80
641, 808
1545, 1872
640, 684
70, 59
13, 23
29, 43
159, 177
230, 254
114, 89
12, 16
7, 7
10, 12
6, 8
5, 10
6, 10
3, 5
5, 4
6, 5
7, 6
2, 4
6, 9
6, 21
7, 10
2, 5
6, 4
4, 2
6, 4
2, 5
3, 6
3, 5
5, 5
5, 4
1, 4
2, 5
3, 4
3, 3
4, 3
3, 6
2, 5
3, 9
5, 6
6, 2
2, 2
3, 4
6, 2
1, 4
1, 0
4, 2
2, 4
3, 1
3, 7
2, 4
3, 1
1, 3
0, 3
1, 3
1, 1
1, 3
1, 1
4, 5
2, 2
0, 2
1, 1
2, 1
3, 0
2, 2
4, 1
1, 1
0, 0
1, 2
2, 3
1, 0
0, 0
1, 0
2, 1
1, 2
2, 2
0, 1
0, 1
3, 0
1, 2
0, 0
2, 1
0, 1
1, 0
0, 1
0, 1
0, 0
0, 0
1, 1
0, 0
0, 0
0, 0
0, 0
1, 1
0, 1
0, 1
0, 0
1, 0
0, 0
1, 1
0, 0
0, 0
0, 0
0, 0
0, 0
2, 0
0, 0
0, 0
0, 0
1, 1
1, 0
0, 1
0, 0
0, 0
0, 0
0, 0
1, 0
2, 0
0, 0
0, 0
0, 0
0, 0
0, 0
0, 0
0, 0
1, 0
0, 1
0, 0
0, 0
0, 0
0, 0
0, 0
0, 1
1, 0
0, 0
0, 0
0, 0
0, 0
0, 0
0, 0
0, 0
0, 0
0, 0
0, 0
1, 0
0, 0
0, 0
0, 0
0, 0
0, 0
0, 0
0, 0
0, 0
1, 0
0, 0
0, 0
0, 0
0, 0
0, 0
0, 0
0, 0
0, 0
0, 0
0, 0
0, 0
0, 0
0, 0
0, 0
0, 0
0, 0
0, 0
0, 0
0, 0
0, 0
0, 0
0, 0
0, 0
0, 0
0, 0
0, 0
0, 0
0, 0
0, 0
0, 0
0, 0
0, 0
0, 0
0, 0
0, 0
0, 0
0, 0
0, 0
0, 0
0, 0
0, 0
0, 0
0, 0
0, 0
0, 0
0, 0
0, 0
0, 0
0, 0
0, 0
0, 0
0, 0
0, 0
0, 0
0, 0
0, 0
0, 0
0, 0
0, 0
0, 0
0, 0
0, 0
0, 0
0, 0
0, 0
0, 0
0, 0
0, 0
0, 0
0, 0
0, 0
0, 0
0, 0
0, 0
0, 0
0, 0
0, 0
0, 0
0, 0
0, 0
0, 0
0, 0
#ENDOFDATA     end of spectrum data

File: ps__0567_0717304816_000rfs_shot_13.msa
#FORMAT      : EMSA/MAS spectral data file
#VERSION     : TC202v2.0 PIXL
#TITLE       : Novarupta (sol567) subset1
#DATE        : 02-11-2024      Date in the format DD-MMM-YYYY, for example 07-JUL-2010
#TIME        :             The time of day at which the spectrum was recorded, in 24-hour format
#OWNER       : PIXL Flight Model       (PIXL will use this to indicate which instrument took the data.)
#NPOINTS     : 4096     Number of data points in the spectrum (This can be zero for configuration only files)
#NCOLUMNS    : 2     Number of data columns in the spectrum (This can be zero for configuration only files)
#XUNITS      : eV
#YUNITS      : COUNTS
#DATATYPE    : YY
#XPERCHAN    : 7.862, 7.881   eV per channel (separate by commas if more than one detector)
#OFFSET      : 18.5, -22.4         eV of first channel  (separate by commas if more than one detector
#SIGNALTYPE  : XRF
#YP_TEMP     : -4.404
#LIVETIME    : 8.84251, 8.83392   seconds (separate by commas if more than one detector)
#REALTIME    : 10, 10.0   seconds (separate by commas if more than one detector)
#SPECTRUM    : start of spectrum data
0, 0
0, 0
0, 0
0, 0
0, 0
0, 0
0, 0
0, 0
1, 4
3, 4
2, 3
11, 17
13, 12
22, 31
42, 41
134, 153
439, 446
108, 111
27, 35
18, 19
67, 79
285, 286
105, 99
87, 97
181, 203
118, 83
68, 66
27, 23
13, 7
5, 15
37, 37
13, 21
42, 44
245, 275
248, 275
37, 44
39, 53
44, 41
14, 17
8, 8
31, 27
50, 74
32, 21
12, 20
20, 9
17, 22
11, 26
7, 16
13, 24
18, 25
19, 14
14, 11
14, 17
36, 52
36, 52
21, 23
63, 75
649, 799
1705, 1815
652, 658
57, 66
17, 19
17, 27
138, 147
265, 274
93, 96
17, 16
7, 14
11, 8
11, 8
3, 6
8, 7
10, 2
7, 6
5, 6
2, 6
6, 5
8, 12
18, 13
12, 8
7, 5
4, 3
6, 5
3, 4
2, 7
1, 7
3, 2
6, 3
2, 2
7, 7
5, 6
4, 5
3, 2
4, 3
6, 3
5, 7
4, 7
2, 0
3, 5
0, 3
2, 3
1, 3
2, 3
3, 3
2, 2
3, 0
2, 2
1, 1
4, 0
0, 2
0, 7
4, 4
2, 1
1, 0
0, 3
5, 1
1, 3
0, 2
2, 1
3, 5
3, 1
2, 3
3, 3
1, 1
1, 5
2, 1
1, 1
0, 3
1, 0
1, 3
0, 1
1, 0
0, 2
0, 1
0, 0
0, 0
0, 0
1, 0
0, 0
2, 0
1, 0
1, 1
1, 1
1, 1
0, 0
0, 0
0, 1
0, 0
0, 0
0, 3
0, 0
0, 0
1, 0
0, 0
0, 0
0, 0
2, 1
1, 0
1, 0
0, 0
0, 0
0, 0
0, 1
0, 1
0, 0
0, 0
0, 0
1, 0
1, 0
0, 2
0, 2
0, 0
0, 0
0, 0
0, 0
0, 0
0, 0
0, 0
0, 0
0, 0
0, 0
0, 1
0, 1
0, 0
0, 0
0, 0
0, 0
0, 1
0, 0
0, 0
0, 0
0, 0
0, 0
0, 0
0, 0
0, 0
0, 0
0, 0
0, 0
0, 0
0, 0
0, 0
0, 0
0, 1
0, 0
0, 0
0, 0
0, 0
0, 0
0, 0
0, 0
0, 0
0, 0
0, 0
1, 0
0, 0
0, 0
0, 0
0, 0
0, 0
0, 0
0, 0
0, 0
0, 0
0, 0
0, 0
0, 0
0, 0
0, 0
0, 0
0, 0
0, 0
0, 0
0, 0
0, 0
0, 0
0, 0
0, 0
0, 0
0, 0
0, 0
0, 0
0, 0
0, 0
0, 0
0, 0
0, 0
0, 0
0, 0
0, 0
0, 0
0, 0
0, 0
0, 0
0, 0
0, 0
0, 0
0, 0
0, 0
0, 0
0, 0
0, 0
0, 0
0, 0
0, 0
0, 0
0, 0
0, 0
0, 0
0, 0
0, 0
0, 0
0, 0
0, 0
0, 0
0, 0
0, 0
0, 0
0, 0
0, 0
0, 0
0, 0
0, 0
0, 0
0, 0
0, 0
0, 0
0, 0
0, 0
0, 0
0, 0
0, 0
0, 0
0, 0
#ENDOFDATA     end of spectrum data

File: ps__0567_0717304816_000rfs_shot_14.msa
#FORMAT      : EMSA/MAS spectral data file
#VERSION     : TC202v2.0 PIXL
#TITLE       : Novarupta (sol567) subset1
#DATE        : 02-11-2024      Date in the format DD-MMM-YYYY, for example 07-JUL-2010
#TIME        :             The time of day at which the spectrum was recorded, in 24-hour format
#OWNER       : PIXL Flight Model       (PIXL will use this to indicate which instrument took the data.)
#NPOINTS     : 4096     Number of data points in the spectrum (This can be zero for configuration only files)
#NCOLUMNS    : 2     Number of data columns in the spectrum (This can be zero for configuration only files)
#XUNITS      : eV
#YUNITS      : COUNTS
#DATATYPE    : YY
#XPERCHAN    : 7.862, 7.881   eV per channel (separate by commas if more than one detector)
#OFFSET      : 18.5, -22.4         eV of first channel  (separate by commas if more than one detector
#SIGNALTYPE  : XRF
#YP_TEMP     : -4.339
#LIVETIME    : 8.85064, 8.82838   seconds (separate by commas if more than one detector)
#REALTIME    : 10, 10.0   seconds (separate by commas if more than one detector)
#SPECTRUM    : start of spectrum data
0, 0
0, 0
0, 0
0, 0
0, 0
0, 0
0, 0
0, 0
3, 3
1, 2
1, 4
12, 9
6, 14
27, 31
39, 38
144, 147
428, 528
115, 108
30, 39
17, 30
71, 77
286, 300
109, 110
96, 98
169, 221
96, 92
56, 69
27, 29
10, 12
12, 15
18, 27
13, 20
41, 34
225, 336
269, 264
52, 46
49, 45
41, 50
17, 16
14, 8
25, 33
53, 69
30, 34
16, 16
16, 16
13, 16
7, 10
15, 13
18, 11
23, 33
20, 18
12, 14
16, 16
29, 58
30, 34
13, 23
53, 72
629, 813
1553, 1783
651, 652
81, 63
15, 19
29, 28
110, 148
264, 278
97, 104
16, 18
11, 13
10, 14
8, 10
4, 4
5, 7
5, 11
5, 5
6, 6
5, 5
6, 7
8, 4
7, 11
11, 2
3, 11
2, 6
2, 9
9, 6
5, 4
6, 7
3, 6
6, 7
4, 8
7, 4
4, 4
8, 9
2, 6
8, 1
9, 6
2, 4
6, 6
0, 4
3, 4
5, 2
1, 2
2, 3
3, 4
0, 4
0, 2
4, 3
4, 5
2, 3
3, 3
3, 1
1, 1
1, 0
0, 2
3, 1
0, 4
0, 2
3, 1
0, 2
1, 2
2, 2
3, 2
3, 2
0, 3
2, 1
1, 1
2, 1
0, 1
3, 1
0, 2
0, 0
1, 1
0, 0
1, 0
0, 0
0, 0
0, 1
1, 0
1, 1
1, 2
1, 0
0, 0
2, 0
1, 1
3, 2
1, 0
0, 1
0, 0
1, 1
1, 0
0, 1
0, 0
2, 1
0, 0
0, 0
1, 0
0, 0
0, 0
0, 2
0, 0
0, 0
0, 1
1, 0
0, 0
0, 1
0, 0
0, 0
0, 0
1, 0
1, 0
1, 0
0, 0
0, 0
1, 0
0, 0
0, 0
0, 0
0, 0
0, 0
0, 1
0, 0
0, 0
0, 0
0, 0
0, 0
0, 0
1, 0
0, 0
0, 0
0, 0
0, 0
0, 0
0, 0
0, 0
0, 0
0, 0
0, 0
0, 0
0, 0
0, 0
0, 0
0, 0
0, 0
0, 0
0, 0
0, 0
0, 0
0, 0
0, 0
0, 0
0, 0
0, 0
0, 0
0, 0
0, 0
0, 0
0, 0
0, 0
0, 0
0, 0
0, 0
0, 0
0, 0
0, 0
0, 0
0, 0
0, 0
0, 0
0, 0
0, 0
0, 0
0, 0
0, 0
0, 0
0, 0
0, 0
0, 0
0, 0
0, 0
0, 0
0, 0
0, 0
0, 0
0, 0
0, 0
0, 0
0, 0
0, 0
0, 0
0, 0
0, 0
0, 0
0, 0
0, 0
0, 0
0, 0
0, 0
0, 0
0, 0
0, 0
0, 0
0, 0
0, 0
0, 0
0, 0
0, 0
0, 0
0, 0
0, 0
0, 0
0, 0
0, 0
0, 0
0, 0
0, 0
0, 0
0, 0
0, 0
0, 0
0, 0
0, 0
0, 0
0, 0
0, 0
0, 0
0, 0
0, 0
0, 0
0, 0
0, 0
0, 0
0, 0
0, 0
0, 0
0, 0
#ENDOFDATA     end of spectrum data

File: ps__0567_0717304816_000rfs_shot_16.msa
#FORMAT      : EMSA/MAS spectral data file
#VERSION     : TC202v2.0 PIXL
#TITLE       : Novarupta (sol567) subset1
#DATE        : 02-11-2024      Date in the format DD-MMM-YYYY, for example 07-JUL-2010
#TIME        :             The time of day at which the spectrum was recorded, in 24-hour format
#OWNER       : PIXL Flight Model       (PIXL will use this to indicate which instrument took the data.)
#NPOINTS     : 4096     Number of data points in the spectrum (This can be zero for configuration only files)
#NCOLUMNS    : 2     Number of data columns in the spectrum (This can be zero for configuration only files)
#XUNITS      : eV
#YUNITS      : COUNTS
#DATATYPE    : YY
#XPERCHAN    : 7.862, 7.881   eV per channel (separate by commas if more than one detector)
#OFFSET      : 18.5, -22.4         eV of first channel  (separate by commas if more than one detector
#SIGNALTYPE  : XRF
#YP_TEMP     : -4.339
#LIVETIME    : 8.84368, 8.65258   seconds (separate by commas if more than one detector)
#REALTIME    : 10, 10.0   seconds (separate by commas if more than one detector)
#SPECTRUM    : start of spectrum data
0, 0
0, 0
0, 0
0, 0
0, 0
0, 0
0, 0
3, 0
1, 1
3, 3
4, 3
6, 13
14, 15
27, 32
41, 51
135, 162
448, 483
101, 110
30, 28
29, 28
61, 97
294, 297
109, 101
112, 105
201, 228
113, 130
56, 68
16, 20
6, 7
17, 16
44, 35
13, 20
31, 32
253, 326
257, 320
39, 43
46, 48
46, 59
5, 8
8, 10
30, 26
54, 61
25, 28
14, 18
11, 14
18, 18
8, 16
6, 9
12, 19
30, 39
19, 19
15, 12
12, 14
35, 36
39, 48
20, 21
50, 64
688, 780
1586, 1802
681, 674
72, 56
23, 13
29, 27
142, 166
242, 267
99, 96
13, 9
9, 9
15, 9
5, 5
8, 5
4, 8
6, 7
5, 8
5, 2
10, 9
5, 5
7, 9
4, 9
2, 13
8, 6
3, 9
7, 10
4, 5
5, 2
7, 7
2, 5
9, 2
4, 6
3, 4
6, 3
8, 5
2, 9
1, 3
2, 2
4, 9
3, 4
5, 2
4, 0
0, 7
2, 3
3, 1
4, 1
0, 1
1, 6
3, 4
5, 0
1, 6
2, 2
2, 3
1, 3
1, 1
3, 2
3, 1
4, 0
3, 4
8, 6
3, 3
3, 1
4, 1
3, 1
3, 2
4, 2
1, 3
0, 1
0, 4
3, 3
0, 2
1, 1
0, 2
2, 0
0, 2
1, 1
2, 3
1, 1
0, 0
0, 1
0, 0
0, 1
0, 0
0, 0
0, 2
2, 0
1, 2
0, 0
0, 1
0, 1
1, 0
1, 1
1, 1
2, 0
0, 0
0, 0
0, 0
0, 0
0, 0
0, 0
0, 0
0, 0
0, 1
0, 0
1, 1
0, 1
1, 1
0, 0
0, 1
1, 0
1, 0
1, 0
0, 0
0, 0
0, 2
0, 0
0, 0
0, 0
0, 1
0, 0
0, 0
1, 0
0, 0
0, 0
1, 0
0, 1
0, 0
0, 0
0, 0
1, 0
0, 0
0, 0
0, 1
0, 0
0, 0
0, 0
0, 0
0, 0
0, 0
0, 0
0, 0
0, 0
0, 0
0, 0
0, 0
0, 0
0, 0
0, 0
0, 0
0, 0
0, 0
0, 0
0, 0
0, 0
0, 0
0, 0
0, 0
0, 0
0, 0
0, 0
0, 0
0, 0
0, 1
0, 0
0, 0
0, 0
0, 0
0, 0
0, 0
0, 0
0, 0
0, 0
0, 0
0, 0
0, 0
0, 0
0, 0
0, 0
0, 0
0, 0
0, 0
0, 0
0, 0
0, 0
0, 0
0, 0
0, 0
0, 0
0, 0
0, 0
0, 0
0, 0
0, 0
0, 0
0, 0
0, 0
0, 0
0, 0
0, 0
0, 0
0, 0
0, 0
0, 0
0, 0
0, 0
0, 0
0, 0
0, 0
0, 0
0, 0
0, 0
0, 0
0, 0
0, 0
0, 0
0, 0
0, 0
0, 0
0, 0
0, 0
0, 0
0, 0
0, 0
0, 0
0, 0
0, 0
0, 0
0, 0
0, 0
0, 0
0, 0
0, 0
0, 0
0, 0
0, 0
0, 0
0, 0
#ENDOFDATA     end of spectrum data