Folder: data-repository/host_upload/02-11-2024/rqc/uplink1 (part 19)

File: ps__0567_0717304816_000rfs_shot_310.msa
#FORMAT      : EMSA/MAS spectral data file
#VERSION     : TC202v2.0 PIXL
#TITLE       : Novarupta (sol567) subset1
#DATE        : 02-11-2024      Date in the format DD-MMM-YYYY, for example 07-JUL-2010
#TIME        :             The time of day at which the spectrum was recorded, in 24-hour format
#OWNER       : PIXL Flight Model       (PIXL will use this to indicate which instrument took the data.)
#NPOINTS     : 4096     Number of data points in the spectrum (This can be zero for configuration only files)
#NCOLUMNS    : 2     Number of data columns in the spectrum (This can be zero for configuration only files)
#XUNITS      : eV
#YUNITS      : COUNTS
#DATATYPE    : YY
#XPERCHAN    : 7.862, 7.881   eV per channel (separate by commas if more than one detector)
#OFFSET      : 18.5, -22.4         eV of first channel  (separate by commas if more than one detector
#SIGNALTYPE  : XRF
#YP_TEMP     : 1.402
#LIVETIME    : 8.84228, 8.6308   seconds (separate by commas if more than one detector)
#REALTIME    : 10, 10.0   seconds (separate by commas if more than one detector)
#SPECTRUM    : start of spectrum data
0, 0
0, 0
0, 0
0, 0
0, 0
0, 0
0, 0
0, 0
3, 3
5, 1
5, 4
14, 5
12, 11
19, 16
43, 52
98, 128
482, 532
111, 121
32, 36
24, 23
45, 49
279, 331
89, 99
72, 85
195, 222
108, 110
62, 58
26, 32
11, 13
5, 9
24, 26
16, 19
16, 18
176, 258
288, 339
48, 55
31, 52
52, 45
7, 10
8, 8
24, 11
59, 53
24, 36
11, 22
11, 22
17, 17
6, 16
15, 6
16, 16
29, 24
27, 27
9, 10
11, 22
40, 37
46, 48
15, 22
25, 43
349, 477
1553, 1827
1078, 1044
147, 92
21, 14
16, 20
74, 100
269, 277
165, 176
20, 18
7, 8
10, 10
6, 9
6, 14
4, 10
5, 3
3, 8
3, 7
11, 9
4, 10
8, 6
8, 10
14, 10
5, 4
7, 10
3, 4
6, 4
10, 8
4, 3
4, 5
6, 7
3, 6
5, 5
4, 2
2, 4
3, 5
6, 4
3, 1
2, 3
4, 4
3, 2
5, 2
0, 3
3, 7
8, 5
2, 6
6, 6
4, 2
8, 3
2, 4
3, 1
2, 1
0, 3
1, 1
3, 3
0, 3
0, 2
6, 0
1, 3
3, 2
3, 2
4, 1
1, 2
1, 1
2, 2
1, 1
1, 0
1, 1
1, 0
0, 1
1, 1
0, 1
0, 1
0, 1
1, 1
0, 2
1, 1
1, 0
2, 0
0, 1
0, 0
1, 1
1, 1
0, 3
1, 0
1, 0
0, 0
0, 0
1, 0
0, 2
0, 0
0, 0
0, 0
1, 0
1, 0
0, 0
0, 0
0, 1
1, 0
0, 0
0, 0
0, 0
0, 0
1, 0
0, 1
0, 1
2, 0
0, 1
0, 0
0, 0
1, 0
0, 1
1, 1
0, 0
0, 0
0, 0
0, 0
0, 0
0, 0
0, 0
0, 0
0, 0
0, 0
0, 1
0, 0
0, 0
0, 0
0, 0
0, 0
0, 0
0, 0
0, 0
0, 0
0, 0
0, 0
0, 0
0, 0
0, 0
0, 0
0, 0
0, 0
0, 0
0, 0
0, 0
0, 0
0, 0
0, 0
0, 0
0, 0
0, 0
0, 0
0, 0
0, 0
0, 0
0, 0
0, 0
0, 0
0, 0
0, 0
0, 0
0, 0
0, 0
0, 0
0, 0
0, 0
0, 0
0, 0
0, 0
0, 0
0, 0
0, 0
0, 0
0, 0
0, 0
0, 0
0, 0
0, 0
0, 0
0, 0
0, 0
0, 0
0, 0
0, 0
0, 0
0, 0
0, 0
0, 0
0, 0
0, 0
0, 0
0, 0
0, 0
0, 0
0, 0
0, 0
0, 0
0, 0
0, 0
0, 0
0, 0
0, 0
0, 0
0, 0
0, 0
0, 0
0, 0
0, 0
0, 0
0, 0
0, 0
0, 0
0, 0
0, 0
0, 0
0, 0
0, 0
0, 0
0, 0
0, 0
0, 0
0, 0
0, 0
0, 0
0, 0
0, 0
0, 0
0, 0
0, 0
0, 0
0, 0
0, 0
0, 0
0, 0
0, 0
0, 0
0, 0
0, 0
#ENDOFDATA     end of spectrum data

File: ps__0567_0717304816_000rfs_shot_311.msa
#FORMAT      : EMSA/MAS spectral data file
#VERSION     : TC202v2.0 PIXL
#TITLE       : Novarupta (sol567) subset1
#DATE        : 02-11-2024      Date in the format DD-MMM-YYYY, for example 07-JUL-2010
#TIME        :             The time of day at which the spectrum was recorded, in 24-hour format
#OWNER       : PIXL Flight Model       (PIXL will use this to indicate which instrument took the data.)
#NPOINTS     : 4096     Number of data points in the spectrum (This can be zero for configuration only files)
#NCOLUMNS    : 2     Number of data columns in the spectrum (This can be zero for configuration only files)
#XUNITS      : eV
#YUNITS      : COUNTS
#DATATYPE    : YY
#XPERCHAN    : 7.862, 7.881   eV per channel (separate by commas if more than one detector)
#OFFSET      : 18.5, -22.4         eV of first channel  (separate by commas if more than one detector
#SIGNALTYPE  : XRF
#YP_TEMP     : 1.209
#LIVETIME    : 8.83986, 8.81894   seconds (separate by commas if more than one detector)
#REALTIME    : 10, 10.0   seconds (separate by commas if more than one detector)
#SPECTRUM    : start of spectrum data
0, 0
0, 0
0, 0
0, 0
0, 0
0, 0
0, 0
0, 0
0, 3
2, 6
0, 6
4, 13
16, 20
19, 19
59, 44
92, 130
449, 579
106, 103
26, 35
28, 26
44, 53
273, 348
110, 134
56, 66
182, 217
98, 109
73, 73
25, 31
6, 6
8, 9
15, 30
18, 21
15, 20
215, 238
297, 350
48, 46
36, 53
48, 47
12, 8
11, 10
19, 22
53, 60
38, 38
7, 14
7, 7
13, 27
22, 14
11, 9
15, 13
27, 46
26, 14
22, 20
25, 16
30, 36
47, 38
28, 27
21, 32
368, 506
1571, 1827
1106, 1079
125, 113
12, 23
31, 27
87, 94
256, 270
163, 155
26, 17
11, 12
15, 12
16, 6
4, 12
7, 10
7, 10
7, 7
5, 8
10, 7
8, 8
5, 8
10, 10
10, 7
7, 10
4, 6
5, 6
4, 7
5, 7
5, 3
4, 6
7, 7
5, 5
2, 3
7, 3
2, 3
4, 5
5, 5
2, 3
6, 4
3, 3
3, 2
1, 1
1, 7
3, 2
2, 2
2, 4
3, 2
5, 3
5, 5
0, 2
2, 2
2, 3
3, 4
2, 3
1, 2
3, 3
1, 1
2, 0
1, 3
3, 4
1, 2
3, 4
1, 2
2, 1
0, 4
4, 2
2, 2
1, 2
1, 0
3, 1
0, 0
0, 0
2, 2
0, 0
0, 2
0, 1
0, 0
0, 0
0, 1
4, 1
2, 0
2, 0
1, 0
1, 1
1, 1
1, 1
0, 0
0, 1
0, 1
1, 0
1, 1
1, 0
1, 0
1, 0
0, 2
0, 1
0, 1
0, 1
1, 0
0, 0
0, 0
1, 1
0, 0
0, 0
0, 1
0, 0
0, 1
1, 0
0, 0
0, 1
0, 0
2, 0
0, 0
0, 1
0, 0
0, 0
3, 0
0, 0
1, 1
0, 0
1, 0
0, 0
0, 0
0, 0
0, 0
0, 0
0, 0
0, 0
0, 0
0, 0
0, 0
0, 0
1, 0
0, 0
0, 0
0, 0
0, 0
0, 0
0, 0
0, 0
0, 0
0, 0
0, 0
0, 0
0, 0
0, 0
0, 0
0, 0
0, 0
0, 0
0, 0
0, 0
0, 0
0, 0
0, 0
0, 0
0, 0
0, 0
0, 0
0, 0
0, 0
0, 0
0, 0
0, 0
0, 0
0, 0
0, 0
0, 0
0, 0
0, 0
0, 0
0, 0
0, 0
0, 0
0, 0
0, 0
0, 0
0, 0
0, 0
0, 0
0, 0
0, 0
0, 0
0, 0
0, 0
0, 0
0, 0
0, 0
0, 0
0, 0
0, 0
0, 0
0, 0
0, 0
0, 0
0, 0
0, 0
0, 0
0, 0
0, 0
0, 0
0, 0
0, 0
0, 0
0, 0
0, 0
0, 0
0, 0
0, 0
0, 0
0, 0
0, 0
0, 0
0, 0
0, 0
0, 0
0, 0
0, 0
0, 0
0, 0
0, 0
0, 0
0, 0
0, 0
0, 0
0, 0
0, 0
0, 0
0, 0
0, 0
0, 0
0, 0
0, 0
0, 0
0, 0
0, 0
0, 0
#ENDOFDATA     end of spectrum data

File: ps__0567_0717304816_000rfs_shot_312.msa
#FORMAT      : EMSA/MAS spectral data file
#VERSION     : TC202v2.0 PIXL
#TITLE       : Novarupta (sol567) subset1
#DATE        : 02-11-2024      Date in the format DD-MMM-YYYY, for example 07-JUL-2010
#TIME        :             The time of day at which the spectrum was recorded, in 24-hour format
#OWNER       : PIXL Flight Model       (PIXL will use this to indicate which instrument took the data.)
#NPOINTS     : 4096     Number of data points in the spectrum (This can be zero for configuration only files)
#NCOLUMNS    : 2     Number of data columns in the spectrum (This can be zero for configuration only files)
#XUNITS      : eV
#YUNITS      : COUNTS
#DATATYPE    : YY
#XPERCHAN    : 7.862, 7.881   eV per channel (separate by commas if more than one detector)
#OFFSET      : 18.5, -22.4         eV of first channel  (separate by commas if more than one detector
#SIGNALTYPE  : XRF
#YP_TEMP     : 1.53
#LIVETIME    : 8.84281, 8.81502   seconds (separate by commas if more than one detector)
#REALTIME    : 10, 10.0   seconds (separate by commas if more than one detector)
#SPECTRUM    : start of spectrum data
0, 0
0, 0
0, 0
0, 0
0, 0
0, 0
0, 0
0, 0
2, 2
6, 2
4, 5
12, 10
4, 14
11, 28
29, 56
110, 135
436, 536
120, 131
29, 35
20, 28
42, 71
279, 326
120, 105
65, 79
186, 225
111, 109
66, 85
28, 25
13, 9
10, 8
24, 28
14, 18
19, 33
186, 273
347, 337
54, 60
39, 37
68, 46
16, 8
11, 10
20, 23
57, 67
31, 35
9, 12
17, 17
14, 16
13, 11
4, 12
16, 14
22, 31
26, 16
20, 13
19, 18
33, 45
43, 55
25, 24
22, 36
343, 476
1530, 1897
1050, 1054
109, 111
23, 16
17, 18
66, 92
253, 301
172, 160
19, 15
11, 15
13, 16
8, 7
5, 9
7, 8
3, 6
3, 9
8, 10
8, 14
5, 7
7, 7
10, 4
13, 14
6, 11
5, 3
5, 7
7, 5
12, 3
10, 4
3, 3
7, 9
4, 5
2, 3
2, 3
3, 5
2, 6
4, 4
7, 3
0, 7
3, 2
0, 8
2, 6
4, 2
4, 3
3, 1
5, 3
1, 0
1, 2
1, 3
2, 5
3, 4
3, 0
2, 3
0, 2
3, 1
1, 2
1, 2
1, 0
6, 3
2, 1
2, 4
3, 1
2, 1
1, 3
1, 2
2, 1
1, 1
0, 0
1, 0
1, 1
3, 2
1, 4
0, 1
0, 1
0, 1
2, 1
2, 0
1, 2
1, 0
0, 1
1, 1
0, 3
1, 0
1, 0
0, 0
1, 1
0, 2
1, 0
1, 0
0, 0
1, 0
2, 0
0, 1
0, 0
1, 0
0, 1
0, 0
1, 0
0, 0
1, 0
0, 0
1, 0
0, 0
0, 0
0, 1
0, 0
0, 0
0, 1
1, 1
0, 0
0, 0
1, 1
0, 1
0, 0
0, 0
0, 0
0, 0
0, 0
0, 0
0, 0
0, 1
0, 0
0, 0
1, 0
0, 1
0, 1
0, 0
1, 1
0, 0
0, 0
0, 0
0, 0
0, 0
0, 1
0, 0
0, 0
0, 0
0, 0
0, 0
0, 0
0, 0
0, 0
0, 0
0, 0
0, 0
0, 0
0, 0
0, 0
0, 0
0, 0
0, 0
0, 0
0, 0
0, 0
0, 0
1, 0
0, 0
0, 0
0, 0
0, 0
0, 0
0, 1
0, 0
0, 0
0, 0
0, 0
0, 0
0, 0
0, 0
0, 0
0, 0
0, 0
0, 0
0, 0
0, 0
0, 0
0, 0
0, 0
0, 0
0, 0
0, 0
0, 0
0, 0
0, 0
0, 0
0, 0
0, 0
0, 0
0, 0
0, 0
0, 0
0, 0
0, 0
0, 0
0, 0
0, 0
0, 0
0, 0
0, 0
0, 0
0, 0
0, 0
0, 0
0, 0
0, 0
0, 0
0, 0
0, 0
0, 0
0, 0
0, 0
0, 0
0, 0
0, 0
0, 0
0, 0
0, 0
0, 0
0, 0
0, 0
0, 0
0, 0
0, 0
0, 0
0, 0
0, 0
0, 0
0, 0
0, 0
0, 0
0, 0
0, 0
0, 0
0, 0
0, 0
0, 0
0, 0
#ENDOFDATA     end of spectrum data

File: ps__0567_0717304816_000rfs_shot_315.msa
#FORMAT      : EMSA/MAS spectral data file
#VERSION     : TC202v2.0 PIXL
#TITLE       : Novarupta (sol567) subset1
#DATE        : 02-11-2024      Date in the format DD-MMM-YYYY, for example 07-JUL-2010
#TIME        :             The time of day at which the spectrum was recorded, in 24-hour format
#OWNER       : PIXL Flight Model       (PIXL will use this to indicate which instrument took the data.)
#NPOINTS     : 4096     Number of data points in the spectrum (This can be zero for configuration only files)
#NCOLUMNS    : 2     Number of data columns in the spectrum (This can be zero for configuration only files)
#XUNITS      : eV
#YUNITS      : COUNTS
#DATATYPE    : YY
#XPERCHAN    : 7.862, 7.881   eV per channel (separate by commas if more than one detector)
#OFFSET      : 18.5, -22.4         eV of first channel  (separate by commas if more than one detector
#SIGNALTYPE  : XRF
#YP_TEMP     : 1.369
#LIVETIME    : 8.8367, 8.81334   seconds (separate by commas if more than one detector)
#REALTIME    : 10, 10.0   seconds (separate by commas if more than one detector)
#SPECTRUM    : start of spectrum data
0, 0
0, 0
0, 0
0, 0
0, 0
0, 0
0, 0
0, 0
3, 4
3, 1
2, 2
10, 14
17, 12
18, 26
39, 51
116, 118
530, 531
121, 132
41, 26
25, 21
47, 53
284, 295
130, 101
66, 79
208, 191
114, 121
73, 78
29, 38
7, 11
12, 9
26, 26
19, 18
15, 23
193, 240
298, 325
45, 53
35, 47
49, 50
15, 13
9, 5
23, 22
51, 64
42, 43
13, 14
19, 14
20, 15
10, 16
9, 12
9, 17
34, 49
37, 31
11, 13
12, 12
38, 32
35, 45
20, 32
34, 24
359, 460
1578, 1808
1125, 1063
106, 105
15, 14
26, 23
88, 100
256, 300
163, 143
25, 19
11, 10
16, 11
14, 13
2, 4
3, 7
8, 5
11, 9
9, 4
8, 10
10, 4
7, 6
8, 14
5, 15
7, 11
7, 4
5, 12
6, 7
5, 5
3, 9
7, 9
4, 5
3, 4
4, 8
3, 3
5, 1
3, 2
8, 3
3, 1
3, 3
6, 6
4, 5
1, 2
1, 4
2, 3
3, 9
2, 0
1, 4
2, 1
3, 2
4, 5
3, 4
0, 2
1, 2
0, 2
3, 0
2, 1
1, 4
1, 0
0, 1
1, 1
1, 3
3, 0
3, 0
0, 0
0, 2
1, 2
1, 5
0, 1
1, 1
0, 1
0, 0
6, 1
2, 1
0, 2
1, 1
0, 2
0, 0
0, 2
2, 0
2, 0
1, 0
0, 0
1, 1
2, 0
1, 0
0, 0
1, 0
0, 0
2, 0
0, 2
0, 0
0, 1
1, 0
0, 1
1, 0
0, 0
0, 0
0, 0
1, 0
0, 0
0, 1
0, 0
0, 0
0, 0
0, 0
0, 0
1, 0
0, 0
0, 1
0, 0
0, 0
0, 0
0, 0
0, 1
0, 0
1, 0
1, 0
0, 1
0, 0
0, 0
0, 0
0, 1
0, 0
0, 0
1, 0
0, 0
0, 1
1, 1
0, 0
0, 0
0, 0
0, 0
0, 0
0, 0
0, 0
0, 0
0, 0
1, 0
0, 0
0, 0
0, 1
0, 0
0, 0
0, 0
0, 0
0, 0
0, 0
0, 0
1, 0
0, 0
0, 0
0, 0
0, 0
0, 0
0, 0
0, 0
0, 0
0, 0
0, 0
0, 0
0, 0
0, 0
0, 0
0, 0
0, 0
0, 0
0, 0
0, 0
0, 0
0, 0
0, 0
0, 0
0, 0
0, 0
0, 0
0, 0
0, 0
0, 0
0, 0
0, 0
0, 0
0, 0
0, 0
0, 0
0, 0
0, 0
0, 0
0, 0
0, 0
0, 0
0, 0
0, 0
0, 0
0, 0
0, 0
0, 0
0, 0
0, 0
0, 0
0, 0
0, 0
0, 0
0, 0
0, 0
0, 0
0, 0
0, 0
0, 0
0, 0
0, 0
0, 0
0, 0
0, 0
0, 0
0, 0
0, 0
0, 0
0, 0
0, 0
0, 0
0, 0
0, 0
0, 0
0, 0
0, 0
0, 0
0, 0
0, 0
0, 0
0, 0
0, 0
0, 0
0, 0
0, 0
0, 0
0, 0
0, 0
#ENDOFDATA     end of spectrum data

File: ps__0567_0717304816_000rfs_shot_316.msa
#FORMAT      : EMSA/MAS spectral data file
#VERSION     : TC202v2.0 PIXL
#TITLE       : Novarupta (sol567) subset1
#DATE        : 02-11-2024      Date in the format DD-MMM-YYYY, for example 07-JUL-2010
#TIME        :             The time of day at which the spectrum was recorded, in 24-hour format
#OWNER       : PIXL Flight Model       (PIXL will use this to indicate which instrument took the data.)
#NPOINTS     : 4096     Number of data points in the spectrum (This can be zero for configuration only files)
#NCOLUMNS    : 2     Number of data columns in the spectrum (This can be zero for configuration only files)
#XUNITS      : eV
#YUNITS      : COUNTS
#DATATYPE    : YY
#XPERCHAN    : 7.862, 7.881   eV per channel (separate by commas if more than one detector)
#OFFSET      : 18.5, -22.4         eV of first channel  (separate by commas if more than one detector
#SIGNALTYPE  : XRF
#YP_TEMP     : 1.786
#LIVETIME    : 8.84027, 8.83839   seconds (separate by commas if more than one detector)
#REALTIME    : 10, 10.0   seconds (separate by commas if more than one detector)
#SPECTRUM    : start of spectrum data
0, 0
0, 0
0, 0
0, 0
0, 0
0, 0
0, 0
0, 0
7, 4
4, 3
8, 5
11, 14
14, 4
18, 30
39, 41
105, 138
485, 493
119, 121
34, 30
28, 22
62, 44
299, 323
110, 111
77, 83
208, 241
121, 111
72, 69
39, 25
12, 15
13, 4
30, 29
8, 18
17, 13
199, 217
309, 308
50, 49
36, 42
46, 48
8, 6
7, 8
17, 17
60, 63
32, 25
13, 16
11, 12
13, 22
16, 10
7, 15
9, 15
30, 37
24, 20
14, 11
19, 9
37, 27
53, 52
21, 23
26, 32
352, 444
1601, 1796
1076, 1036
126, 92
12, 9
19, 26
74, 90
221, 301
153, 151
25, 24
1, 4
13, 13
5, 6
4, 3
3, 11
6, 9
9, 6
10, 8
10, 12
7, 10
6, 8
12, 11
17, 7
8, 9
4, 5
5, 3
8, 8
7, 7
2, 10
2, 4
8, 5
5, 4
2, 4
4, 6
4, 7
2, 7
4, 3
3, 2
2, 6
3, 1
1, 4
3, 2
2, 4
2, 0
2, 1
5, 0
1, 3
3, 2
1, 3
4, 3
1, 3
3, 3
2, 5
4, 3
1, 3
2, 2
1, 0
2, 1
2, 3
2, 2
2, 0
0, 1
1, 1
0, 0
0, 1
0, 2
1, 2
0, 2
1, 1
0, 3
2, 1
0, 1
1, 1
2, 3
0, 0
3, 0
2, 0
0, 2
0, 2
1, 3
0, 0
1, 2
0, 0
0, 1
1, 0
0, 0
0, 0
1, 1
0, 0
0, 0
0, 0
1, 1
1, 1
0, 0
1, 0
0, 0
0, 1
0, 0
1, 0
0, 1
0, 0
0, 0
0, 0
1, 0
1, 1
0, 0
0, 0
0, 1
0, 0
0, 0
1, 0
0, 0
0, 0
0, 0
0, 1
0, 0
0, 0
0, 1
0, 0
0, 0
0, 0
1, 0
0, 1
0, 0
0, 0
0, 0
0, 1
0, 0
0, 1
0, 0
0, 0
0, 0
0, 0
0, 0
0, 0
0, 0
0, 0
0, 0
0, 0
0, 0
0, 0
1, 0
0, 1
0, 0
0, 0
0, 0
0, 0
0, 0
0, 0
0, 0
1, 0
0, 0
0, 0
0, 0
0, 0
0, 0
0, 0
0, 0
0, 0
0, 0
0, 0
0, 0
0, 0
0, 0
0, 0
0, 0
0, 0
0, 0
0, 0
0, 0
0, 0
0, 0
0, 0
0, 0
0, 0
0, 0
0, 0
0, 0
0, 0
0, 0
0, 0
0, 0
0, 0
0, 0
0, 0
0, 0
0, 0
0, 0
0, 0
0, 0
0, 0
0, 0
0, 0
0, 0
0, 0
0, 0
0, 0
0, 0
0, 0
0, 0
0, 0
0, 0
0, 0
0, 0
0, 0
0, 0
0, 0
0, 0
0, 0
0, 0
0, 0
0, 0
0, 0
0, 0
0, 0
0, 0
0, 0
0, 0
0, 0
0, 0
0, 0
0, 0
0, 0
0, 0
0, 0
0, 0
0, 0
0, 0
0, 0
0, 0
0, 0
0, 0
0, 0
0, 0
0, 0
0, 0
0, 0
#ENDOFDATA     end of spectrum data

File: ps__0567_0717304816_000rfs_shot_317.msa
#FORMAT      : EMSA/MAS spectral data file
#VERSION     : TC202v2.0 PIXL
#TITLE       : Novarupta (sol567) subset1
#DATE        : 02-11-2024      Date in the format DD-MMM-YYYY, for example 07-JUL-2010
#TIME        :             The time of day at which the spectrum was recorded, in 24-hour format
#OWNER       : PIXL Flight Model       (PIXL will use this to indicate which instrument took the data.)
#NPOINTS     : 4096     Number of data points in the spectrum (This can be zero for configuration only files)
#NCOLUMNS    : 2     Number of data columns in the spectrum (This can be zero for configuration only files)
#XUNITS      : eV
#YUNITS      : COUNTS
#DATATYPE    : YY
#XPERCHAN    : 7.862, 7.881   eV per channel (separate by commas if more than one detector)
#OFFSET      : 18.5, -22.4         eV of first channel  (separate by commas if more than one detector
#SIGNALTYPE  : XRF
#YP_TEMP     : 1.241
#LIVETIME    : 8.82505, 8.8151   seconds (separate by commas if more than one detector)
#REALTIME    : 10, 10.0   seconds (separate by commas if more than one detector)
#SPECTRUM    : start of spectrum data
0, 0
0, 0
0, 0
0, 0
0, 0
0, 0
0, 0
0, 0
2, 2
4, 5
1, 4
7, 8
14, 3
23, 15
50, 48
111, 116
526, 495
144, 101
33, 37
18, 11
41, 61
284, 306
112, 104
57, 71
213, 228
112, 116
61, 76
44, 28
6, 6
6, 9
31, 25
24, 17
20, 26
206, 236
301, 341
54, 58
39, 44
53, 59
8, 15
10, 11
24, 22
62, 58
39, 37
12, 13
13, 19
18, 29
13, 20
8, 9
15, 14
34, 33
19, 21
13, 9
16, 20
24, 38
50, 46
22, 22
36, 37
365, 442
1561, 1693
1088, 1006
101, 97
14, 15
15, 19
86, 102
257, 289
142, 135
23, 22
11, 11
8, 20
5, 13
12, 6
3, 6
3, 7
5, 4
6, 4
6, 11
6, 9
7, 7
5, 8
12, 6
9, 9
5, 7
5, 8
4, 5
5, 3
10, 3
7, 2
4, 10
9, 4
3, 3
1, 5
2, 5
5, 4
3, 4
2, 5
3, 4
4, 6
1, 3
6, 0
3, 3
4, 2
1, 3
4, 4
6, 1
2, 1
3, 2
2, 1
4, 2
2, 3
7, 2
0, 3
3, 0
3, 5
0, 5
5, 2
3, 3
2, 3
3, 1
1, 4
3, 2
1, 3
1, 2
1, 0
3, 0
1, 0
2, 1
2, 2
1, 1
2, 0
0, 1
0, 1
0, 1
3, 0
0, 1
0, 1
1, 0
0, 2
1, 0
0, 0
5, 1
1, 1
0, 0
1, 0
0, 0
1, 1
1, 1
1, 1
0, 0
0, 2
1, 1
0, 0
0, 0
1, 0
0, 1
0, 1
1, 1
0, 0
2, 0
0, 0
0, 0
0, 1
0, 0
1, 1
0, 0
0, 0
0, 1
0, 0
0, 0
0, 1
0, 1
0, 0
0, 2
0, 0
0, 0
0, 0
0, 0
0, 1
0, 0
1, 0
0, 0
0, 0
0, 0
0, 0
0, 0
0, 1
1, 0
0, 0
0, 0
0, 0
0, 0
0, 0
0, 0
0, 0
0, 0
0, 0
0, 0
0, 0
0, 0
0, 0
0, 0
0, 1
0, 0
1, 0
0, 0
0, 0
0, 0
0, 0
0, 0
0, 0
0, 0
0, 0
0, 0
0, 0
0, 1
0, 0
0, 0
0, 0
0, 0
0, 0
0, 0
0, 0
0, 0
0, 0
0, 0
0, 0
0, 0
0, 0
0, 0
0, 0
0, 0
0, 0
0, 0
0, 0
0, 0
0, 0
0, 0
0, 0
0, 0
0, 0
0, 0
0, 0
0, 0
0, 0
0, 0
0, 0
0, 0
0, 0
0, 0
0, 0
0, 0
0, 0
0, 0
0, 0
0, 0
0, 0
0, 0
0, 0
0, 0
0, 0
0, 0
0, 0
0, 0
0, 0
0, 0
0, 0
0, 0
0, 0
0, 0
0, 0
0, 0
0, 0
0, 0
0, 0
0, 0
0, 0
0, 0
0, 0
0, 0
0, 0
0, 0
0, 0
0, 0
0, 0
0, 0
0, 0
0, 0
0, 0
0, 0
0, 0
0, 0
0, 0
0, 0
0, 0
0, 0
#ENDOFDATA     end of spectrum data

File: ps__0567_0717304816_000rfs_shot_320.msa
#FORMAT      : EMSA/MAS spectral data file
#VERSION     : TC202v2.0 PIXL
#TITLE       : Novarupta (sol567) subset1
#DATE        : 02-11-2024      Date in the format DD-MMM-YYYY, for example 07-JUL-2010
#TIME        :             The time of day at which the spectrum was recorded, in 24-hour format
#OWNER       : PIXL Flight Model       (PIXL will use this to indicate which instrument took the data.)
#NPOINTS     : 4096     Number of data points in the spectrum (This can be zero for configuration only files)
#NCOLUMNS    : 2     Number of data columns in the spectrum (This can be zero for configuration only files)
#XUNITS      : eV
#YUNITS      : COUNTS
#DATATYPE    : YY
#XPERCHAN    : 7.862, 7.881   eV per channel (separate by commas if more than one detector)
#OFFSET      : 18.5, -22.4         eV of first channel  (separate by commas if more than one detector
#SIGNALTYPE  : XRF
#YP_TEMP     : 1.594
#LIVETIME    : 8.84642, 8.82517   seconds (separate by commas if more than one detector)
#REALTIME    : 10, 10.0   seconds (separate by commas if more than one detector)
#SPECTRUM    : start of spectrum data
0, 0
0, 0
0, 0
0, 0
0, 0
0, 0
0, 0
0, 0
0, 2
4, 7
4, 5
13, 9
17, 6
22, 33
46, 56
101, 114
466, 541
123, 92
22, 35
22, 24
42, 46
249, 255
91, 91
61, 68
201, 211
118, 94
66, 65
28, 35
9, 12
12, 10
33, 28
4, 17
20, 16
206, 228
302, 342
49, 59
28, 42
40, 42
21, 17
7, 8
21, 21
51, 58
32, 40
12, 22
16, 17
17, 11
11, 5
11, 7
14, 18
21, 18
25, 23
7, 13
18, 8
32, 44
48, 44
23, 20
27, 33
336, 405
1541, 1752
981, 998
128, 111
15, 16
19, 16
77, 96
235, 242
164, 136
24, 24
12, 14
14, 9
13, 5
3, 2
10, 6
5, 4
5, 4
10, 6
7, 7
6, 6
11, 4
9, 13
9, 9
6, 7
6, 2
9, 4
6, 4
4, 2
4, 3
2, 15
6, 4
6, 3
4, 4
5, 4
2, 2
5, 7
3, 4
4, 4
3, 7
3, 3
3, 2
0, 6
5, 6
3, 1
3, 3
4, 3
5, 3
3, 3
4, 0
2, 2
1, 2
7, 1
2, 2
3, 3
1, 2
1, 0
3, 2
1, 2
1, 2
4, 2
5, 1
0, 0
2, 1
0, 0
1, 0
1, 1
1, 0
0, 1
1, 0
1, 3
1, 2
0, 1
3, 2
1, 0
1, 1
1, 1
2, 0
0, 2
1, 0
0, 0
0, 0
1, 0
0, 1
1, 1
0, 0
1, 0
0, 0
0, 1
0, 1
0, 1
0, 0
0, 0
1, 0
1, 0
1, 0
0, 1
0, 0
0, 0
1, 0
0, 0
0, 0
0, 0
0, 0
1, 0
0, 0
0, 0
0, 0
0, 0
2, 0
0, 0
0, 0
0, 1
0, 0
0, 1
0, 0
0, 1
1, 0
0, 0
0, 0
0, 1
0, 0
0, 0
1, 0
0, 0
0, 0
0, 1
0, 0
0, 0
1, 0
0, 0
0, 0
0, 0
0, 0
0, 0
0, 0
0, 0
1, 0
0, 0
0, 0
0, 0
0, 0
0, 0
0, 0
0, 0
0, 0
0, 0
0, 0
0, 0
1, 1
0, 0
0, 0
0, 0
0, 0
0, 0
0, 0
0, 0
0, 0
0, 0
1, 0
0, 0
0, 0
0, 0
0, 0
0, 0
0, 0
0, 0
0, 1
0, 0
0, 0
0, 0
0, 0
0, 0
0, 0
0, 0
0, 0
0, 0
0, 0
0, 0
0, 0
0, 0
0, 0
0, 0
0, 0
0, 0
0, 0
0, 0
0, 0
0, 0
0, 0
0, 0
0, 0
0, 0
0, 0
0, 0
0, 0
0, 0
0, 0
0, 0
0, 0
0, 0
0, 0
0, 0
0, 0
0, 0
0, 0
0, 0
0, 0
0, 0
0, 0
0, 0
0, 0
0, 0
0, 0
0, 0
0, 0
0, 0
0, 0
0, 0
0, 0
0, 0
0, 0
0, 0
0, 0
0, 0
0, 0
0, 0
0, 0
0, 0
0, 0
0, 0
0, 0
0, 0
0, 0
0, 0
0, 0
0, 0
0, 0
#ENDOFDATA     end of spectrum data

File: ps__0567_0717304816_000rfs_shot_323.msa
#FORMAT      : EMSA/MAS spectral data file
#VERSION     : TC202v2.0 PIXL
#TITLE       : Novarupta (sol567) subset1
#DATE        : 02-11-2024      Date in the format DD-MMM-YYYY, for example 07-JUL-2010
#TIME        :             The time of day at which the spectrum was recorded, in 24-hour format
#OWNER       : PIXL Flight Model       (PIXL will use this to indicate which instrument took the data.)
#NPOINTS     : 4096     Number of data points in the spectrum (This can be zero for configuration only files)
#NCOLUMNS    : 2     Number of data columns in the spectrum (This can be zero for configuration only files)
#XUNITS      : eV
#YUNITS      : COUNTS
#DATATYPE    : YY
#XPERCHAN    : 7.862, 7.881   eV per channel (separate by commas if more than one detector)
#OFFSET      : 18.5, -22.4         eV of first channel  (separate by commas if more than one detector
#SIGNALTYPE  : XRF
#YP_TEMP     : 1.466
#LIVETIME    : 8.825, 8.83515   seconds (separate by commas if more than one detector)
#REALTIME    : 10, 10.0   seconds (separate by commas if more than one detector)
#SPECTRUM    : start of spectrum data
0, 0
0, 0
0, 0
0, 0
0, 0
0, 0
0, 0
0, 0
6, 4
1, 1
1, 2
21, 6
14, 10
27, 26
49, 44
99, 119
483, 465
106, 92
31, 31
32, 29
59, 52
378, 370
172, 128
65, 72
231, 237
119, 95
87, 76
31, 19
10, 16
5, 12
27, 32
25, 11
15, 26
236, 202
358, 316
55, 52
44, 40
42, 45
12, 18
10, 7
17, 21
62, 63
39, 34
8, 12
15, 15
21, 12
3, 9
8, 13
14, 17
34, 28
22, 15
7, 16
15, 13
25, 31
43, 48
20, 9
27, 33
377, 453
1721, 1686
1190, 932
107, 101
15, 15
15, 16
88, 91
265, 290
169, 128
29, 29
12, 4
13, 17
6, 10
5, 5
6, 2
7, 5
7, 4
10, 8
3, 8
5, 7
8, 5
6, 8
13, 6
7, 4
7, 4
6, 5
6, 5
5, 3
2, 4
10, 4
6, 7
6, 4
8, 4
4, 1
4, 5
5, 5
7, 3
2, 2
4, 2
6, 5
6, 3
6, 2
1, 0
0, 1
3, 3
1, 2
4, 1
2, 2
5, 1
1, 4
2, 3
2, 2
5, 2
2, 1
0, 3
3, 2
3, 1
2, 3
0, 3
3, 1
5, 4
1, 1
2, 3
5, 1
0, 0
2, 3
3, 1
0, 2
1, 0
3, 2
0, 1
1, 0
2, 2
2, 2
0, 0
1, 0
1, 0
1, 1
2, 2
2, 1
0, 3
0, 1
2, 0
2, 0
0, 0
0, 0
0, 0
0, 0
0, 0
0, 1
1, 0
1, 1
1, 0
0, 0
0, 0
0, 0
0, 0
0, 0
0, 0
0, 0
0, 0
1, 1
0, 0
0, 0
0, 0
0, 0
0, 0
1, 0
0, 0
0, 0
1, 0
0, 0
0, 0
0, 0
0, 0
0, 0
1, 0
1, 0
1, 1
0, 0
0, 0
0, 0
1, 1
0, 0
0, 1
1, 0
0, 1
0, 0
0, 0
0, 0
0, 0
0, 0
0, 0
0, 0
0, 0
0, 0
0, 0
0, 0
0, 0
0, 0
0, 0
0, 1
0, 0
0, 0
0, 0
0, 0
0, 0
0, 0
0, 0
0, 0
0, 0
0, 0
0, 0
0, 0
0, 0
0, 0
0, 0
0, 0
0, 0
0, 0
0, 0
0, 0
0, 0
0, 0
0, 0
0, 0
0, 0
0, 0
0, 0
0, 0
0, 0
0, 0
0, 0
0, 0
0, 0
0, 0
0, 0
0, 0
0, 0
0, 0
0, 0
0, 0
0, 0
0, 0
0, 0
0, 0
0, 0
0, 0
0, 0
0, 0
0, 0
0, 0
0, 0
0, 0
0, 0
0, 0
0, 0
0, 0
0, 0
0, 0
0, 0
0, 0
0, 0
0, 0
0, 0
0, 0
0, 0
0, 0
0, 0
0, 0
0, 0
0, 0
0, 0
0, 0
0, 0
0, 0
0, 0
0, 0
0, 0
0, 0
0, 0
0, 0
0, 0
0, 0
0, 0
0, 0
0, 0
0, 0
0, 0
0, 0
0, 0
0, 0
0, 0
0, 0
0, 0
0, 0
0, 0
#ENDOFDATA     end of spectrum data

File: ps__0567_0717304816_000rfs_shot_324.msa
#FORMAT      : EMSA/MAS spectral data file
#VERSION     : TC202v2.0 PIXL
#TITLE       : Novarupta (sol567) subset1
#DATE        : 02-11-2024      Date in the format DD-MMM-YYYY, for example 07-JUL-2010
#TIME        :             The time of day at which the spectrum was recorded, in 24-hour format
#OWNER       : PIXL Flight Model       (PIXL will use this to indicate which instrument took the data.)
#NPOINTS     : 4096     Number of data points in the spectrum (This can be zero for configuration only files)
#NCOLUMNS    : 2     Number of data columns in the spectrum (This can be zero for configuration only files)
#XUNITS      : eV
#YUNITS      : COUNTS
#DATATYPE    : YY
#XPERCHAN    : 7.862, 7.881   eV per channel (separate by commas if more than one detector)
#OFFSET      : 18.5, -22.4         eV of first channel  (separate by commas if more than one detector
#SIGNALTYPE  : XRF
#YP_TEMP     : 1.434
#LIVETIME    : 8.82262, 8.81613   seconds (separate by commas if more than one detector)
#REALTIME    : 10, 10.0   seconds (separate by commas if more than one detector)
#SPECTRUM    : start of spectrum data
0, 0
0, 0
0, 0
0, 0
0, 0
0, 0
0, 0
0, 1
2, 3
3, 4
2, 2
8, 11
14, 18
28, 16
43, 37
105, 119
490, 517
129, 115
31, 30
28, 18
61, 56
302, 302
116, 98
52, 66
200, 187
95, 94
67, 72
31, 33
8, 12
9, 14
24, 31
18, 17
12, 20
200, 220
314, 357
47, 45
38, 33
50, 46
12, 9
11, 14
17, 19
64, 44
32, 30
13, 16
12, 14
17, 18
23, 10
7, 6
16, 10
31, 27
28, 18
14, 17
16, 18
38, 28
47, 32
18, 20
31, 28
372, 452
1646, 1769
1163, 983
126, 98
11, 20
20, 22
72, 96
253, 261
171, 127
28, 15
7, 8
12, 13
13, 13
5, 3
9, 8
4, 8
4, 5
5, 9
12, 9
9, 5
4, 9
11, 9
10, 8
4, 5
3, 5
5, 6
5, 8
6, 3
5, 1
5, 5
7, 4
1, 2
3, 4
4, 6
4, 7
3, 4
2, 2
2, 3
5, 3
3, 4
11, 2
3, 1
1, 1
5, 6
2, 1
3, 2
6, 1
4, 6
0, 6
0, 2
3, 5
3, 2
0, 2
2, 3
4, 1
4, 2
3, 0
2, 1
2, 1
3, 2
3, 2
3, 0
3, 1
0, 1
3, 1
1, 0
1, 0
1, 0
2, 0
1, 2
1, 1
0, 1
1, 0
1, 0
1, 0
0, 0
0, 0
2, 1
1, 0
2, 0
1, 0
1, 3
0, 1
1, 0
2, 0
0, 0
2, 0
1, 2
1, 0
0, 0
0, 1
0, 0
1, 0
0, 0
0, 0
0, 0
2, 0
1, 2
0, 1
0, 0
1, 0
0, 1
0, 0
0, 0
1, 0
0, 0
1, 0
1, 1
0, 0
0, 0
0, 0
0, 0
1, 0
0, 2
1, 0
2, 0
0, 0
1, 1
0, 0
0, 1
0, 1
1, 0
0, 0
0, 0
0, 0
0, 0
0, 0
0, 0
0, 0
1, 0
0, 0
0, 0
0, 1
0, 0
0, 0
1, 0
1, 0
0, 0
0, 0
0, 0
0, 0
0, 0
0, 0
0, 0
0, 0
0, 0
0, 0
0, 0
0, 0
0, 0
1, 0
0, 1
0, 0
0, 0
0, 0
0, 0
0, 0
0, 0
0, 0
0, 0
0, 0
0, 0
0, 0
0, 0
0, 0
0, 0
0, 0
0, 0
0, 0
0, 0
0, 0
0, 0
0, 0
0, 0
0, 0
0, 0
0, 0
0, 0
0, 0
0, 0
0, 0
0, 0
0, 0
0, 0
0, 0
0, 0
0, 0
0, 0
0, 0
0, 0
0, 0
0, 0
1, 0
0, 0
0, 0
0, 0
0, 0
0, 0
0, 0
0, 0
0, 0
0, 0
0, 0
0, 0
0, 0
0, 0
0, 0
0, 0
0, 0
0, 0
0, 0
0, 0
0, 0
0, 0
0, 0
0, 0
0, 0
0, 0
0, 0
0, 0
0, 0
0, 0
0, 0
0, 0
0, 0
0, 0
0, 0
0, 0
0, 0
0, 0
0, 0
0, 0
0, 0
0, 0
0, 0
0, 0
0, 0
#ENDOFDATA     end of spectrum data