Folder: data-repository/host_upload/02-11-2024/rqc/uplink1 (part 26)

File: ps__0567_0717304816_000rfs_shot_430.msa
#FORMAT      : EMSA/MAS spectral data file
#VERSION     : TC202v2.0 PIXL
#TITLE       : Novarupta (sol567) subset1
#DATE        : 02-11-2024      Date in the format DD-MMM-YYYY, for example 07-JUL-2010
#TIME        :             The time of day at which the spectrum was recorded, in 24-hour format
#OWNER       : PIXL Flight Model       (PIXL will use this to indicate which instrument took the data.)
#NPOINTS     : 4096     Number of data points in the spectrum (This can be zero for configuration only files)
#NCOLUMNS    : 2     Number of data columns in the spectrum (This can be zero for configuration only files)
#XUNITS      : eV
#YUNITS      : COUNTS
#DATATYPE    : YY
#XPERCHAN    : 7.862, 7.881   eV per channel (separate by commas if more than one detector)
#OFFSET      : 18.5, -22.4         eV of first channel  (separate by commas if more than one detector
#SIGNALTYPE  : XRF
#YP_TEMP     : 1.754
#LIVETIME    : 8.83249, 8.81901   seconds (separate by commas if more than one detector)
#REALTIME    : 10, 10.0   seconds (separate by commas if more than one detector)
#SPECTRUM    : start of spectrum data
0, 0
0, 0
0, 0
0, 0
0, 0
0, 0
0, 0
0, 0
0, 5
5, 2
6, 5
10, 11
9, 10
18, 18
44, 35
112, 128
512, 543
118, 116
29, 33
19, 26
53, 50
287, 283
130, 108
57, 70
223, 214
125, 95
67, 77
22, 28
17, 7
6, 11
21, 29
24, 12
14, 18
212, 221
315, 313
48, 47
40, 39
51, 53
14, 11
7, 9
22, 20
55, 72
31, 31
11, 12
14, 12
20, 26
8, 8
14, 5
11, 24
29, 32
19, 22
18, 10
14, 14
30, 38
50, 39
26, 19
29, 21
372, 446
1530, 1800
1129, 1009
129, 108
18, 15
18, 18
91, 104
264, 290
155, 129
21, 19
6, 6
9, 12
7, 4
5, 5
8, 6
5, 3
8, 6
2, 9
8, 4
8, 8
4, 8
8, 16
7, 15
9, 7
3, 2
6, 4
3, 4
6, 2
3, 8
4, 7
4, 3
4, 6
9, 2
5, 3
4, 5
4, 3
5, 5
2, 3
4, 4
4, 2
1, 6
3, 5
1, 2
2, 0
5, 3
0, 5
2, 1
2, 3
4, 1
2, 4
2, 2
4, 5
3, 1
3, 0
3, 1
1, 1
4, 3
0, 3
2, 2
6, 1
2, 5
1, 1
0, 0
2, 2
5, 2
3, 1
1, 1
3, 0
1, 0
1, 1
2, 1
3, 1
1, 3
2, 0
2, 0
0, 3
3, 2
0, 3
0, 1
1, 1
1, 1
0, 1
0, 3
1, 0
1, 0
1, 0
0, 0
0, 0
1, 0
1, 0
0, 0
0, 1
0, 1
0, 0
0, 0
1, 0
2, 1
0, 0
0, 0
0, 1
0, 1
0, 0
0, 1
0, 0
2, 0
1, 0
0, 0
1, 1
0, 0
0, 1
0, 0
0, 0
0, 0
0, 0
0, 0
0, 1
0, 0
0, 0
0, 1
1, 0
1, 0
0, 0
0, 1
1, 0
0, 0
0, 0
0, 0
0, 0
0, 0
0, 0
0, 0
0, 0
0, 0
0, 0
0, 0
0, 0
0, 0
0, 0
0, 0
0, 0
0, 0
0, 0
0, 0
0, 0
0, 0
0, 0
1, 0
0, 0
0, 0
0, 0
0, 0
0, 0
0, 0
0, 0
0, 0
0, 0
0, 0
0, 0
0, 0
0, 0
0, 0
0, 0
0, 0
0, 0
0, 0
0, 0
0, 0
0, 0
0, 0
0, 0
0, 0
0, 0
0, 0
0, 0
0, 0
0, 0
0, 0
0, 0
0, 0
0, 0
0, 0
0, 0
0, 0
0, 0
0, 0
0, 0
0, 0
0, 0
0, 0
0, 0
0, 0
0, 0
0, 0
0, 0
0, 0
0, 0
0, 0
0, 0
0, 0
0, 0
0, 0
0, 0
0, 0
0, 0
0, 0
0, 0
0, 0
0, 0
0, 0
0, 0
0, 0
0, 0
0, 0
0, 0
0, 0
0, 0
0, 0
0, 0
0, 0
0, 0
0, 0
0, 0
0, 0
0, 0
0, 0
0, 0
0, 0
0, 0
0, 0
0, 0
0, 0
0, 0
0, 0
0, 0
0, 0
0, 0
0, 0
#ENDOFDATA     end of spectrum data

File: ps__0567_0717304816_000rfs_shot_433.msa
#FORMAT      : EMSA/MAS spectral data file
#VERSION     : TC202v2.0 PIXL
#TITLE       : Novarupta (sol567) subset1
#DATE        : 02-11-2024      Date in the format DD-MMM-YYYY, for example 07-JUL-2010
#TIME        :             The time of day at which the spectrum was recorded, in 24-hour format
#OWNER       : PIXL Flight Model       (PIXL will use this to indicate which instrument took the data.)
#NPOINTS     : 4096     Number of data points in the spectrum (This can be zero for configuration only files)
#NCOLUMNS    : 2     Number of data columns in the spectrum (This can be zero for configuration only files)
#XUNITS      : eV
#YUNITS      : COUNTS
#DATATYPE    : YY
#XPERCHAN    : 7.862, 7.881   eV per channel (separate by commas if more than one detector)
#OFFSET      : 18.5, -22.4         eV of first channel  (separate by commas if more than one detector
#SIGNALTYPE  : XRF
#YP_TEMP     : 1.979
#LIVETIME    : 8.8287, 8.82479   seconds (separate by commas if more than one detector)
#REALTIME    : 10, 10.0   seconds (separate by commas if more than one detector)
#SPECTRUM    : start of spectrum data
0, 0
0, 0
0, 0
0, 0
0, 0
0, 0
0, 0
1, 1
3, 4
4, 5
4, 2
6, 5
12, 17
21, 17
42, 46
103, 101
468, 531
125, 132
31, 35
28, 28
56, 61
270, 287
100, 97
65, 64
190, 207
115, 115
66, 70
33, 32
13, 10
6, 3
37, 37
15, 21
13, 27
202, 198
278, 366
53, 52
45, 41
52, 50
8, 9
8, 8
21, 28
67, 66
25, 33
13, 13
18, 26
18, 12
19, 13
11, 9
12, 20
28, 32
27, 24
10, 18
11, 13
44, 32
43, 55
19, 21
27, 32
336, 423
1576, 1827
1113, 1004
130, 88
12, 11
19, 19
77, 112
265, 263
152, 164
17, 13
14, 6
16, 11
10, 14
5, 10
3, 7
10, 7
10, 6
9, 7
5, 12
2, 6
7, 10
12, 7
8, 9
9, 5
5, 5
6, 3
5, 5
6, 6
4, 13
3, 3
5, 7
6, 8
4, 3
7, 8
1, 3
4, 2
5, 3
4, 5
4, 6
3, 6
4, 2
2, 3
6, 5
1, 3
1, 3
2, 1
2, 1
0, 1
2, 3
3, 2
1, 3
3, 1
1, 0
6, 2
1, 4
2, 5
2, 2
1, 3
2, 4
4, 0
1, 4
3, 0
2, 4
0, 2
0, 1
1, 0
3, 3
2, 2
0, 1
2, 1
1, 0
0, 1
0, 3
0, 1
1, 5
0, 2
1, 1
2, 0
1, 0
2, 1
1, 1
0, 1
0, 1
1, 0
1, 1
0, 0
0, 0
0, 0
1, 1
1, 0
1, 0
1, 0
0, 0
0, 1
1, 0
0, 1
0, 1
1, 0
0, 0
1, 0
0, 0
0, 0
0, 0
0, 0
0, 0
0, 1
0, 1
0, 2
0, 1
0, 0
0, 0
0, 0
1, 0
0, 0
0, 0
0, 0
1, 0
1, 0
1, 1
0, 0
0, 0
0, 0
1, 0
0, 0
0, 0
0, 1
0, 1
1, 0
1, 0
0, 0
0, 0
0, 0
0, 0
0, 1
0, 0
0, 0
0, 0
0, 0
0, 0
0, 0
0, 0
0, 0
0, 0
0, 0
0, 0
0, 0
0, 0
0, 0
0, 0
0, 0
0, 0
0, 0
0, 0
0, 0
0, 0
0, 0
0, 0
0, 0
0, 0
0, 0
0, 0
0, 0
0, 0
0, 0
0, 0
0, 0
0, 0
0, 0
0, 0
0, 0
0, 0
0, 0
0, 0
0, 0
0, 0
0, 0
0, 0
0, 0
0, 0
0, 0
0, 0
0, 0
0, 0
0, 0
0, 0
0, 0
0, 0
0, 0
0, 0
0, 0
0, 0
0, 0
0, 0
0, 0
0, 0
0, 0
0, 0
0, 0
0, 0
0, 0
0, 0
0, 0
0, 0
0, 0
0, 0
0, 0
0, 0
0, 0
0, 0
0, 0
0, 0
0, 0
0, 0
0, 0
0, 0
0, 0
0, 0
0, 0
0, 0
0, 0
0, 0
0, 0
0, 0
0, 0
0, 0
0, 0
0, 0
0, 0
0, 0
0, 0
0, 0
0, 0
0, 0
0, 0
0, 0
0, 0
0, 0
#ENDOFDATA     end of spectrum data

File: ps__0567_0717304816_000rfs_shot_437.msa
#FORMAT      : EMSA/MAS spectral data file
#VERSION     : TC202v2.0 PIXL
#TITLE       : Novarupta (sol567) subset1
#DATE        : 02-11-2024      Date in the format DD-MMM-YYYY, for example 07-JUL-2010
#TIME        :             The time of day at which the spectrum was recorded, in 24-hour format
#OWNER       : PIXL Flight Model       (PIXL will use this to indicate which instrument took the data.)
#NPOINTS     : 4096     Number of data points in the spectrum (This can be zero for configuration only files)
#NCOLUMNS    : 2     Number of data columns in the spectrum (This can be zero for configuration only files)
#XUNITS      : eV
#YUNITS      : COUNTS
#DATATYPE    : YY
#XPERCHAN    : 7.862, 7.881   eV per channel (separate by commas if more than one detector)
#OFFSET      : 18.5, -22.4         eV of first channel  (separate by commas if more than one detector
#SIGNALTYPE  : XRF
#YP_TEMP     : 1.69
#LIVETIME    : 8.83499, 8.82197   seconds (separate by commas if more than one detector)
#REALTIME    : 10, 10.0   seconds (separate by commas if more than one detector)
#SPECTRUM    : start of spectrum data
0, 0
0, 0
0, 0
0, 0
0, 0
0, 0
0, 0
0, 0
3, 3
3, 2
3, 2
11, 7
29, 6
23, 27
47, 40
103, 115
460, 489
135, 121
26, 32
35, 19
59, 59
318, 356
132, 125
70, 82
172, 231
114, 129
79, 63
27, 29
14, 8
7, 5
36, 26
14, 9
14, 18
200, 190
301, 313
36, 44
38, 46
51, 41
16, 16
13, 7
19, 29
64, 53
37, 31
18, 14
14, 23
19, 15
16, 16
7, 15
12, 14
25, 20
22, 27
15, 10
9, 15
33, 39
50, 46
15, 16
22, 31
378, 401
1672, 1752
1039, 997
128, 106
8, 16
23, 26
62, 101
267, 267
177, 164
23, 23
13, 10
10, 16
13, 12
8, 6
3, 3
5, 7
8, 6
3, 5
10, 3
1, 7
9, 9
10, 8
11, 13
3, 9
10, 6
5, 5
7, 6
5, 9
4, 4
6, 7
10, 4
4, 5
3, 4
6, 5
8, 9
0, 2
5, 2
4, 5
4, 5
2, 6
4, 4
5, 2
1, 1
1, 2
6, 5
4, 5
3, 1
1, 1
0, 2
3, 2
0, 4
4, 2
0, 1
3, 1
3, 2
3, 1
2, 2
0, 0
3, 3
4, 5
1, 3
1, 1
3, 3
1, 2
2, 0
4, 0
4, 3
1, 1
2, 3
3, 2
2, 3
1, 1
1, 0
0, 1
1, 0
1, 1
0, 0
1, 0
1, 0
0, 2
1, 1
2, 1
1, 0
0, 0
1, 0
0, 1
0, 3
1, 0
1, 1
1, 0
1, 0
1, 1
0, 0
1, 0
0, 0
0, 0
1, 1
0, 0
0, 0
0, 1
0, 1
0, 0
0, 0
0, 0
1, 0
1, 1
1, 1
0, 0
0, 0
0, 0
0, 0
0, 0
1, 0
3, 1
0, 1
1, 0
0, 0
0, 0
0, 0
0, 0
0, 0
1, 0
1, 0
0, 0
1, 1
0, 0
1, 2
0, 0
0, 0
0, 0
0, 0
0, 0
0, 0
0, 0
0, 0
0, 0
0, 0
0, 0
0, 0
0, 0
0, 0
0, 0
0, 0
0, 0
0, 0
0, 0
0, 0
0, 0
0, 0
0, 0
0, 0
0, 0
0, 0
0, 0
0, 0
0, 0
1, 0
0, 0
0, 0
0, 0
0, 0
0, 0
0, 0
0, 0
0, 0
0, 0
0, 0
0, 0
0, 0
0, 0
0, 0
0, 0
0, 0
0, 0
0, 0
0, 0
0, 0
0, 0
0, 0
0, 0
0, 0
0, 0
0, 0
0, 0
0, 0
0, 0
0, 0
0, 0
0, 0
0, 0
0, 0
0, 0
0, 0
0, 0
0, 0
0, 0
0, 0
0, 0
0, 0
0, 0
0, 0
0, 0
0, 0
0, 0
0, 0
0, 0
0, 0
0, 0
0, 0
0, 0
0, 0
0, 0
0, 0
0, 0
0, 0
0, 0
0, 0
0, 0
0, 0
0, 0
0, 0
0, 0
0, 0
0, 0
0, 0
0, 0
0, 0
0, 0
0, 0
0, 0
0, 0
0, 0
0, 0
0, 0
0, 0
0, 0
0, 0
#ENDOFDATA     end of spectrum data

File: ps__0567_0717304816_000rfs_shot_438.msa
#FORMAT      : EMSA/MAS spectral data file
#VERSION     : TC202v2.0 PIXL
#TITLE       : Novarupta (sol567) subset1
#DATE        : 02-11-2024      Date in the format DD-MMM-YYYY, for example 07-JUL-2010
#TIME        :             The time of day at which the spectrum was recorded, in 24-hour format
#OWNER       : PIXL Flight Model       (PIXL will use this to indicate which instrument took the data.)
#NPOINTS     : 4096     Number of data points in the spectrum (This can be zero for configuration only files)
#NCOLUMNS    : 2     Number of data columns in the spectrum (This can be zero for configuration only files)
#XUNITS      : eV
#YUNITS      : COUNTS
#DATATYPE    : YY
#XPERCHAN    : 7.862, 7.881   eV per channel (separate by commas if more than one detector)
#OFFSET      : 18.5, -22.4         eV of first channel  (separate by commas if more than one detector
#SIGNALTYPE  : XRF
#YP_TEMP     : 1.915
#LIVETIME    : 8.83813, 8.82491   seconds (separate by commas if more than one detector)
#REALTIME    : 10, 10.0   seconds (separate by commas if more than one detector)
#SPECTRUM    : start of spectrum data
0, 0
0, 0
0, 0
0, 0
0, 0
0, 0
0, 0
1, 0
2, 2
3, 2
1, 0
10, 8
11, 10
24, 19
52, 45
96, 140
428, 507
112, 118
33, 30
18, 19
47, 49
257, 290
112, 115
78, 74
211, 224
130, 109
71, 82
41, 29
14, 12
12, 8
22, 18
20, 14
15, 25
193, 211
329, 335
61, 44
32, 40
46, 45
8, 10
7, 10
22, 30
60, 60
38, 38
13, 9
11, 15
19, 18
16, 9
11, 13
11, 21
25, 31
20, 20
9, 6
11, 17
32, 31
47, 60
24, 18
27, 32
342, 439
1530, 1655
989, 1007
116, 110
13, 19
29, 19
94, 88
228, 269
158, 161
20, 27
9, 11
15, 16
10, 8
12, 4
5, 5
4, 5
5, 8
6, 5
3, 5
13, 7
4, 7
11, 9
7, 6
7, 8
7, 6
4, 9
3, 6
6, 5
5, 2
3, 4
9, 9
6, 3
6, 7
1, 2
7, 1
6, 5
3, 2
6, 3
3, 1
3, 1
4, 9
2, 4
4, 2
3, 2
2, 2
3, 2
5, 2
3, 1
1, 2
0, 0
3, 2
1, 5
4, 3
3, 1
2, 2
3, 0
4, 1
0, 3
0, 1
3, 2
2, 1
1, 1
2, 2
1, 3
2, 1
4, 2
6, 2
1, 0
3, 2
1, 3
1, 1
1, 1
1, 0
1, 4
0, 1
0, 1
1, 2
0, 0
2, 0
2, 1
0, 1
0, 1
1, 0
0, 0
1, 0
0, 2
2, 1
0, 0
0, 1
0, 0
0, 0
1, 0
0, 1
0, 0
1, 1
0, 0
1, 1
0, 0
0, 0
0, 0
1, 0
1, 0
0, 0
1, 0
0, 0
0, 0
0, 1
0, 0
0, 0
1, 0
0, 0
0, 0
0, 1
0, 1
0, 0
0, 0
0, 0
1, 1
0, 0
0, 0
0, 0
0, 1
0, 0
0, 0
0, 0
0, 0
1, 0
0, 0
0, 1
0, 0
0, 0
0, 0
0, 0
0, 0
0, 0
0, 0
0, 0
0, 0
0, 0
0, 0
0, 0
0, 0
0, 0
0, 0
0, 0
0, 0
0, 0
0, 0
0, 0
0, 0
0, 0
0, 0
0, 0
0, 0
0, 0
0, 0
0, 0
0, 0
0, 0
0, 0
0, 0
0, 0
0, 0
0, 0
0, 0
0, 0
0, 0
0, 0
0, 0
0, 0
0, 0
0, 0
0, 0
0, 0
0, 0
0, 0
0, 0
0, 0
0, 0
0, 0
0, 0
0, 0
0, 0
0, 0
0, 0
0, 0
0, 0
0, 0
0, 0
0, 0
0, 0
0, 0
0, 0
0, 0
0, 0
0, 0
0, 0
0, 0
0, 0
0, 0
0, 0
0, 0
0, 0
0, 0
0, 0
0, 0
0, 0
0, 0
0, 0
0, 0
0, 0
0, 0
0, 0
0, 0
0, 0
0, 0
0, 0
0, 0
0, 0
0, 0
0, 0
0, 0
0, 0
0, 0
0, 0
0, 0
0, 0
0, 0
0, 0
0, 0
0, 0
0, 0
0, 0
0, 0
0, 0
0, 0
0, 0
#ENDOFDATA     end of spectrum data

File: ps__0567_0717304816_000rfs_shot_441.msa
#FORMAT      : EMSA/MAS spectral data file
#VERSION     : TC202v2.0 PIXL
#TITLE       : Novarupta (sol567) subset1
#DATE        : 02-11-2024      Date in the format DD-MMM-YYYY, for example 07-JUL-2010
#TIME        :             The time of day at which the spectrum was recorded, in 24-hour format
#OWNER       : PIXL Flight Model       (PIXL will use this to indicate which instrument took the data.)
#NPOINTS     : 4096     Number of data points in the spectrum (This can be zero for configuration only files)
#NCOLUMNS    : 2     Number of data columns in the spectrum (This can be zero for configuration only files)
#XUNITS      : eV
#YUNITS      : COUNTS
#DATATYPE    : YY
#XPERCHAN    : 7.862, 7.881   eV per channel (separate by commas if more than one detector)
#OFFSET      : 18.5, -22.4         eV of first channel  (separate by commas if more than one detector
#SIGNALTYPE  : XRF
#YP_TEMP     : 2.011
#LIVETIME    : 8.83888, 8.81129   seconds (separate by commas if more than one detector)
#REALTIME    : 10, 10.0   seconds (separate by commas if more than one detector)
#SPECTRUM    : start of spectrum data
0, 0
0, 0
0, 0
0, 0
0, 0
0, 0
0, 0
1, 0
3, 3
5, 5
1, 3
9, 7
16, 13
20, 22
51, 37
112, 123
455, 489
117, 116
25, 27
25, 29
49, 61
283, 318
138, 110
69, 96
209, 225
110, 113
76, 77
26, 27
7, 9
6, 6
28, 26
12, 23
13, 24
178, 238
300, 340
46, 51
40, 44
48, 57
14, 16
3, 9
26, 23
51, 59
36, 31
15, 16
14, 10
25, 17
18, 18
13, 10
8, 18
23, 25
16, 28
15, 12
13, 26
34, 41
42, 45
22, 17
26, 33
328, 475
1578, 1815
1017, 1105
124, 102
19, 16
19, 18
88, 100
248, 281
174, 166
22, 13
15, 9
11, 16
8, 10
5, 10
9, 4
3, 8
10, 6
6, 7
9, 9
11, 3
6, 14
10, 5
9, 16
9, 7
5, 9
4, 9
8, 7
5, 8
4, 2
4, 5
4, 9
3, 6
2, 8
2, 6
2, 6
2, 6
4, 4
4, 5
2, 7
2, 1
2, 3
3, 3
2, 2
2, 3
6, 0
4, 5
7, 3
6, 3
1, 5
1, 2
0, 1
1, 5
1, 3
1, 0
2, 2
0, 5
2, 3
2, 4
0, 2
2, 2
2, 2
2, 0
1, 4
2, 0
1, 4
2, 5
1, 3
0, 1
1, 1
2, 0
0, 3
0, 1
1, 0
1, 1
0, 1
1, 0
2, 0
0, 0
2, 0
1, 0
0, 0
1, 3
0, 1
0, 2
0, 0
0, 1
0, 1
1, 0
0, 0
0, 0
0, 1
0, 0
0, 1
0, 2
0, 1
0, 0
1, 0
2, 1
0, 0
1, 0
0, 1
2, 0
0, 0
0, 0
0, 0
0, 0
0, 0
0, 0
0, 0
1, 1
0, 1
0, 0
0, 0
0, 1
0, 1
0, 0
1, 0
0, 0
0, 0
0, 1
0, 0
0, 0
0, 0
1, 0
0, 0
0, 0
0, 1
0, 0
0, 0
0, 1
0, 0
0, 0
0, 0
0, 0
0, 0
0, 0
0, 0
0, 0
0, 0
0, 1
0, 0
0, 0
0, 0
0, 0
0, 0
0, 0
0, 0
0, 0
0, 0
0, 0
0, 0
0, 0
0, 0
0, 0
0, 0
0, 0
0, 0
0, 0
0, 0
0, 0
0, 0
0, 0
0, 0
0, 0
0, 0
0, 0
0, 0
0, 0
0, 0
0, 0
0, 0
0, 0
0, 0
0, 0
0, 0
0, 0
0, 0
0, 0
0, 0
0, 0
0, 0
0, 0
0, 0
0, 0
0, 0
0, 0
0, 0
0, 0
0, 0
0, 0
0, 0
0, 0
0, 0
0, 0
0, 0
0, 0
0, 0
0, 0
0, 0
0, 0
0, 0
0, 0
0, 0
0, 0
0, 0
0, 0
0, 0
0, 0
0, 0
0, 0
0, 0
0, 0
0, 0
0, 0
0, 0
0, 0
0, 0
0, 0
0, 0
0, 0
0, 0
0, 0
0, 0
0, 0
0, 0
0, 0
0, 0
0, 0
0, 0
0, 0
0, 0
0, 0
0, 0
0, 0
0, 0
0, 0
0, 0
#ENDOFDATA     end of spectrum data

File: ps__0567_0717304816_000rfs_shot_445.msa
#FORMAT      : EMSA/MAS spectral data file
#VERSION     : TC202v2.0 PIXL
#TITLE       : Novarupta (sol567) subset1
#DATE        : 02-11-2024      Date in the format DD-MMM-YYYY, for example 07-JUL-2010
#TIME        :             The time of day at which the spectrum was recorded, in 24-hour format
#OWNER       : PIXL Flight Model       (PIXL will use this to indicate which instrument took the data.)
#NPOINTS     : 4096     Number of data points in the spectrum (This can be zero for configuration only files)
#NCOLUMNS    : 2     Number of data columns in the spectrum (This can be zero for configuration only files)
#XUNITS      : eV
#YUNITS      : COUNTS
#DATATYPE    : YY
#XPERCHAN    : 7.862, 7.881   eV per channel (separate by commas if more than one detector)
#OFFSET      : 18.5, -22.4         eV of first channel  (separate by commas if more than one detector
#SIGNALTYPE  : XRF
#YP_TEMP     : 1.69
#LIVETIME    : 8.83848, 8.81256   seconds (separate by commas if more than one detector)
#REALTIME    : 10, 10.0   seconds (separate by commas if more than one detector)
#SPECTRUM    : start of spectrum data
0, 0
0, 0
0, 0
0, 0
0, 0
0, 0
0, 0
0, 1
2, 3
6, 5
4, 2
13, 10
20, 13
23, 28
47, 50
94, 104
471, 499
125, 126
24, 32
22, 34
43, 69
317, 339
107, 128
73, 58
212, 215
92, 110
62, 70
25, 23
19, 16
10, 10
18, 26
23, 17
11, 21
179, 230
328, 355
37, 51
42, 33
53, 49
12, 11
9, 8
19, 23
57, 62
35, 27
18, 13
14, 21
13, 19
11, 13
18, 15
13, 12
28, 43
33, 26
13, 11
16, 19
40, 37
44, 45
17, 25
18, 31
327, 450
1548, 1819
1081, 1109
123, 104
15, 22
18, 21
80, 94
260, 268
159, 145
22, 23
10, 10
14, 9
3, 6
5, 4
6, 1
2, 8
6, 9
9, 6
6, 3
5, 6
3, 6
12, 13
10, 15
10, 8
3, 5
9, 11
7, 8
8, 7
5, 3
10, 5
2, 5
4, 7
4, 7
1, 5
2, 0
3, 7
3, 5
2, 6
1, 1
2, 4
5, 2
1, 6
1, 3
2, 1
1, 6
5, 1
3, 5
1, 1
2, 3
2, 1
3, 1
1, 2
3, 4
2, 3
0, 1
1, 2
0, 4
3, 3
5, 2
1, 0
3, 4
3, 0
0, 1
1, 1
3, 2
1, 2
1, 2
2, 1
6, 0
1, 2
0, 1
0, 1
3, 0
0, 2
0, 1
1, 1
1, 1
0, 0
0, 0
0, 0
0, 3
1, 1
1, 0
2, 0
2, 0
1, 0
0, 1
1, 0
2, 0
0, 2
1, 0
1, 0
1, 0
0, 0
0, 1
0, 0
1, 0
0, 0
2, 0
0, 0
1, 0
0, 1
0, 0
0, 0
0, 1
1, 0
0, 0
0, 0
1, 1
0, 0
0, 0
0, 0
0, 0
0, 0
1, 0
0, 0
1, 0
0, 0
0, 0
0, 1
0, 0
0, 0
0, 0
2, 0
0, 0
0, 0
0, 0
0, 0
0, 0
0, 0
0, 0
0, 0
0, 0
0, 0
0, 0
0, 0
0, 1
0, 0
0, 0
0, 0
0, 0
0, 0
0, 0
0, 0
0, 0
0, 0
0, 1
0, 0
0, 0
0, 0
0, 0
1, 0
0, 0
0, 1
0, 0
0, 0
0, 0
0, 0
0, 0
0, 0
0, 0
0, 0
0, 0
0, 0
0, 0
0, 0
0, 0
0, 0
0, 0
0, 0
0, 0
0, 0
1, 0
0, 0
0, 0
0, 0
0, 0
0, 0
0, 0
0, 0
0, 0
0, 0
0, 0
0, 0
0, 0
0, 0
0, 0
0, 0
0, 0
0, 0
0, 0
0, 0
0, 0
0, 0
0, 0
0, 0
0, 0
0, 0
0, 0
0, 0
0, 0
0, 0
0, 0
0, 0
0, 0
0, 0
0, 0
0, 0
0, 0
0, 0
0, 0
0, 0
0, 0
0, 0
0, 0
0, 0
0, 0
0, 0
0, 0
0, 0
0, 0
0, 0
0, 0
0, 0
0, 0
0, 0
0, 0
0, 0
0, 0
0, 0
0, 0
0, 0
0, 0
0, 0
0, 0
0, 0
0, 0
#ENDOFDATA     end of spectrum data

File: ps__0567_0717304816_000rfs_shot_447.msa
#FORMAT      : EMSA/MAS spectral data file
#VERSION     : TC202v2.0 PIXL
#TITLE       : Novarupta (sol567) subset1
#DATE        : 02-11-2024      Date in the format DD-MMM-YYYY, for example 07-JUL-2010
#TIME        :             The time of day at which the spectrum was recorded, in 24-hour format
#OWNER       : PIXL Flight Model       (PIXL will use this to indicate which instrument took the data.)
#NPOINTS     : 4096     Number of data points in the spectrum (This can be zero for configuration only files)
#NCOLUMNS    : 2     Number of data columns in the spectrum (This can be zero for configuration only files)
#XUNITS      : eV
#YUNITS      : COUNTS
#DATATYPE    : YY
#XPERCHAN    : 7.862, 7.881   eV per channel (separate by commas if more than one detector)
#OFFSET      : 18.5, -22.4         eV of first channel  (separate by commas if more than one detector
#SIGNALTYPE  : XRF
#YP_TEMP     : 1.883
#LIVETIME    : 8.8291, 8.64642   seconds (separate by commas if more than one detector)
#REALTIME    : 10, 10.0   seconds (separate by commas if more than one detector)
#SPECTRUM    : start of spectrum data
0, 0
0, 0
0, 0
0, 0
0, 0
0, 0
0, 0
0, 1
2, 1
1, 4
2, 4
12, 2
10, 21
30, 30
30, 50
102, 111
453, 569
113, 108
21, 29
21, 17
46, 52
298, 341
116, 106
78, 62
205, 228
109, 108
73, 82
30, 30
6, 13
7, 11
28, 24
10, 30
13, 20
199, 209
323, 346
55, 46
36, 30
51, 58
5, 17
11, 9
19, 24
60, 57
43, 28
24, 18
13, 11
10, 25
8, 10
6, 9
15, 17
39, 34
20, 14
18, 12
14, 8
44, 40
48, 53
24, 22
33, 49
328, 453
1518, 1729
1067, 980
141, 99
20, 17
19, 18
55, 94
260, 267
172, 146
13, 19
9, 7
10, 14
10, 6
3, 8
5, 9
8, 6
5, 7
2, 6
8, 9
5, 10
6, 4
6, 10
9, 8
9, 9
2, 6
3, 5
5, 6
9, 5
4, 7
8, 7
7, 9
10, 4
2, 2
6, 4
4, 3
2, 4
2, 5
3, 4
4, 1
1, 5
5, 1
4, 9
2, 3
6, 0
0, 3
7, 1
4, 2
2, 1
3, 3
1, 2
3, 1
3, 3
3, 1
3, 2
3, 0
3, 6
2, 2
2, 2
0, 5
0, 5
3, 2
3, 4
3, 1
0, 1
0, 0
2, 2
1, 2
1, 2
0, 0
0, 3
0, 1
2, 2
2, 3
0, 0
1, 3
1, 2
1, 0
3, 0
1, 0
1, 0
1, 2
0, 1
0, 0
1, 2
0, 0
0, 0
0, 1
1, 0
0, 0
0, 0
1, 1
0, 1
1, 0
0, 0
2, 0
0, 1
0, 2
0, 0
0, 1
0, 0
1, 0
0, 0
0, 0
0, 0
0, 0
0, 0
0, 0
0, 0
0, 0
1, 0
1, 0
0, 0
0, 0
0, 1
0, 1
2, 1
0, 0
0, 0
0, 0
0, 1
0, 0
0, 0
0, 0
0, 0
0, 0
0, 1
0, 2
1, 0
0, 0
0, 0
0, 0
0, 0
0, 0
0, 0
0, 0
1, 0
0, 0
0, 0
0, 0
0, 0
0, 0
0, 0
0, 0
0, 0
0, 1
0, 0
0, 0
0, 0
0, 0
0, 0
0, 0
0, 0
0, 0
0, 0
0, 0
0, 0
0, 0
0, 0
0, 0
0, 0
0, 0
0, 0
0, 0
0, 0
0, 0
0, 0
0, 0
0, 0
0, 0
0, 0
0, 0
0, 0
0, 0
0, 0
0, 0
0, 0
0, 0
0, 0
0, 0
0, 0
0, 0
0, 0
0, 0
0, 0
0, 0
0, 0
0, 0
0, 0
0, 0
0, 0
0, 0
0, 0
0, 0
0, 0
0, 0
0, 0
0, 0
0, 0
0, 0
0, 0
0, 0
0, 0
0, 0
0, 0
0, 0
0, 0
0, 0
0, 0
0, 0
0, 0
0, 0
0, 0
0, 0
0, 0
0, 0
0, 0
0, 0
0, 0
0, 0
0, 0
0, 0
0, 0
0, 0
0, 0
0, 0
0, 0
0, 0
0, 0
0, 0
0, 0
0, 0
0, 0
0, 0
0, 0
0, 0
0, 0
0, 0
#ENDOFDATA     end of spectrum data

File: ps__0567_0717304816_000rfs_shot_449.msa
#FORMAT      : EMSA/MAS spectral data file
#VERSION     : TC202v2.0 PIXL
#TITLE       : Novarupta (sol567) subset1
#DATE        : 02-11-2024      Date in the format DD-MMM-YYYY, for example 07-JUL-2010
#TIME        :             The time of day at which the spectrum was recorded, in 24-hour format
#OWNER       : PIXL Flight Model       (PIXL will use this to indicate which instrument took the data.)
#NPOINTS     : 4096     Number of data points in the spectrum (This can be zero for configuration only files)
#NCOLUMNS    : 2     Number of data columns in the spectrum (This can be zero for configuration only files)
#XUNITS      : eV
#YUNITS      : COUNTS
#DATATYPE    : YY
#XPERCHAN    : 7.862, 7.881   eV per channel (separate by commas if more than one detector)
#OFFSET      : 18.5, -22.4         eV of first channel  (separate by commas if more than one detector
#SIGNALTYPE  : XRF
#YP_TEMP     : 1.658
#LIVETIME    : 8.84358, 8.81358   seconds (separate by commas if more than one detector)
#REALTIME    : 10, 10.0   seconds (separate by commas if more than one detector)
#SPECTRUM    : start of spectrum data
0, 0
0, 0
0, 0
0, 0
0, 0
0, 0
0, 0
1, 0
2, 1
4, 3
1, 4
4, 11
15, 13
17, 26
36, 51
102, 124
480, 532
110, 131
26, 28
24, 24
42, 58
261, 319
123, 111
64, 83
219, 235
125, 121
68, 76
22, 41
6, 13
8, 6
24, 27
15, 15
11, 22
183, 263
318, 328
54, 52
39, 51
41, 55
18, 19
11, 12
14, 18
56, 66
35, 46
9, 17
11, 14
14, 17
17, 13
7, 13
16, 25
19, 30
9, 16
17, 15
15, 7
39, 49
41, 49
17, 19
22, 24
349, 461
1498, 1798
1015, 1035
124, 96
13, 29
15, 23
71, 102
230, 269
136, 152
24, 24
10, 8
15, 7
13, 6
4, 3
2, 9
7, 6
3, 6
8, 7
5, 9
4, 6
6, 6
18, 16
14, 6
8, 6
3, 7
8, 9
3, 6
7, 5
7, 5
2, 4
11, 4
4, 5
5, 1
1, 2
4, 2
4, 5
1, 4
3, 4
2, 5
2, 5
4, 2
1, 3
6, 3
3, 9
3, 2
2, 5
3, 2
1, 1
2, 3
5, 1
3, 3
1, 0
3, 1
2, 3
4, 0
1, 0
0, 0
2, 2
2, 3
2, 5
6, 1
0, 0
2, 3
1, 1
1, 2
3, 5
2, 1
2, 4
1, 1
0, 0
1, 3
1, 1
0, 2
0, 1
0, 2
4, 1
0, 1
0, 0
0, 1
0, 2
1, 1
1, 2
1, 0
0, 3
1, 0
1, 0
1, 0
0, 1
0, 1
2, 0
1, 0
0, 0
1, 0
0, 0
0, 2
0, 0
1, 0
1, 0
2, 0
1, 0
0, 1
0, 1
0, 1
0, 0
0, 0
1, 0
0, 0
0, 0
1, 0
0, 0
0, 0
0, 0
1, 0
1, 2
0, 0
0, 0
0, 0
0, 0
1, 1
0, 0
0, 0
0, 1
0, 0
1, 0
1, 0
0, 0
0, 0
1, 0
0, 0
0, 0
2, 0
0, 0
0, 0
0, 0
0, 0
0, 0
0, 0
0, 0
0, 0
0, 1
0, 0
0, 0
0, 0
0, 0
0, 0
0, 0
0, 0
0, 0
0, 0
0, 0
1, 0
0, 0
0, 0
0, 0
0, 0
0, 0
1, 0
0, 0
1, 0
0, 0
0, 0
0, 0
0, 0
0, 0
0, 0
0, 0
0, 0
0, 0
0, 0
0, 0
0, 0
0, 0
0, 0
0, 0
0, 0
0, 0
0, 0
0, 0
0, 0
0, 0
0, 0
0, 0
0, 0
0, 0
0, 0
0, 0
0, 0
0, 0
0, 0
0, 0
0, 0
0, 0
0, 0
0, 0
0, 0
0, 0
0, 0
0, 0
0, 0
0, 0
0, 0
0, 0
0, 0
0, 0
0, 0
0, 0
0, 0
0, 0
0, 0
0, 0
0, 0
0, 0
0, 0
0, 0
0, 0
0, 0
0, 0
0, 0
0, 0
0, 0
0, 0
0, 0
0, 0
0, 0
0, 0
0, 0
0, 0
0, 0
0, 0
0, 0
0, 0
0, 0
0, 0
0, 0
0, 0
0, 0
0, 0
#ENDOFDATA     end of spectrum data

File: ps__0567_0717304816_000rfs_shot_459.msa
#FORMAT      : EMSA/MAS spectral data file
#VERSION     : TC202v2.0 PIXL
#TITLE       : Novarupta (sol567) subset1
#DATE        : 02-11-2024      Date in the format DD-MMM-YYYY, for example 07-JUL-2010
#TIME        :             The time of day at which the spectrum was recorded, in 24-hour format
#OWNER       : PIXL Flight Model       (PIXL will use this to indicate which instrument took the data.)
#NPOINTS     : 4096     Number of data points in the spectrum (This can be zero for configuration only files)
#NCOLUMNS    : 2     Number of data columns in the spectrum (This can be zero for configuration only files)
#XUNITS      : eV
#YUNITS      : COUNTS
#DATATYPE    : YY
#XPERCHAN    : 7.862, 7.881   eV per channel (separate by commas if more than one detector)
#OFFSET      : 18.5, -22.4         eV of first channel  (separate by commas if more than one detector
#SIGNALTYPE  : XRF
#YP_TEMP     : 2.171
#LIVETIME    : 8.82531, 8.81717   seconds (separate by commas if more than one detector)
#REALTIME    : 10, 10.0   seconds (separate by commas if more than one detector)
#SPECTRUM    : start of spectrum data
0, 0
0, 0
0, 0
0, 0
0, 0
0, 0
0, 0
0, 0
0, 4
3, 1
1, 4
19, 8
15, 22
17, 12
54, 37
116, 109
470, 509
108, 92
36, 35
19, 29
68, 77
349, 419
147, 143
67, 75
226, 228
132, 113
90, 65
29, 24
9, 12
10, 4
27, 28
12, 15
13, 15
194, 243
332, 328
56, 50
51, 51
46, 45
13, 15
8, 6
27, 21
71, 74
47, 35
13, 17
15, 14
20, 17
12, 10
7, 12
19, 18
34, 31
19, 13
11, 13
8, 14
43, 29
45, 60
23, 18
28, 35
350, 462
1595, 1826
1132, 1069
138, 112
12, 11
22, 20
63, 90
261, 285
174, 156
25, 15
6, 9
15, 13
6, 10
3, 3
3, 5
6, 4
1, 5
6, 5
8, 4
4, 4
7, 9
5, 9
11, 11
10, 7
2, 3
2, 5
5, 6
4, 6
4, 4
3, 6
6, 2
2, 3
3, 5
5, 4
4, 7
5, 5
2, 0
3, 3
1, 3
3, 2
2, 1
2, 3
2, 4
2, 4
1, 2
4, 1
2, 3
2, 2
4, 4
1, 5
3, 3
1, 2
1, 3
1, 1
3, 2
2, 1
2, 2
0, 0
3, 4
4, 4
5, 2
2, 3
1, 0
3, 1
1, 1
0, 3
1, 2
2, 4
2, 1
0, 3
1, 0
1, 2
2, 1
0, 0
1, 1
0, 1
0, 2
1, 0
0, 0
1, 0
0, 1
0, 1
0, 0
1, 0
0, 0
1, 0
0, 0
0, 0
0, 1
0, 1
0, 0
0, 0
1, 0
1, 0
0, 0
1, 0
0, 1
0, 1
0, 1
1, 0
0, 0
0, 0
1, 0
0, 0
0, 0
0, 0
1, 1
1, 0
0, 1
0, 0
0, 0
0, 0
0, 0
1, 1
0, 1
1, 0
0, 0
0, 1
0, 0
0, 0
0, 0
0, 0
0, 0
1, 0
1, 0
0, 0
0, 1
1, 0
0, 1
0, 1
0, 0
0, 0
0, 1
0, 0
0, 0
0, 0
0, 0
0, 0
0, 0
0, 0
0, 0
0, 0
0, 0
0, 0
0, 0
0, 0
0, 0
0, 0
0, 0
1, 0
0, 1
0, 0
0, 0
0, 0
0, 0
0, 0
0, 0
0, 0
0, 0
0, 0
0, 0
0, 0
0, 0
0, 0
0, 0
0, 0
0, 0
0, 0
0, 0
0, 0
0, 0
0, 0
0, 0
0, 0
0, 0
0, 0
0, 0
0, 0
0, 0
0, 0
0, 0
0, 0
0, 0
0, 0
0, 0
0, 0
0, 0
0, 0
0, 0
0, 0
0, 0
0, 0
0, 0
0, 0
0, 0
0, 0
0, 0
0, 0
0, 0
0, 0
0, 0
0, 0
0, 0
0, 0
0, 0
0, 0
0, 0
0, 0
0, 0
0, 0
0, 0
0, 0
0, 0
0, 0
0, 0
0, 0
0, 0
0, 0
0, 0
0, 0
0, 0
0, 0
0, 0
0, 0
0, 0
0, 0
0, 0
0, 0
0, 0
0, 0
0, 0
0, 0
0, 0
0, 0
0, 0
0, 0
0, 0
#ENDOFDATA     end of spectrum data