Folder: data-repository/host_upload/02-11-2024/rqc/uplink1 (part 18)

File: ps__0567_0717304816_000rfs_shot_289.msa
#FORMAT      : EMSA/MAS spectral data file
#VERSION     : TC202v2.0 PIXL
#TITLE       : Novarupta (sol567) subset1
#DATE        : 02-11-2024      Date in the format DD-MMM-YYYY, for example 07-JUL-2010
#TIME        :             The time of day at which the spectrum was recorded, in 24-hour format
#OWNER       : PIXL Flight Model       (PIXL will use this to indicate which instrument took the data.)
#NPOINTS     : 4096     Number of data points in the spectrum (This can be zero for configuration only files)
#NCOLUMNS    : 2     Number of data columns in the spectrum (This can be zero for configuration only files)
#XUNITS      : eV
#YUNITS      : COUNTS
#DATATYPE    : YY
#XPERCHAN    : 7.862, 7.881   eV per channel (separate by commas if more than one detector)
#OFFSET      : 18.5, -22.4         eV of first channel  (separate by commas if more than one detector
#SIGNALTYPE  : XRF
#YP_TEMP     : 1.273
#LIVETIME    : 8.82221, 8.8167   seconds (separate by commas if more than one detector)
#REALTIME    : 10, 10.0   seconds (separate by commas if more than one detector)
#SPECTRUM    : start of spectrum data
0, 0
0, 0
0, 0
0, 0
0, 0
0, 0
0, 0
1, 1
2, 2
2, 5
1, 4
7, 8
16, 8
25, 21
51, 53
125, 87
495, 547
129, 125
20, 29
23, 21
52, 60
320, 313
114, 123
78, 92
229, 225
116, 116
76, 69
23, 32
4, 10
4, 6
22, 28
18, 11
15, 13
215, 242
374, 390
65, 57
29, 60
48, 48
9, 13
13, 16
40, 22
60, 60
38, 43
14, 13
12, 13
21, 17
17, 5
10, 14
6, 13
21, 26
21, 23
15, 15
10, 16
25, 34
45, 43
28, 28
31, 46
387, 452
1700, 1792
1143, 981
137, 108
26, 22
25, 33
99, 103
286, 283
184, 145
34, 22
14, 2
15, 11
9, 12
5, 9
7, 7
5, 4
9, 8
9, 7
8, 7
5, 3
5, 8
6, 11
15, 8
10, 8
2, 7
5, 9
10, 9
1, 3
9, 7
7, 3
6, 3
4, 5
2, 1
3, 4
4, 4
4, 4
4, 6
1, 2
3, 4
5, 6
7, 2
0, 6
5, 1
7, 5
6, 5
1, 1
4, 4
2, 2
2, 1
3, 2
2, 2
2, 4
3, 3
5, 3
1, 0
2, 2
0, 2
1, 1
2, 3
3, 4
2, 1
3, 2
2, 0
3, 1
2, 2
1, 1
1, 0
0, 1
1, 1
3, 0
2, 0
1, 1
1, 0
0, 3
0, 0
2, 2
0, 0
2, 0
2, 2
3, 0
1, 2
1, 1
3, 2
2, 1
2, 0
1, 1
0, 0
1, 1
1, 0
0, 0
1, 0
1, 2
0, 1
0, 1
1, 1
0, 2
0, 1
0, 0
0, 0
0, 0
2, 0
0, 0
1, 0
1, 0
0, 0
0, 0
0, 1
0, 0
0, 0
0, 0
0, 1
0, 0
1, 0
0, 0
0, 0
0, 1
0, 0
0, 0
0, 1
0, 0
0, 1
0, 0
0, 1
0, 0
0, 0
0, 0
0, 0
0, 0
0, 0
0, 0
0, 0
0, 0
0, 0
0, 0
0, 0
1, 0
0, 0
0, 0
0, 0
0, 0
0, 0
0, 1
0, 0
0, 1
0, 1
0, 0
0, 0
0, 0
0, 0
0, 0
0, 0
0, 0
0, 0
0, 0
0, 0
0, 0
0, 0
0, 0
0, 0
0, 0
0, 0
0, 0
0, 0
0, 0
0, 0
0, 0
0, 0
0, 0
0, 0
0, 0
0, 0
0, 0
0, 0
0, 0
0, 0
0, 0
0, 0
0, 0
0, 0
0, 0
0, 0
0, 0
0, 0
0, 0
0, 0
0, 0
0, 0
0, 0
0, 0
0, 0
0, 0
0, 0
0, 0
0, 0
0, 0
0, 0
0, 0
0, 0
0, 0
0, 0
0, 0
0, 0
0, 0
0, 0
0, 0
0, 0
0, 0
0, 0
0, 0
0, 0
0, 0
0, 0
0, 0
0, 0
0, 0
0, 0
0, 0
0, 0
0, 0
0, 0
0, 0
0, 0
0, 0
0, 0
0, 0
0, 0
0, 0
0, 0
0, 0
0, 0
0, 0
0, 0
0, 0
0, 0
0, 0
0, 0
0, 0
#ENDOFDATA     end of spectrum data

File: ps__0567_0717304816_000rfs_shot_292.msa
#FORMAT      : EMSA/MAS spectral data file
#VERSION     : TC202v2.0 PIXL
#TITLE       : Novarupta (sol567) subset1
#DATE        : 02-11-2024      Date in the format DD-MMM-YYYY, for example 07-JUL-2010
#TIME        :             The time of day at which the spectrum was recorded, in 24-hour format
#OWNER       : PIXL Flight Model       (PIXL will use this to indicate which instrument took the data.)
#NPOINTS     : 4096     Number of data points in the spectrum (This can be zero for configuration only files)
#NCOLUMNS    : 2     Number of data columns in the spectrum (This can be zero for configuration only files)
#XUNITS      : eV
#YUNITS      : COUNTS
#DATATYPE    : YY
#XPERCHAN    : 7.862, 7.881   eV per channel (separate by commas if more than one detector)
#OFFSET      : 18.5, -22.4         eV of first channel  (separate by commas if more than one detector
#SIGNALTYPE  : XRF
#YP_TEMP     : 1.241
#LIVETIME    : 8.81256, 8.80767   seconds (separate by commas if more than one detector)
#REALTIME    : 10, 10.0   seconds (separate by commas if more than one detector)
#SPECTRUM    : start of spectrum data
0, 0
0, 0
0, 0
0, 0
0, 0
0, 0
0, 0
1, 0
1, 4
1, 2
3, 7
6, 10
15, 11
31, 22
45, 46
98, 130
518, 575
117, 146
36, 25
17, 21
55, 63
292, 323
120, 142
68, 74
217, 230
107, 116
77, 73
34, 29
12, 10
7, 7
28, 35
31, 23
9, 22
218, 255
369, 361
65, 53
39, 44
54, 60
9, 17
8, 4
31, 27
49, 73
38, 38
20, 12
5, 17
21, 15
18, 8
8, 12
11, 11
27, 29
20, 23
15, 16
16, 13
29, 45
49, 62
18, 29
27, 53
376, 476
1655, 1832
1110, 1114
115, 101
20, 15
20, 20
84, 103
250, 284
147, 136
22, 11
10, 6
15, 15
9, 5
7, 8
4, 7
6, 14
6, 4
6, 5
1, 8
9, 6
12, 8
13, 10
20, 14
3, 7
5, 2
2, 11
5, 5
4, 6
2, 6
2, 5
5, 6
8, 5
4, 6
6, 4
2, 7
5, 0
2, 5
7, 1
3, 4
7, 5
10, 5
6, 7
3, 4
2, 7
4, 0
5, 6
2, 5
2, 3
1, 3
2, 3
3, 2
1, 1
3, 2
3, 3
4, 1
1, 3
1, 3
2, 1
1, 2
3, 2
4, 4
1, 2
4, 1
2, 2
1, 2
0, 0
2, 4
2, 0
0, 1
1, 1
2, 1
1, 2
1, 3
1, 2
0, 1
2, 1
1, 1
1, 1
1, 0
0, 0
0, 1
0, 1
1, 0
1, 1
0, 0
2, 1
1, 0
0, 0
0, 0
2, 1
0, 0
0, 1
0, 0
0, 0
1, 0
0, 1
1, 3
0, 2
2, 0
0, 0
0, 1
1, 0
0, 0
0, 1
1, 0
0, 0
0, 0
0, 0
0, 0
0, 2
0, 0
1, 0
0, 0
0, 2
0, 0
0, 0
0, 0
0, 0
0, 0
0, 1
0, 0
0, 0
0, 0
0, 0
0, 1
0, 0
0, 0
0, 0
0, 0
0, 0
0, 0
1, 0
1, 0
0, 0
0, 0
0, 0
1, 0
0, 0
0, 0
0, 0
0, 0
0, 0
0, 0
0, 0
0, 0
0, 0
0, 0
0, 0
0, 0
0, 0
0, 0
0, 0
0, 0
0, 0
0, 0
0, 0
0, 0
0, 0
0, 0
0, 0
0, 0
0, 0
0, 0
0, 0
0, 0
0, 0
0, 0
0, 0
0, 0
0, 0
0, 0
0, 0
0, 0
0, 0
0, 0
0, 0
0, 0
0, 0
0, 0
0, 0
0, 0
0, 0
0, 0
0, 0
0, 0
0, 0
0, 0
0, 0
0, 0
0, 0
0, 0
0, 0
0, 0
0, 0
0, 0
0, 0
0, 0
0, 0
0, 0
0, 0
0, 0
0, 0
0, 0
0, 0
0, 0
0, 0
0, 0
0, 0
0, 0
0, 0
0, 0
0, 0
0, 0
0, 0
0, 0
0, 0
0, 0
0, 0
0, 0
0, 0
0, 0
0, 0
0, 0
0, 0
0, 0
0, 0
0, 0
0, 0
0, 0
0, 0
0, 0
0, 0
0, 0
0, 0
0, 0
0, 0
0, 0
#ENDOFDATA     end of spectrum data

File: ps__0567_0717304816_000rfs_shot_297.msa
#FORMAT      : EMSA/MAS spectral data file
#VERSION     : TC202v2.0 PIXL
#TITLE       : Novarupta (sol567) subset1
#DATE        : 02-11-2024      Date in the format DD-MMM-YYYY, for example 07-JUL-2010
#TIME        :             The time of day at which the spectrum was recorded, in 24-hour format
#OWNER       : PIXL Flight Model       (PIXL will use this to indicate which instrument took the data.)
#NPOINTS     : 4096     Number of data points in the spectrum (This can be zero for configuration only files)
#NCOLUMNS    : 2     Number of data columns in the spectrum (This can be zero for configuration only files)
#XUNITS      : eV
#YUNITS      : COUNTS
#DATATYPE    : YY
#XPERCHAN    : 7.862, 7.881   eV per channel (separate by commas if more than one detector)
#OFFSET      : 18.5, -22.4         eV of first channel  (separate by commas if more than one detector
#SIGNALTYPE  : XRF
#YP_TEMP     : 1.081
#LIVETIME    : 8.84425, 8.81852   seconds (separate by commas if more than one detector)
#REALTIME    : 10, 10.0   seconds (separate by commas if more than one detector)
#SPECTRUM    : start of spectrum data
0, 0
0, 0
0, 0
0, 0
0, 0
0, 0
0, 0
1, 0
1, 5
4, 3
3, 6
13, 15
6, 21
14, 31
53, 42
123, 146
484, 523
111, 138
27, 33
14, 27
49, 83
321, 341
113, 136
60, 84
213, 212
115, 111
65, 72
29, 29
9, 10
0, 10
23, 37
23, 21
17, 19
218, 249
356, 364
55, 51
33, 59
45, 65
10, 9
14, 8
19, 22
60, 69
28, 34
18, 14
22, 13
22, 25
13, 17
11, 14
16, 14
34, 40
28, 25
11, 18
14, 14
42, 40
65, 55
23, 22
23, 45
355, 516
1616, 1852
1008, 1055
118, 104
16, 15
21, 23
90, 105
240, 272
154, 148
24, 18
4, 10
19, 14
8, 6
4, 8
5, 7
5, 5
9, 6
8, 9
7, 7
3, 8
4, 9
10, 14
8, 9
5, 10
3, 7
4, 5
6, 7
4, 8
6, 9
5, 3
4, 10
8, 6
5, 2
5, 5
3, 5
7, 6
4, 3
6, 5
2, 4
3, 3
3, 4
5, 4
4, 4
4, 1
3, 4
0, 4
4, 3
2, 1
4, 2
2, 1
3, 3
2, 5
3, 2
1, 3
2, 2
3, 4
1, 2
2, 3
2, 5
3, 1
5, 2
4, 3
3, 1
0, 1
1, 1
0, 1
2, 3
3, 1
2, 2
0, 4
0, 0
0, 2
1, 1
1, 1
2, 2
0, 1
0, 1
0, 2
0, 0
1, 1
0, 0
1, 0
1, 1
1, 0
1, 1
0, 0
0, 0
1, 1
0, 0
0, 1
0, 0
0, 0
0, 0
0, 1
0, 1
0, 0
1, 0
0, 0
0, 0
0, 0
1, 0
0, 0
2, 0
0, 0
0, 0
0, 0
0, 0
0, 0
0, 0
0, 1
0, 0
0, 1
0, 0
0, 0
0, 1
1, 0
0, 0
0, 0
0, 0
0, 0
0, 1
0, 0
0, 0
0, 0
0, 0
0, 1
1, 0
0, 0
0, 0
0, 0
0, 0
0, 0
0, 0
0, 0
1, 0
1, 0
0, 0
0, 0
0, 0
0, 0
0, 0
0, 0
0, 0
0, 0
0, 0
0, 0
1, 0
0, 0
0, 0
0, 0
0, 0
0, 0
0, 0
0, 0
0, 0
0, 0
0, 0
0, 0
0, 0
0, 0
0, 0
0, 0
0, 0
0, 0
0, 0
0, 0
0, 0
0, 0
0, 1
0, 0
0, 0
0, 0
0, 0
0, 0
0, 0
0, 0
0, 0
0, 0
0, 0
0, 0
0, 0
0, 0
0, 0
0, 0
0, 0
0, 0
0, 0
0, 0
0, 0
0, 0
0, 0
0, 0
0, 0
0, 0
0, 0
0, 0
0, 0
0, 0
0, 0
0, 0
0, 0
0, 0
0, 0
0, 0
0, 0
0, 0
0, 0
0, 0
0, 0
0, 0
0, 0
0, 0
0, 0
0, 0
0, 0
0, 0
0, 0
0, 0
0, 0
0, 0
0, 0
0, 0
0, 0
0, 0
0, 0
0, 0
0, 0
0, 0
0, 0
0, 0
0, 0
0, 0
0, 0
0, 0
0, 0
0, 0
0, 0
#ENDOFDATA     end of spectrum data

File: ps__0567_0717304816_000rfs_shot_298.msa
#FORMAT      : EMSA/MAS spectral data file
#VERSION     : TC202v2.0 PIXL
#TITLE       : Novarupta (sol567) subset1
#DATE        : 02-11-2024      Date in the format DD-MMM-YYYY, for example 07-JUL-2010
#TIME        :             The time of day at which the spectrum was recorded, in 24-hour format
#OWNER       : PIXL Flight Model       (PIXL will use this to indicate which instrument took the data.)
#NPOINTS     : 4096     Number of data points in the spectrum (This can be zero for configuration only files)
#NCOLUMNS    : 2     Number of data columns in the spectrum (This can be zero for configuration only files)
#XUNITS      : eV
#YUNITS      : COUNTS
#DATATYPE    : YY
#XPERCHAN    : 7.862, 7.881   eV per channel (separate by commas if more than one detector)
#OFFSET      : 18.5, -22.4         eV of first channel  (separate by commas if more than one detector
#SIGNALTYPE  : XRF
#YP_TEMP     : 1.369
#LIVETIME    : 8.83162, 8.81338   seconds (separate by commas if more than one detector)
#REALTIME    : 10, 10.0   seconds (separate by commas if more than one detector)
#SPECTRUM    : start of spectrum data
0, 0
0, 0
0, 0
0, 0
0, 0
0, 0
0, 0
1, 2
6, 4
4, 5
4, 2
9, 12
8, 7
21, 22
40, 37
102, 122
454, 586
113, 118
33, 42
19, 33
58, 37
315, 368
133, 116
68, 86
227, 215
99, 109
65, 79
24, 30
5, 12
10, 8
38, 42
16, 17
13, 21
216, 278
333, 350
55, 59
37, 40
36, 59
13, 10
5, 9
18, 24
60, 72
36, 34
16, 14
20, 19
20, 17
9, 17
8, 14
14, 17
27, 30
14, 26
12, 9
8, 19
24, 29
43, 46
29, 23
33, 36
361, 497
1578, 1842
1053, 1030
121, 101
13, 14
16, 24
81, 121
267, 297
151, 142
33, 19
10, 9
14, 16
9, 12
5, 3
4, 4
7, 10
8, 11
8, 5
6, 4
7, 6
5, 6
6, 19
16, 12
5, 7
5, 4
5, 3
7, 5
8, 4
9, 3
5, 2
3, 10
5, 4
7, 4
0, 4
4, 5
7, 4
3, 7
4, 3
5, 3
2, 7
2, 4
6, 4
3, 2
6, 2
5, 7
1, 3
0, 3
2, 1
3, 7
3, 2
2, 1
1, 0
3, 1
1, 5
1, 2
2, 1
0, 4
2, 3
3, 1
0, 6
0, 3
1, 1
3, 1
3, 2
1, 2
1, 4
2, 1
2, 2
3, 2
0, 0
1, 1
0, 0
1, 1
5, 1
1, 2
0, 3
0, 2
3, 0
1, 1
2, 2
0, 2
0, 0
0, 1
0, 1
0, 1
1, 0
0, 1
0, 0
1, 0
0, 3
0, 0
0, 0
0, 0
0, 0
3, 2
0, 0
0, 0
0, 1
0, 0
1, 0
2, 0
1, 1
1, 1
1, 0
0, 0
0, 0
0, 2
0, 1
2, 0
0, 1
0, 1
0, 1
0, 1
0, 0
0, 0
0, 0
0, 0
0, 0
0, 0
1, 0
0, 0
0, 1
0, 0
0, 0
0, 0
0, 0
0, 0
0, 0
0, 0
0, 0
0, 0
0, 0
0, 0
0, 0
0, 0
0, 0
0, 0
0, 1
0, 0
0, 0
0, 0
0, 0
0, 0
0, 0
0, 0
0, 0
0, 0
0, 0
0, 0
0, 0
0, 0
0, 0
0, 0
0, 0
0, 0
0, 0
0, 0
0, 0
0, 0
0, 0
0, 0
0, 0
0, 0
0, 0
0, 0
0, 0
0, 0
0, 0
0, 0
0, 0
0, 0
0, 0
0, 0
0, 0
0, 0
0, 0
0, 0
0, 0
0, 0
0, 0
0, 0
0, 0
0, 0
0, 0
0, 0
0, 0
0, 0
0, 0
0, 0
0, 0
0, 0
0, 0
0, 0
0, 0
0, 0
0, 0
0, 0
0, 0
0, 0
0, 0
0, 0
0, 0
0, 0
0, 0
0, 0
0, 0
0, 0
0, 0
0, 0
0, 0
0, 0
0, 0
0, 0
0, 0
0, 0
0, 0
0, 0
0, 0
0, 0
0, 0
0, 0
0, 0
0, 0
0, 0
0, 0
0, 0
0, 0
0, 0
0, 0
0, 0
0, 0
0, 0
0, 0
0, 0
0, 0
0, 0
0, 0
#ENDOFDATA     end of spectrum data

File: ps__0567_0717304816_000rfs_shot_301.msa
#FORMAT      : EMSA/MAS spectral data file
#VERSION     : TC202v2.0 PIXL
#TITLE       : Novarupta (sol567) subset1
#DATE        : 02-11-2024      Date in the format DD-MMM-YYYY, for example 07-JUL-2010
#TIME        :             The time of day at which the spectrum was recorded, in 24-hour format
#OWNER       : PIXL Flight Model       (PIXL will use this to indicate which instrument took the data.)
#NPOINTS     : 4096     Number of data points in the spectrum (This can be zero for configuration only files)
#NCOLUMNS    : 2     Number of data columns in the spectrum (This can be zero for configuration only files)
#XUNITS      : eV
#YUNITS      : COUNTS
#DATATYPE    : YY
#XPERCHAN    : 7.862, 7.881   eV per channel (separate by commas if more than one detector)
#OFFSET      : 18.5, -22.4         eV of first channel  (separate by commas if more than one detector
#SIGNALTYPE  : XRF
#YP_TEMP     : 1.498
#LIVETIME    : 8.82453, 8.80915   seconds (separate by commas if more than one detector)
#REALTIME    : 10, 10.0   seconds (separate by commas if more than one detector)
#SPECTRUM    : start of spectrum data
0, 0
0, 0
0, 0
0, 0
0, 0
0, 0
0, 0
1, 0
2, 4
2, 5
1, 4
14, 8
9, 18
30, 22
50, 42
106, 121
483, 565
132, 134
24, 27
25, 24
55, 70
335, 354
147, 116
65, 85
230, 237
118, 102
76, 62
33, 36
14, 11
11, 6
27, 31
21, 22
25, 27
195, 241
333, 354
49, 53
40, 45
64, 59
12, 14
16, 8
21, 27
56, 63
33, 36
22, 8
19, 18
22, 19
12, 12
16, 13
10, 15
25, 36
24, 21
12, 16
14, 20
26, 51
41, 43
25, 26
27, 29
347, 480
1523, 1772
978, 1038
128, 94
14, 14
16, 31
90, 106
269, 298
159, 160
34, 18
5, 10
17, 18
10, 16
2, 7
4, 6
3, 2
9, 5
6, 10
4, 9
4, 8
9, 6
13, 8
15, 10
9, 8
4, 6
8, 5
8, 13
5, 6
1, 4
7, 10
4, 9
6, 2
5, 5
3, 5
4, 5
5, 8
4, 2
1, 6
5, 2
5, 3
1, 1
5, 8
2, 5
2, 3
3, 0
4, 3
2, 6
3, 3
1, 3
1, 1
3, 1
2, 2
0, 2
4, 0
0, 3
2, 5
0, 3
6, 5
2, 3
3, 3
5, 3
1, 1
2, 2
2, 2
0, 1
4, 1
0, 2
3, 2
0, 3
1, 1
3, 4
2, 1
1, 0
0, 1
1, 0
1, 1
0, 1
1, 1
0, 1
3, 0
1, 0
0, 1
0, 0
0, 1
2, 2
0, 0
1, 1
1, 0
0, 0
0, 0
0, 0
0, 0
0, 1
1, 0
0, 0
0, 0
1, 0
0, 0
1, 1
0, 0
0, 0
0, 1
0, 1
1, 0
0, 0
1, 2
0, 0
0, 0
1, 0
0, 0
0, 0
0, 0
1, 0
1, 1
0, 1
0, 0
1, 0
1, 0
0, 0
0, 0
0, 0
0, 0
0, 1
0, 0
0, 0
0, 1
0, 1
1, 1
0, 0
0, 0
0, 0
0, 0
0, 0
0, 0
0, 0
1, 0
0, 0
0, 0
0, 0
0, 0
0, 0
0, 0
0, 0
0, 0
0, 0
0, 0
0, 0
0, 0
0, 0
0, 0
0, 0
0, 0
0, 0
0, 0
0, 0
0, 0
0, 0
1, 0
0, 0
0, 0
0, 0
0, 0
0, 0
0, 0
0, 0
0, 0
0, 0
0, 0
0, 0
0, 0
0, 0
0, 0
0, 0
0, 0
0, 0
0, 0
0, 0
0, 0
0, 0
0, 0
0, 0
0, 0
0, 0
0, 0
0, 0
0, 0
0, 0
0, 0
0, 0
0, 0
0, 0
0, 0
0, 0
0, 0
0, 0
0, 0
0, 0
0, 0
0, 0
0, 0
0, 0
0, 0
0, 0
0, 0
0, 0
0, 0
0, 0
0, 0
0, 0
0, 0
0, 0
0, 0
0, 0
0, 0
0, 0
0, 0
0, 0
0, 0
0, 0
0, 0
0, 0
0, 0
0, 0
0, 0
0, 0
0, 0
0, 0
0, 0
0, 0
0, 0
0, 0
0, 0
0, 0
0, 0
0, 0
0, 0
0, 0
#ENDOFDATA     end of spectrum data

File: ps__0567_0717304816_000rfs_shot_304.msa
#FORMAT      : EMSA/MAS spectral data file
#VERSION     : TC202v2.0 PIXL
#TITLE       : Novarupta (sol567) subset1
#DATE        : 02-11-2024      Date in the format DD-MMM-YYYY, for example 07-JUL-2010
#TIME        :             The time of day at which the spectrum was recorded, in 24-hour format
#OWNER       : PIXL Flight Model       (PIXL will use this to indicate which instrument took the data.)
#NPOINTS     : 4096     Number of data points in the spectrum (This can be zero for configuration only files)
#NCOLUMNS    : 2     Number of data columns in the spectrum (This can be zero for configuration only files)
#XUNITS      : eV
#YUNITS      : COUNTS
#DATATYPE    : YY
#XPERCHAN    : 7.862, 7.881   eV per channel (separate by commas if more than one detector)
#OFFSET      : 18.5, -22.4         eV of first channel  (separate by commas if more than one detector
#SIGNALTYPE  : XRF
#YP_TEMP     : 1.466
#LIVETIME    : 8.8446, 8.80828   seconds (separate by commas if more than one detector)
#REALTIME    : 10, 10.0   seconds (separate by commas if more than one detector)
#SPECTRUM    : start of spectrum data
0, 0
0, 0
0, 0
0, 0
0, 0
0, 0
0, 0
1, 1
4, 5
4, 4
3, 1
14, 11
11, 19
14, 21
25, 38
115, 124
438, 579
106, 116
27, 46
16, 20
43, 65
289, 336
132, 109
77, 78
209, 282
104, 132
76, 69
24, 22
14, 13
5, 10
27, 38
11, 20
17, 28
184, 303
276, 383
62, 61
35, 58
42, 48
12, 14
5, 11
19, 23
40, 94
44, 33
13, 12
16, 21
21, 18
13, 19
13, 11
19, 12
27, 42
25, 27
6, 12
8, 15
34, 37
47, 42
17, 16
32, 38
325, 516
1517, 1954
991, 1049
113, 96
13, 21
28, 27
89, 103
229, 317
159, 149
19, 17
5, 16
14, 27
8, 10
9, 6
6, 5
6, 8
2, 6
6, 1
9, 6
3, 5
7, 5
8, 6
10, 8
4, 12
4, 2
2, 3
6, 3
4, 11
6, 9
6, 5
1, 5
5, 2
7, 7
1, 7
1, 5
6, 1
5, 5
4, 4
3, 3
5, 6
3, 5
6, 3
3, 5
3, 6
1, 2
2, 5
5, 1
2, 2
4, 6
1, 1
2, 1
1, 7
5, 1
0, 3
2, 1
2, 3
3, 2
1, 3
1, 3
3, 2
4, 4
1, 3
2, 3
1, 1
2, 1
0, 1
2, 2
1, 3
1, 0
1, 5
1, 1
1, 1
0, 0
1, 1
2, 2
0, 5
2, 0
1, 3
0, 0
0, 1
1, 0
1, 0
1, 1
0, 0
0, 2
0, 1
0, 0
0, 0
0, 0
0, 1
0, 2
0, 0
0, 0
1, 1
0, 0
0, 0
1, 0
0, 0
0, 1
0, 1
0, 0
0, 0
0, 1
0, 0
0, 0
0, 0
0, 2
0, 1
0, 0
1, 0
0, 0
0, 1
0, 0
0, 0
0, 0
1, 0
0, 0
0, 0
1, 0
0, 0
1, 0
0, 0
0, 0
0, 1
0, 0
0, 0
0, 0
0, 0
0, 0
0, 0
0, 0
0, 0
0, 0
0, 0
0, 0
0, 0
1, 0
0, 0
0, 0
0, 0
0, 0
0, 0
0, 0
0, 0
0, 0
0, 0
0, 0
0, 0
0, 0
0, 0
0, 0
0, 0
0, 0
0, 0
0, 0
0, 0
0, 0
0, 0
0, 0
0, 0
0, 0
0, 0
0, 0
0, 0
0, 0
0, 0
0, 0
0, 0
0, 0
0, 0
0, 0
0, 0
0, 0
0, 0
0, 0
0, 0
0, 0
0, 0
0, 0
0, 0
0, 0
0, 0
0, 0
0, 0
0, 0
0, 0
0, 0
0, 0
0, 0
0, 0
0, 0
0, 0
0, 0
0, 0
0, 0
0, 0
0, 0
0, 0
0, 0
0, 0
0, 0
0, 0
0, 0
0, 0
0, 0
0, 0
0, 0
0, 0
0, 0
0, 0
0, 0
0, 0
0, 0
0, 0
0, 0
0, 0
0, 0
0, 0
0, 0
0, 0
0, 0
0, 0
0, 0
0, 0
0, 0
0, 0
0, 0
0, 0
0, 0
0, 0
0, 0
0, 0
0, 0
0, 0
0, 0
0, 0
0, 0
#ENDOFDATA     end of spectrum data

File: ps__0567_0717304816_000rfs_shot_305.msa
#FORMAT      : EMSA/MAS spectral data file
#VERSION     : TC202v2.0 PIXL
#TITLE       : Novarupta (sol567) subset1
#DATE        : 02-11-2024      Date in the format DD-MMM-YYYY, for example 07-JUL-2010
#TIME        :             The time of day at which the spectrum was recorded, in 24-hour format
#OWNER       : PIXL Flight Model       (PIXL will use this to indicate which instrument took the data.)
#NPOINTS     : 4096     Number of data points in the spectrum (This can be zero for configuration only files)
#NCOLUMNS    : 2     Number of data columns in the spectrum (This can be zero for configuration only files)
#XUNITS      : eV
#YUNITS      : COUNTS
#DATATYPE    : YY
#XPERCHAN    : 7.862, 7.881   eV per channel (separate by commas if more than one detector)
#OFFSET      : 18.5, -22.4         eV of first channel  (separate by commas if more than one detector
#SIGNALTYPE  : XRF
#YP_TEMP     : 1.145
#LIVETIME    : 8.83392, 8.80441   seconds (separate by commas if more than one detector)
#REALTIME    : 10, 10.0   seconds (separate by commas if more than one detector)
#SPECTRUM    : start of spectrum data
0, 0
0, 0
0, 0
0, 0
0, 0
0, 0
0, 0
0, 2
2, 2
3, 1
5, 6
4, 15
14, 18
16, 23
34, 35
84, 135
446, 526
80, 118
29, 37
16, 31
66, 58
269, 339
110, 131
75, 88
225, 273
106, 124
66, 78
31, 29
9, 8
2, 14
37, 29
20, 9
18, 25
189, 268
308, 394
53, 67
40, 69
38, 53
9, 17
7, 12
16, 13
55, 75
37, 39
8, 19
19, 17
10, 14
13, 10
6, 19
4, 23
20, 30
17, 30
10, 12
11, 13
34, 47
39, 57
22, 21
28, 31
327, 506
1504, 1877
995, 1081
96, 75
17, 12
18, 26
84, 105
233, 303
169, 159
14, 19
5, 11
7, 15
5, 13
3, 7
3, 5
5, 7
4, 9
6, 10
7, 7
3, 10
6, 9
5, 12
14, 12
4, 7
7, 6
5, 1
5, 5
10, 8
5, 6
3, 5
4, 1
3, 4
5, 3
2, 5
2, 2
5, 5
5, 6
1, 8
3, 0
8, 2
2, 4
6, 4
5, 1
2, 3
1, 2
1, 3
1, 2
0, 1
2, 3
2, 1
1, 2
3, 1
4, 3
2, 3
3, 2
1, 1
1, 4
4, 4
0, 1
3, 4
3, 4
3, 2
1, 2
0, 0
0, 3
2, 2
0, 1
0, 1
0, 1
2, 1
2, 3
3, 1
4, 3
1, 1
1, 1
0, 0
0, 2
1, 0
0, 0
0, 2
1, 2
0, 1
1, 4
0, 0
0, 0
1, 0
1, 0
1, 0
0, 0
2, 0
0, 1
0, 0
1, 0
0, 0
1, 1
0, 0
1, 0
0, 0
0, 2
0, 0
0, 1
1, 0
0, 0
0, 0
2, 0
0, 0
0, 1
0, 0
0, 1
0, 0
0, 0
0, 1
2, 0
0, 0
0, 0
0, 0
0, 0
0, 0
0, 0
0, 0
0, 0
0, 0
0, 0
0, 0
0, 0
0, 0
1, 0
1, 0
0, 0
0, 0
0, 0
0, 0
0, 0
1, 0
0, 0
0, 0
0, 0
0, 0
0, 0
1, 0
0, 0
0, 0
0, 0
0, 0
0, 0
0, 0
0, 0
0, 0
0, 0
0, 0
0, 0
0, 0
0, 0
0, 0
0, 0
0, 0
1, 0
0, 0
0, 0
0, 0
0, 0
0, 0
0, 0
0, 0
0, 0
0, 0
0, 0
0, 0
0, 0
0, 0
0, 0
0, 0
0, 0
0, 0
0, 0
0, 0
0, 0
0, 0
0, 0
0, 0
0, 0
0, 0
0, 0
0, 0
0, 0
0, 0
0, 0
0, 0
0, 0
0, 0
0, 0
0, 0
0, 0
0, 0
0, 0
0, 0
0, 0
0, 0
0, 0
0, 0
0, 0
0, 0
0, 0
0, 0
0, 0
0, 0
0, 0
0, 0
0, 0
0, 0
0, 0
0, 0
0, 0
0, 0
0, 0
0, 0
0, 0
0, 0
0, 0
0, 0
0, 0
0, 0
0, 0
0, 0
0, 0
0, 0
0, 0
0, 0
0, 0
0, 0
0, 0
0, 0
0, 0
0, 0
0, 0
0, 0
0, 0
#ENDOFDATA     end of spectrum data

File: ps__0567_0717304816_000rfs_shot_306.msa
#FORMAT      : EMSA/MAS spectral data file
#VERSION     : TC202v2.0 PIXL
#TITLE       : Novarupta (sol567) subset1
#DATE        : 02-11-2024      Date in the format DD-MMM-YYYY, for example 07-JUL-2010
#TIME        :             The time of day at which the spectrum was recorded, in 24-hour format
#OWNER       : PIXL Flight Model       (PIXL will use this to indicate which instrument took the data.)
#NPOINTS     : 4096     Number of data points in the spectrum (This can be zero for configuration only files)
#NCOLUMNS    : 2     Number of data columns in the spectrum (This can be zero for configuration only files)
#XUNITS      : eV
#YUNITS      : COUNTS
#DATATYPE    : YY
#XPERCHAN    : 7.862, 7.881   eV per channel (separate by commas if more than one detector)
#OFFSET      : 18.5, -22.4         eV of first channel  (separate by commas if more than one detector
#SIGNALTYPE  : XRF
#YP_TEMP     : 1.466
#LIVETIME    : 8.84094, 8.81129   seconds (separate by commas if more than one detector)
#REALTIME    : 10, 10.0   seconds (separate by commas if more than one detector)
#SPECTRUM    : start of spectrum data
0, 0
0, 0
0, 0
0, 0
0, 0
0, 0
0, 0
0, 2
0, 5
0, 7
2, 4
10, 12
8, 17
24, 17
45, 52
99, 131
440, 531
119, 106
30, 30
22, 20
56, 49
280, 313
105, 129
49, 74
223, 232
115, 102
58, 85
30, 38
9, 10
3, 16
19, 33
15, 19
9, 19
160, 267
301, 403
43, 52
45, 45
58, 66
14, 12
3, 6
15, 20
66, 78
36, 37
15, 16
13, 13
21, 15
13, 12
13, 16
18, 19
22, 26
26, 21
15, 9
15, 20
36, 39
47, 42
32, 27
26, 27
305, 496
1486, 1910
1023, 1080
115, 115
13, 22
14, 19
85, 89
229, 288
173, 165
18, 23
5, 7
12, 13
7, 10
5, 8
2, 2
4, 7
12, 6
4, 6
3, 9
9, 4
7, 8
6, 7
6, 16
8, 0
2, 10
8, 8
7, 2
7, 4
6, 5
2, 3
4, 5
4, 8
2, 5
4, 5
4, 5
2, 7
5, 3
9, 3
1, 2
1, 3
4, 2
1, 2
3, 6
1, 8
3, 1
3, 2
2, 3
2, 2
3, 4
1, 0
5, 0
1, 4
1, 1
0, 1
1, 7
4, 3
1, 2
1, 1
7, 2
3, 5
2, 1
1, 2
1, 5
1, 0
3, 0
2, 3
2, 2
0, 2
2, 2
3, 2
1, 2
0, 0
0, 1
1, 1
1, 1
2, 0
0, 1
0, 1
3, 2
0, 2
0, 0
0, 0
0, 0
1, 0
0, 1
1, 0
0, 0
0, 0
0, 0
0, 1
1, 0
0, 0
0, 2
0, 1
1, 0
0, 1
0, 1
0, 0
1, 0
0, 1
0, 1
0, 1
0, 0
0, 1
0, 0
0, 0
0, 0
1, 0
1, 0
1, 0
0, 0
1, 0
0, 0
0, 0
1, 0
0, 0
0, 0
0, 0
0, 0
0, 0
0, 0
0, 0
0, 0
0, 0
0, 0
0, 0
0, 0
0, 1
0, 0
0, 0
0, 0
0, 0
0, 0
0, 0
0, 0
0, 0
0, 0
0, 0
1, 0
0, 0
0, 0
0, 0
0, 0
0, 0
0, 0
0, 1
0, 0
0, 0
0, 0
0, 0
1, 0
0, 0
0, 0
0, 0
0, 0
0, 0
0, 0
0, 0
0, 0
0, 0
0, 0
0, 0
0, 0
0, 0
0, 0
0, 0
0, 0
0, 0
0, 0
0, 0
0, 0
0, 0
0, 0
0, 0
0, 0
0, 0
0, 0
0, 0
0, 0
0, 0
0, 0
0, 0
0, 0
0, 0
0, 0
0, 0
0, 0
0, 0
0, 0
0, 0
0, 0
0, 0
0, 0
0, 0
0, 0
0, 0
0, 0
0, 0
0, 0
0, 0
0, 0
0, 0
0, 0
0, 0
0, 0
0, 0
0, 0
0, 0
0, 0
0, 0
0, 0
0, 0
0, 0
0, 0
0, 0
0, 0
0, 0
0, 0
0, 0
0, 0
0, 0
0, 0
0, 0
0, 0
0, 0
0, 0
0, 0
0, 0
0, 0
0, 0
0, 0
0, 0
0, 0
0, 0
0, 0
0, 0
0, 0
#ENDOFDATA     end of spectrum data

File: ps__0567_0717304816_000rfs_shot_308.msa
#FORMAT      : EMSA/MAS spectral data file
#VERSION     : TC202v2.0 PIXL
#TITLE       : Novarupta (sol567) subset1
#DATE        : 02-11-2024      Date in the format DD-MMM-YYYY, for example 07-JUL-2010
#TIME        :             The time of day at which the spectrum was recorded, in 24-hour format
#OWNER       : PIXL Flight Model       (PIXL will use this to indicate which instrument took the data.)
#NPOINTS     : 4096     Number of data points in the spectrum (This can be zero for configuration only files)
#NCOLUMNS    : 2     Number of data columns in the spectrum (This can be zero for configuration only files)
#XUNITS      : eV
#YUNITS      : COUNTS
#DATATYPE    : YY
#XPERCHAN    : 7.862, 7.881   eV per channel (separate by commas if more than one detector)
#OFFSET      : 18.5, -22.4         eV of first channel  (separate by commas if more than one detector
#SIGNALTYPE  : XRF
#YP_TEMP     : 1.402
#LIVETIME    : 8.8474, 8.81348   seconds (separate by commas if more than one detector)
#REALTIME    : 10, 10.0   seconds (separate by commas if more than one detector)
#SPECTRUM    : start of spectrum data
0, 0
0, 0
0, 0
0, 0
0, 0
0, 0
0, 0
0, 1
2, 7
1, 3
2, 3
9, 15
13, 16
21, 23
42, 47
80, 128
486, 539
107, 122
29, 34
17, 21
52, 58
272, 311
126, 129
73, 90
232, 259
111, 104
99, 98
32, 40
9, 10
11, 14
27, 24
12, 23
18, 23
186, 230
293, 337
44, 46
45, 43
54, 54
8, 16
14, 13
26, 21
72, 60
30, 37
15, 15
13, 20
22, 24
16, 12
17, 13
14, 14
24, 31
28, 34
12, 13
12, 13
39, 40
42, 50
19, 30
35, 38
340, 476
1527, 1775
1019, 1023
123, 105
20, 9
24, 26
79, 108
230, 286
151, 149
26, 22
2, 10
18, 12
10, 12
6, 7
9, 4
7, 7
5, 7
5, 9
9, 11
8, 9
3, 7
11, 6
3, 13
5, 3
8, 9
5, 3
3, 4
7, 5
1, 1
1, 3
4, 5
5, 8
3, 7
8, 5
7, 3
3, 5
6, 7
2, 4
5, 5
1, 5
1, 1
4, 1
3, 2
4, 4
3, 3
2, 9
4, 3
4, 5
3, 3
2, 2
3, 4
3, 2
1, 5
1, 1
0, 1
3, 1
2, 1
2, 0
4, 2
2, 5
1, 2
2, 0
1, 2
0, 2
1, 2
1, 3
0, 1
1, 1
3, 2
2, 0
1, 1
2, 1
2, 0
2, 0
0, 1
0, 1
2, 0
2, 0
0, 1
1, 0
0, 0
1, 0
2, 2
0, 1
0, 0
1, 1
0, 0
0, 0
0, 0
1, 0
0, 0
0, 0
0, 1
1, 0
0, 2
0, 2
0, 0
0, 1
0, 1
3, 0
1, 0
0, 0
0, 0
2, 0
0, 1
0, 0
0, 0
0, 0
0, 0
0, 0
0, 0
1, 0
2, 0
0, 1
0, 0
0, 0
0, 0
1, 0
1, 0
0, 0
0, 0
0, 0
0, 0
1, 0
1, 0
0, 0
0, 1
2, 0
0, 0
0, 0
0, 0
0, 0
0, 0
0, 0
0, 0
0, 0
0, 0
0, 0
0, 0
0, 0
0, 0
0, 0
0, 0
0, 0
0, 0
0, 0
0, 0
0, 0
0, 0
0, 0
0, 0
0, 0
0, 0
0, 0
0, 0
0, 0
0, 0
0, 0
0, 0
0, 0
0, 0
0, 0
0, 0
1, 0
0, 0
0, 0
0, 0
0, 0
0, 0
0, 0
0, 0
0, 0
0, 0
0, 0
0, 0
0, 0
0, 0
0, 0
0, 0
0, 0
0, 0
0, 0
0, 0
0, 0
0, 0
0, 0
0, 0
0, 0
0, 0
0, 0
0, 0
0, 0
0, 0
0, 0
0, 0
0, 0
0, 0
0, 0
0, 0
0, 0
0, 0
0, 0
0, 0
0, 0
0, 0
0, 0
0, 0
0, 0
0, 0
0, 0
0, 0
0, 0
0, 0
0, 0
0, 0
0, 0
0, 0
0, 0
0, 0
0, 0
0, 0
0, 0
0, 0
0, 0
0, 0
0, 0
0, 0
0, 0
0, 0
0, 0
0, 0
0, 0
0, 0
0, 0
0, 0
0, 0
0, 0
#ENDOFDATA     end of spectrum data