Folder: data-repository/host_upload/02-11-2024/rqc/uplink1 (part 15)

File: ps__0567_0717304816_000rfs_shot_241.msa
#FORMAT      : EMSA/MAS spectral data file
#VERSION     : TC202v2.0 PIXL
#TITLE       : Novarupta (sol567) subset1
#DATE        : 02-11-2024      Date in the format DD-MMM-YYYY, for example 07-JUL-2010
#TIME        :             The time of day at which the spectrum was recorded, in 24-hour format
#OWNER       : PIXL Flight Model       (PIXL will use this to indicate which instrument took the data.)
#NPOINTS     : 4096     Number of data points in the spectrum (This can be zero for configuration only files)
#NCOLUMNS    : 2     Number of data columns in the spectrum (This can be zero for configuration only files)
#XUNITS      : eV
#YUNITS      : COUNTS
#DATATYPE    : YY
#XPERCHAN    : 7.862, 7.881   eV per channel (separate by commas if more than one detector)
#OFFSET      : 18.5, -22.4         eV of first channel  (separate by commas if more than one detector
#SIGNALTYPE  : XRF
#YP_TEMP     : 0.824
#LIVETIME    : 8.82932, 8.81186   seconds (separate by commas if more than one detector)
#REALTIME    : 10, 10.0   seconds (separate by commas if more than one detector)
#SPECTRUM    : start of spectrum data
0, 0
0, 0
0, 0
0, 0
0, 0
0, 0
0, 0
2, 1
4, 2
6, 3
3, 1
7, 12
16, 13
12, 28
38, 57
112, 116
448, 537
120, 104
26, 31
23, 28
53, 49
265, 342
122, 125
69, 74
195, 221
98, 128
74, 69
31, 21
6, 3
11, 13
22, 33
23, 24
20, 21
195, 265
312, 352
52, 61
45, 51
44, 54
8, 13
12, 13
15, 31
52, 72
31, 42
13, 12
14, 15
22, 27
13, 18
4, 9
13, 15
29, 37
26, 21
10, 11
15, 17
30, 41
49, 54
19, 25
29, 44
358, 546
1556, 1869
994, 1037
114, 99
15, 19
34, 25
61, 111
216, 285
141, 157
19, 23
8, 15
14, 15
8, 11
8, 9
3, 10
4, 4
2, 6
11, 5
1, 5
1, 8
2, 11
9, 12
12, 12
2, 6
7, 8
3, 9
5, 7
5, 7
3, 8
6, 6
7, 4
3, 6
5, 4
3, 4
4, 2
8, 3
3, 1
5, 6
1, 3
4, 5
3, 3
3, 2
1, 2
6, 4
3, 4
6, 2
3, 4
1, 4
2, 7
2, 1
3, 1
1, 3
2, 3
4, 5
1, 6
1, 3
1, 1
2, 4
1, 3
4, 3
0, 5
1, 1
1, 0
2, 1
2, 4
2, 2
3, 3
0, 1
0, 0
0, 0
1, 2
0, 0
0, 1
0, 1
2, 3
0, 1
0, 2
2, 2
0, 2
1, 1
0, 0
0, 1
0, 0
0, 1
0, 0
1, 3
0, 2
0, 1
1, 0
0, 0
1, 2
0, 0
0, 1
1, 1
1, 0
0, 0
0, 0
0, 0
0, 0
0, 0
0, 0
0, 1
0, 1
1, 0
0, 1
0, 0
1, 0
0, 1
0, 0
0, 0
0, 0
0, 0
0, 1
0, 1
0, 0
0, 1
0, 0
0, 0
0, 0
0, 0
0, 0
0, 1
0, 0
0, 0
0, 1
1, 0
0, 0
0, 0
0, 0
0, 0
0, 0
0, 0
0, 0
0, 0
0, 0
0, 0
0, 0
0, 0
0, 0
0, 0
0, 0
1, 0
0, 0
0, 0
0, 0
0, 0
0, 0
0, 0
0, 0
0, 0
0, 0
0, 0
0, 0
0, 0
0, 0
0, 0
0, 0
0, 0
0, 0
0, 0
0, 0
0, 0
0, 0
0, 0
0, 0
0, 0
0, 0
0, 0
0, 0
0, 0
0, 0
0, 0
0, 0
0, 0
0, 0
0, 0
0, 0
0, 0
0, 0
0, 0
0, 0
0, 0
0, 0
0, 0
0, 0
0, 0
0, 0
0, 0
0, 0
0, 0
0, 0
0, 0
0, 0
0, 0
0, 0
0, 0
0, 0
0, 0
0, 0
0, 0
0, 0
0, 0
0, 0
0, 0
0, 0
0, 0
0, 0
0, 0
0, 0
0, 0
0, 0
0, 0
0, 0
0, 0
0, 0
0, 0
0, 0
0, 0
0, 0
0, 0
0, 0
0, 0
0, 0
0, 0
0, 0
0, 0
0, 0
0, 0
0, 0
0, 0
0, 0
0, 0
0, 0
0, 0
0, 0
0, 0
0, 0
#ENDOFDATA     end of spectrum data

File: ps__0567_0717304816_000rfs_shot_245.msa
#FORMAT      : EMSA/MAS spectral data file
#VERSION     : TC202v2.0 PIXL
#TITLE       : Novarupta (sol567) subset1
#DATE        : 02-11-2024      Date in the format DD-MMM-YYYY, for example 07-JUL-2010
#TIME        :             The time of day at which the spectrum was recorded, in 24-hour format
#OWNER       : PIXL Flight Model       (PIXL will use this to indicate which instrument took the data.)
#NPOINTS     : 4096     Number of data points in the spectrum (This can be zero for configuration only files)
#NCOLUMNS    : 2     Number of data columns in the spectrum (This can be zero for configuration only files)
#XUNITS      : eV
#YUNITS      : COUNTS
#DATATYPE    : YY
#XPERCHAN    : 7.862, 7.881   eV per channel (separate by commas if more than one detector)
#OFFSET      : 18.5, -22.4         eV of first channel  (separate by commas if more than one detector
#SIGNALTYPE  : XRF
#YP_TEMP     : 0.92
#LIVETIME    : 8.81698, 8.81465   seconds (separate by commas if more than one detector)
#REALTIME    : 10, 10.0   seconds (separate by commas if more than one detector)
#SPECTRUM    : start of spectrum data
0, 0
0, 0
0, 0
0, 0
0, 0
0, 0
0, 0
0, 0
3, 1
4, 4
1, 5
9, 6
22, 12
15, 12
41, 51
107, 131
480, 534
123, 123
23, 32
28, 27
60, 62
357, 330
118, 149
74, 70
202, 200
112, 98
62, 64
25, 30
12, 7
5, 8
20, 37
16, 19
15, 28
182, 222
333, 334
54, 58
45, 48
48, 41
12, 11
9, 4
19, 32
65, 57
31, 35
12, 13
14, 14
14, 15
6, 16
2, 9
13, 17
30, 29
28, 18
10, 8
18, 4
38, 25
44, 47
24, 17
32, 43
411, 482
1657, 1850
1103, 977
130, 96
25, 14
21, 24
73, 90
281, 282
185, 157
28, 22
6, 9
6, 14
6, 12
10, 4
6, 6
4, 9
10, 7
7, 8
6, 2
8, 8
8, 10
8, 17
10, 15
8, 6
8, 5
7, 7
6, 4
6, 5
8, 3
7, 7
9, 2
7, 13
6, 5
5, 5
2, 3
7, 5
1, 4
4, 9
4, 5
7, 4
3, 5
2, 2
2, 7
5, 5
2, 3
2, 3
6, 4
2, 3
4, 3
1, 1
2, 1
4, 2
3, 1
1, 0
2, 1
3, 4
1, 2
1, 3
4, 4
3, 4
3, 1
1, 2
2, 0
2, 1
5, 2
1, 1
3, 1
1, 2
0, 3
2, 2
1, 1
1, 1
1, 1
2, 0
1, 2
1, 0
1, 2
0, 1
1, 2
1, 3
1, 0
2, 1
0, 0
0, 0
0, 0
0, 2
0, 1
0, 0
0, 1
3, 1
0, 0
1, 1
1, 0
0, 0
0, 1
0, 1
0, 1
0, 0
0, 0
0, 0
0, 1
1, 0
1, 0
0, 0
0, 0
0, 0
1, 0
0, 0
0, 0
0, 0
0, 1
0, 0
0, 1
0, 0
0, 1
1, 0
0, 0
1, 0
0, 0
0, 0
0, 0
1, 0
0, 0
0, 0
0, 0
1, 1
0, 0
0, 0
0, 0
0, 0
0, 0
0, 0
0, 0
0, 0
0, 0
0, 0
0, 0
0, 0
0, 0
0, 0
0, 0
0, 0
0, 0
0, 0
0, 0
0, 0
1, 0
0, 0
0, 1
0, 0
0, 0
0, 0
0, 0
0, 0
0, 0
0, 0
0, 0
0, 0
0, 0
0, 0
0, 0
0, 0
0, 0
0, 0
0, 0
0, 0
0, 0
0, 0
0, 0
0, 0
0, 0
0, 0
0, 0
0, 0
0, 0
0, 0
0, 0
0, 0
0, 0
0, 0
0, 0
0, 0
0, 0
0, 0
0, 0
0, 0
0, 0
0, 0
0, 0
0, 0
0, 0
0, 0
0, 0
0, 0
0, 0
0, 0
0, 0
0, 0
0, 0
0, 0
0, 0
0, 0
0, 0
0, 0
0, 0
0, 0
0, 0
0, 0
0, 0
0, 0
0, 0
0, 0
0, 0
0, 0
0, 0
0, 0
0, 0
0, 0
0, 0
0, 0
0, 0
0, 0
0, 0
0, 0
0, 0
0, 0
0, 0
0, 0
0, 0
0, 0
0, 0
0, 0
0, 0
0, 0
0, 0
0, 0
0, 0
#ENDOFDATA     end of spectrum data

File: ps__0567_0717304816_000rfs_shot_247.msa
#FORMAT      : EMSA/MAS spectral data file
#VERSION     : TC202v2.0 PIXL
#TITLE       : Novarupta (sol567) subset1
#DATE        : 02-11-2024      Date in the format DD-MMM-YYYY, for example 07-JUL-2010
#TIME        :             The time of day at which the spectrum was recorded, in 24-hour format
#OWNER       : PIXL Flight Model       (PIXL will use this to indicate which instrument took the data.)
#NPOINTS     : 4096     Number of data points in the spectrum (This can be zero for configuration only files)
#NCOLUMNS    : 2     Number of data columns in the spectrum (This can be zero for configuration only files)
#XUNITS      : eV
#YUNITS      : COUNTS
#DATATYPE    : YY
#XPERCHAN    : 7.862, 7.881   eV per channel (separate by commas if more than one detector)
#OFFSET      : 18.5, -22.4         eV of first channel  (separate by commas if more than one detector
#SIGNALTYPE  : XRF
#YP_TEMP     : 1.081
#LIVETIME    : 8.82581, 8.63057   seconds (separate by commas if more than one detector)
#REALTIME    : 10, 10.0   seconds (separate by commas if more than one detector)
#SPECTRUM    : start of spectrum data
0, 0
0, 0
0, 0
0, 0
0, 0
0, 0
0, 0
0, 1
3, 2
1, 2
3, 5
17, 14
8, 21
20, 19
45, 36
83, 115
475, 487
138, 101
35, 43
28, 14
80, 83
442, 424
145, 177
74, 85
221, 243
113, 121
62, 67
27, 21
15, 4
3, 9
31, 42
21, 20
27, 25
248, 246
367, 349
49, 62
38, 44
45, 50
16, 20
9, 8
28, 26
57, 72
35, 33
14, 18
5, 21
13, 24
14, 10
7, 8
22, 18
26, 31
30, 22
13, 11
10, 9
29, 30
36, 54
14, 26
25, 28
380, 478
1656, 1749
1060, 908
129, 97
20, 10
25, 16
83, 119
252, 287
157, 117
18, 14
9, 12
12, 8
11, 8
4, 5
9, 3
6, 7
9, 3
8, 4
7, 8
7, 7
5, 11
7, 10
11, 9
5, 4
5, 8
3, 8
4, 5
8, 3
4, 5
3, 11
6, 6
1, 2
4, 2
6, 3
6, 4
3, 2
1, 8
6, 2
3, 3
6, 5
4, 3
1, 1
6, 2
0, 3
4, 7
5, 4
2, 2
2, 3
1, 1
3, 1
1, 0
5, 2
1, 2
1, 3
1, 2
3, 1
4, 6
2, 0
4, 2
4, 3
2, 2
1, 4
1, 0
2, 2
1, 2
5, 2
3, 0
1, 0
2, 0
0, 2
1, 1
3, 0
1, 1
1, 1
1, 0
1, 0
1, 1
2, 0
1, 1
1, 0
1, 0
0, 0
0, 1
0, 1
1, 0
1, 0
1, 2
0, 1
0, 1
1, 0
0, 0
0, 0
0, 0
0, 0
0, 0
1, 1
0, 0
0, 1
0, 0
0, 0
1, 1
0, 0
0, 1
0, 0
0, 0
1, 0
0, 0
0, 0
0, 0
0, 0
2, 0
0, 0
0, 0
0, 0
0, 0
1, 0
0, 0
0, 0
0, 0
1, 0
0, 1
0, 0
0, 0
0, 1
0, 0
0, 0
0, 0
0, 1
0, 0
0, 0
0, 0
0, 0
0, 0
0, 0
0, 0
0, 0
1, 0
0, 0
0, 0
1, 0
0, 0
0, 0
0, 0
0, 0
0, 0
0, 0
0, 0
0, 0
0, 0
0, 0
0, 0
0, 0
0, 0
0, 0
0, 0
0, 0
0, 0
0, 0
0, 0
0, 0
0, 0
0, 0
0, 0
0, 0
0, 0
0, 0
0, 0
0, 0
0, 0
0, 0
0, 0
0, 0
0, 0
0, 0
0, 0
0, 0
0, 0
0, 0
0, 0
0, 0
0, 0
0, 0
0, 0
0, 0
0, 0
0, 0
0, 0
0, 0
0, 0
0, 0
0, 0
0, 0
0, 0
0, 0
0, 0
0, 0
0, 0
0, 0
0, 0
0, 0
0, 0
0, 0
0, 0
0, 0
0, 0
0, 0
0, 0
0, 0
0, 0
0, 0
0, 0
0, 0
0, 0
0, 0
0, 0
0, 0
0, 0
0, 0
0, 0
0, 0
0, 0
0, 0
0, 0
0, 0
0, 0
0, 0
0, 0
0, 0
0, 0
0, 0
0, 0
0, 0
0, 0
0, 0
0, 0
0, 0
0, 0
#ENDOFDATA     end of spectrum data

File: ps__0567_0717304816_000rfs_shot_248.msa
#FORMAT      : EMSA/MAS spectral data file
#VERSION     : TC202v2.0 PIXL
#TITLE       : Novarupta (sol567) subset1
#DATE        : 02-11-2024      Date in the format DD-MMM-YYYY, for example 07-JUL-2010
#TIME        :             The time of day at which the spectrum was recorded, in 24-hour format
#OWNER       : PIXL Flight Model       (PIXL will use this to indicate which instrument took the data.)
#NPOINTS     : 4096     Number of data points in the spectrum (This can be zero for configuration only files)
#NCOLUMNS    : 2     Number of data columns in the spectrum (This can be zero for configuration only files)
#XUNITS      : eV
#YUNITS      : COUNTS
#DATATYPE    : YY
#XPERCHAN    : 7.862, 7.881   eV per channel (separate by commas if more than one detector)
#OFFSET      : 18.5, -22.4         eV of first channel  (separate by commas if more than one detector
#SIGNALTYPE  : XRF
#YP_TEMP     : 1.081
#LIVETIME    : 8.8225, 8.83047   seconds (separate by commas if more than one detector)
#REALTIME    : 10, 10.0   seconds (separate by commas if more than one detector)
#SPECTRUM    : start of spectrum data
0, 0
0, 0
0, 0
0, 0
0, 0
0, 0
0, 0
0, 2
1, 3
4, 1
2, 1
10, 7
6, 17
17, 15
57, 44
127, 133
498, 497
117, 95
29, 31
20, 17
51, 64
286, 307
124, 112
67, 73
192, 244
129, 132
80, 73
27, 25
7, 4
7, 10
42, 36
22, 21
21, 22
190, 225
319, 342
53, 42
35, 41
47, 48
12, 15
8, 9
14, 21
65, 70
33, 28
13, 14
12, 15
11, 21
12, 19
13, 9
12, 15
25, 40
23, 13
11, 14
13, 16
26, 33
36, 33
20, 29
33, 34
444, 471
1764, 1766
1138, 942
156, 91
17, 19
19, 21
109, 90
251, 311
160, 133
26, 22
9, 12
13, 12
4, 12
2, 8
7, 9
7, 4
4, 11
4, 10
10, 9
3, 5
5, 7
5, 12
11, 9
6, 8
1, 4
5, 7
8, 4
6, 3
9, 7
3, 7
10, 5
8, 8
6, 8
6, 4
5, 3
2, 7
5, 3
3, 6
8, 4
2, 2
6, 5
4, 3
2, 2
3, 2
4, 2
1, 1
5, 3
3, 5
3, 2
0, 4
2, 5
4, 0
1, 2
2, 0
4, 0
2, 4
2, 0
2, 1
5, 2
1, 4
3, 2
1, 0
3, 0
0, 1
0, 3
1, 2
1, 3
2, 2
1, 0
0, 0
0, 2
1, 1
1, 0
1, 3
1, 0
1, 1
1, 1
0, 1
0, 2
0, 0
0, 0
0, 1
0, 0
0, 0
0, 0
1, 0
1, 1
0, 1
1, 0
0, 0
2, 0
0, 0
2, 0
0, 0
0, 0
0, 1
1, 0
0, 0
0, 0
0, 0
0, 0
0, 0
1, 1
0, 0
0, 2
2, 0
0, 0
0, 0
0, 0
0, 0
0, 1
0, 0
0, 0
1, 0
1, 0
0, 0
0, 0
0, 1
0, 0
0, 0
0, 0
0, 0
0, 0
0, 0
0, 0
0, 0
1, 0
0, 0
0, 0
0, 0
0, 0
0, 0
0, 0
0, 0
0, 0
0, 0
0, 0
0, 0
0, 1
0, 0
0, 0
1, 0
0, 0
0, 0
0, 0
0, 0
0, 0
0, 0
0, 0
0, 0
0, 0
0, 0
0, 0
0, 0
0, 0
0, 0
0, 0
0, 0
0, 0
0, 0
1, 0
0, 0
0, 0
0, 0
0, 0
0, 0
0, 0
0, 0
0, 0
0, 0
0, 0
0, 0
0, 0
0, 0
0, 0
0, 0
0, 0
0, 0
0, 0
0, 0
0, 0
0, 0
0, 0
0, 0
0, 0
0, 0
0, 0
0, 0
0, 0
0, 0
0, 0
0, 0
0, 0
0, 0
0, 0
0, 0
0, 0
0, 0
0, 0
0, 0
0, 0
0, 0
0, 0
0, 0
0, 0
0, 0
0, 0
0, 0
0, 0
0, 0
0, 0
0, 0
0, 0
0, 0
0, 0
0, 0
0, 0
0, 0
0, 0
0, 0
0, 0
0, 0
0, 0
0, 0
0, 0
0, 0
0, 0
0, 0
0, 0
0, 0
0, 0
0, 0
0, 0
0, 0
0, 0
0, 0
0, 0
#ENDOFDATA     end of spectrum data

File: ps__0567_0717304816_000rfs_shot_252.msa
#FORMAT      : EMSA/MAS spectral data file
#VERSION     : TC202v2.0 PIXL
#TITLE       : Novarupta (sol567) subset1
#DATE        : 02-11-2024      Date in the format DD-MMM-YYYY, for example 07-JUL-2010
#TIME        :             The time of day at which the spectrum was recorded, in 24-hour format
#OWNER       : PIXL Flight Model       (PIXL will use this to indicate which instrument took the data.)
#NPOINTS     : 4096     Number of data points in the spectrum (This can be zero for configuration only files)
#NCOLUMNS    : 2     Number of data columns in the spectrum (This can be zero for configuration only files)
#XUNITS      : eV
#YUNITS      : COUNTS
#DATATYPE    : YY
#XPERCHAN    : 7.862, 7.881   eV per channel (separate by commas if more than one detector)
#OFFSET      : 18.5, -22.4         eV of first channel  (separate by commas if more than one detector
#SIGNALTYPE  : XRF
#YP_TEMP     : 1.177
#LIVETIME    : 8.82313, 8.82171   seconds (separate by commas if more than one detector)
#REALTIME    : 10, 10.0   seconds (separate by commas if more than one detector)
#SPECTRUM    : start of spectrum data
0, 0
0, 0
0, 0
0, 0
0, 0
0, 0
0, 0
0, 1
7, 1
4, 1
4, 3
8, 14
16, 11
24, 19
33, 42
99, 117
528, 553
134, 107
34, 37
23, 23
50, 40
257, 305
127, 114
69, 66
238, 225
108, 134
72, 66
25, 29
11, 0
9, 12
22, 26
18, 14
12, 26
195, 229
340, 309
57, 56
37, 49
65, 56
17, 10
13, 7
26, 20
81, 64
29, 32
16, 14
16, 15
25, 15
12, 15
8, 12
16, 13
21, 36
31, 33
9, 8
8, 10
24, 37
48, 58
17, 23
33, 34
370, 509
1641, 1795
1093, 1007
126, 95
13, 17
24, 16
75, 122
243, 275
176, 176
21, 23
10, 14
12, 15
6, 5
4, 3
8, 7
7, 4
4, 8
10, 7
8, 10
3, 13
4, 5
13, 9
6, 11
4, 7
4, 5
5, 6
3, 8
4, 5
5, 5
2, 4
3, 7
6, 5
5, 1
5, 8
6, 7
5, 3
4, 3
3, 4
3, 1
3, 8
7, 5
6, 6
3, 2
2, 4
4, 2
4, 4
5, 1
1, 0
5, 0
5, 3
3, 1
1, 1
1, 2
4, 0
1, 2
1, 0
2, 3
2, 4
2, 3
1, 2
5, 4
2, 1
3, 2
0, 1
1, 3
0, 2
0, 1
1, 0
2, 0
2, 2
0, 4
1, 2
0, 1
0, 0
2, 0
0, 1
1, 1
1, 0
2, 0
0, 0
0, 0
2, 3
3, 0
4, 0
1, 2
0, 1
0, 0
0, 0
1, 1
0, 1
1, 0
1, 0
0, 0
0, 1
0, 0
0, 0
0, 1
0, 0
0, 0
1, 0
0, 0
1, 0
1, 0
0, 0
0, 1
2, 0
0, 0
0, 0
0, 0
0, 0
0, 0
0, 1
0, 1
2, 0
0, 0
0, 1
1, 0
1, 1
1, 0
0, 0
0, 0
1, 0
0, 0
0, 0
0, 1
1, 0
0, 0
0, 0
0, 1
0, 0
0, 0
0, 0
0, 0
0, 0
1, 0
0, 0
0, 0
0, 0
0, 1
0, 0
0, 0
0, 0
0, 1
0, 0
0, 0
0, 0
0, 0
0, 0
0, 0
0, 0
0, 0
0, 0
0, 0
0, 0
0, 0
1, 0
0, 0
0, 0
0, 0
0, 0
0, 0
0, 0
0, 0
0, 0
0, 0
0, 0
0, 0
0, 0
0, 0
0, 0
0, 0
0, 0
0, 0
0, 0
0, 0
0, 0
0, 0
0, 0
0, 0
0, 0
0, 0
0, 0
0, 0
0, 0
0, 0
0, 0
0, 0
0, 0
0, 0
0, 0
0, 0
0, 0
0, 0
0, 0
0, 0
0, 0
0, 0
0, 0
0, 0
0, 0
0, 0
0, 0
0, 0
0, 0
0, 0
0, 0
0, 0
0, 0
0, 0
0, 0
0, 0
0, 0
0, 0
0, 0
0, 0
0, 0
0, 0
0, 0
0, 0
0, 0
0, 0
0, 0
0, 0
0, 0
0, 0
0, 0
0, 0
0, 0
0, 0
0, 0
0, 0
0, 0
0, 0
0, 0
0, 0
0, 0
0, 0
#ENDOFDATA     end of spectrum data

File: ps__0567_0717304816_000rfs_shot_253.msa
#FORMAT      : EMSA/MAS spectral data file
#VERSION     : TC202v2.0 PIXL
#TITLE       : Novarupta (sol567) subset1
#DATE        : 02-11-2024      Date in the format DD-MMM-YYYY, for example 07-JUL-2010
#TIME        :             The time of day at which the spectrum was recorded, in 24-hour format
#OWNER       : PIXL Flight Model       (PIXL will use this to indicate which instrument took the data.)
#NPOINTS     : 4096     Number of data points in the spectrum (This can be zero for configuration only files)
#NCOLUMNS    : 2     Number of data columns in the spectrum (This can be zero for configuration only files)
#XUNITS      : eV
#YUNITS      : COUNTS
#DATATYPE    : YY
#XPERCHAN    : 7.862, 7.881   eV per channel (separate by commas if more than one detector)
#OFFSET      : 18.5, -22.4         eV of first channel  (separate by commas if more than one detector
#SIGNALTYPE  : XRF
#YP_TEMP     : 1.113
#LIVETIME    : 8.8252, 8.81159   seconds (separate by commas if more than one detector)
#REALTIME    : 10, 10.0   seconds (separate by commas if more than one detector)
#SPECTRUM    : start of spectrum data
0, 0
0, 0
0, 0
0, 0
0, 0
0, 0
0, 0
1, 1
4, 9
4, 1
4, 2
8, 11
15, 18
25, 22
43, 37
123, 126
477, 514
118, 136
37, 40
22, 21
57, 74
299, 304
118, 122
76, 98
206, 265
110, 98
64, 73
24, 27
6, 9
9, 9
21, 34
21, 20
19, 20
229, 241
331, 369
54, 42
33, 64
40, 61
10, 10
16, 6
17, 24
53, 58
48, 46
19, 13
18, 14
23, 24
18, 17
8, 11
9, 14
23, 32
20, 33
13, 8
12, 26
28, 53
47, 53
27, 23
30, 42
366, 474
1624, 1710
1023, 1015
117, 106
16, 24
25, 15
93, 100
248, 276
170, 145
23, 9
10, 13
17, 17
12, 9
11, 6
6, 7
7, 5
5, 2
10, 5
9, 10
3, 7
7, 2
4, 7
7, 5
7, 9
7, 6
6, 6
4, 10
3, 7
4, 1
3, 6
4, 5
5, 4
3, 4
4, 7
5, 7
5, 5
3, 4
3, 5
3, 6
1, 1
6, 3
1, 4
4, 6
2, 1
1, 3
1, 2
3, 4
3, 4
3, 5
1, 2
1, 1
0, 2
1, 1
4, 3
2, 3
1, 5
4, 1
1, 0
2, 2
1, 2
1, 3
1, 0
0, 1
1, 2
1, 0
1, 0
0, 1
4, 1
0, 2
1, 1
2, 0
1, 3
2, 1
0, 1
1, 0
0, 1
0, 0
1, 1
0, 2
0, 0
1, 0
0, 1
1, 1
0, 1
0, 0
2, 2
2, 0
0, 0
0, 1
0, 1
0, 0
0, 0
0, 1
0, 0
1, 1
2, 0
0, 1
0, 0
0, 0
1, 0
0, 0
0, 0
0, 0
2, 0
0, 0
0, 0
0, 0
0, 0
0, 0
1, 0
0, 0
0, 0
0, 0
0, 0
1, 0
0, 0
0, 0
1, 0
0, 1
0, 0
0, 0
0, 0
0, 1
0, 0
0, 0
1, 0
0, 0
0, 0
1, 0
0, 0
0, 0
0, 0
0, 0
0, 0
1, 1
0, 0
0, 0
0, 0
0, 0
0, 0
0, 0
0, 0
0, 0
0, 0
0, 0
0, 0
0, 0
0, 0
0, 0
0, 0
1, 0
0, 0
0, 1
0, 0
0, 0
0, 0
0, 0
0, 0
0, 0
0, 0
0, 0
0, 0
0, 0
0, 0
0, 0
0, 0
0, 0
0, 0
0, 0
0, 0
0, 0
0, 0
0, 0
0, 0
0, 0
0, 0
0, 0
0, 0
0, 0
0, 0
0, 0
0, 0
0, 0
0, 0
0, 0
0, 0
0, 0
0, 0
0, 0
0, 0
0, 0
0, 0
0, 0
0, 0
0, 0
0, 0
0, 0
0, 0
0, 0
0, 0
0, 0
0, 0
0, 0
0, 0
0, 0
0, 0
0, 0
0, 0
0, 0
0, 0
0, 0
0, 0
0, 0
0, 0
0, 0
0, 0
0, 0
0, 0
0, 0
0, 0
0, 0
0, 0
0, 0
0, 0
0, 0
0, 0
0, 0
0, 0
0, 0
0, 0
0, 0
0, 0
0, 0
0, 0
0, 0
0, 0
0, 0
#ENDOFDATA     end of spectrum data

File: ps__0567_0717304816_000rfs_shot_257.msa
#FORMAT      : EMSA/MAS spectral data file
#VERSION     : TC202v2.0 PIXL
#TITLE       : Novarupta (sol567) subset1
#DATE        : 02-11-2024      Date in the format DD-MMM-YYYY, for example 07-JUL-2010
#TIME        :             The time of day at which the spectrum was recorded, in 24-hour format
#OWNER       : PIXL Flight Model       (PIXL will use this to indicate which instrument took the data.)
#NPOINTS     : 4096     Number of data points in the spectrum (This can be zero for configuration only files)
#NCOLUMNS    : 2     Number of data columns in the spectrum (This can be zero for configuration only files)
#XUNITS      : eV
#YUNITS      : COUNTS
#DATATYPE    : YY
#XPERCHAN    : 7.862, 7.881   eV per channel (separate by commas if more than one detector)
#OFFSET      : 18.5, -22.4         eV of first channel  (separate by commas if more than one detector
#SIGNALTYPE  : XRF
#YP_TEMP     : 1.177
#LIVETIME    : 8.82972, 8.64149   seconds (separate by commas if more than one detector)
#REALTIME    : 10, 10.0   seconds (separate by commas if more than one detector)
#SPECTRUM    : start of spectrum data
0, 0
0, 0
0, 0
0, 0
0, 0
0, 0
0, 0
0, 0
2, 1
6, 3
2, 2
7, 9
16, 11
27, 22
34, 44
92, 122
479, 535
114, 131
30, 40
22, 33
57, 56
269, 303
115, 116
70, 92
215, 259
103, 118
72, 72
21, 41
12, 11
9, 10
29, 28
18, 22
18, 17
186, 249
332, 370
56, 60
42, 54
43, 53
12, 10
5, 10
18, 35
57, 78
31, 31
11, 25
19, 17
20, 14
14, 11
8, 13
12, 18
29, 42
23, 27
9, 9
10, 17
30, 36
49, 52
10, 24
24, 38
395, 467
1608, 1909
1016, 1020
99, 105
21, 10
20, 20
73, 109
269, 282
175, 140
26, 17
10, 14
9, 18
10, 12
10, 4
6, 5
9, 8
7, 6
11, 5
5, 2
2, 4
9, 6
13, 9
16, 15
6, 8
3, 8
3, 5
8, 4
4, 5
4, 10
3, 5
3, 10
1, 8
3, 3
5, 1
6, 5
4, 7
2, 3
4, 9
4, 4
4, 2
3, 5
2, 3
1, 3
4, 3
3, 4
3, 5
4, 4
2, 8
2, 0
1, 4
3, 2
3, 2
3, 3
4, 2
0, 1
1, 2
1, 5
1, 2
2, 4
5, 2
1, 0
4, 7
1, 0
1, 4
0, 2
1, 0
0, 1
1, 0
3, 3
1, 1
3, 0
2, 1
0, 3
0, 0
2, 2
0, 1
0, 1
1, 0
0, 1
1, 0
1, 0
2, 0
0, 0
0, 0
0, 0
0, 0
0, 0
1, 0
0, 1
0, 0
0, 1
0, 0
0, 1
3, 0
0, 1
0, 2
0, 1
0, 0
0, 1
0, 0
1, 0
0, 0
0, 0
0, 0
2, 0
0, 0
0, 1
1, 0
1, 0
0, 1
1, 0
0, 0
0, 0
0, 0
0, 1
0, 2
0, 0
0, 0
0, 0
0, 0
0, 0
0, 1
0, 2
0, 0
1, 0
0, 0
0, 0
0, 0
1, 0
0, 0
1, 0
0, 0
0, 0
0, 0
1, 1
1, 0
0, 0
0, 0
0, 0
0, 0
0, 0
0, 0
0, 0
0, 0
0, 1
0, 0
0, 0
0, 0
0, 0
0, 0
0, 0
0, 0
0, 0
0, 0
0, 0
0, 0
0, 0
0, 0
0, 0
0, 0
0, 0
0, 0
0, 0
0, 0
0, 0
0, 0
0, 0
0, 0
0, 0
0, 0
0, 0
0, 0
0, 0
0, 0
0, 0
0, 0
0, 0
0, 0
0, 0
0, 0
0, 0
0, 0
0, 0
0, 0
0, 0
0, 0
0, 0
0, 0
0, 0
0, 0
0, 0
0, 0
0, 0
0, 0
0, 0
0, 0
0, 0
0, 0
0, 0
0, 0
0, 0
0, 0
0, 0
0, 0
0, 0
0, 0
0, 0
0, 0
0, 0
0, 0
0, 0
0, 0
0, 0
0, 0
0, 0
0, 0
0, 0
0, 0
0, 0
0, 0
0, 0
0, 0
0, 0
0, 0
0, 0
0, 0
0, 0
0, 0
0, 0
0, 0
0, 0
0, 0
0, 0
0, 0
0, 0
0, 0
0, 0
#ENDOFDATA     end of spectrum data

File: ps__0567_0717304816_000rfs_shot_259.msa
#FORMAT      : EMSA/MAS spectral data file
#VERSION     : TC202v2.0 PIXL
#TITLE       : Novarupta (sol567) subset1
#DATE        : 02-11-2024      Date in the format DD-MMM-YYYY, for example 07-JUL-2010
#TIME        :             The time of day at which the spectrum was recorded, in 24-hour format
#OWNER       : PIXL Flight Model       (PIXL will use this to indicate which instrument took the data.)
#NPOINTS     : 4096     Number of data points in the spectrum (This can be zero for configuration only files)
#NCOLUMNS    : 2     Number of data columns in the spectrum (This can be zero for configuration only files)
#XUNITS      : eV
#YUNITS      : COUNTS
#DATATYPE    : YY
#XPERCHAN    : 7.862, 7.881   eV per channel (separate by commas if more than one detector)
#OFFSET      : 18.5, -22.4         eV of first channel  (separate by commas if more than one detector
#SIGNALTYPE  : XRF
#YP_TEMP     : 1.209
#LIVETIME    : 8.83193, 8.82021   seconds (separate by commas if more than one detector)
#REALTIME    : 10, 10.0   seconds (separate by commas if more than one detector)
#SPECTRUM    : start of spectrum data
0, 0
0, 0
0, 0
0, 0
0, 0
0, 0
0, 0
0, 0
6, 2
2, 2
2, 2
5, 10
12, 11
19, 27
42, 49
94, 130
554, 533
136, 121
34, 40
24, 21
56, 56
331, 292
108, 101
79, 86
243, 245
133, 119
57, 67
22, 29
6, 13
10, 8
26, 19
10, 13
21, 30
218, 210
345, 338
47, 50
40, 40
45, 57
11, 17
3, 11
23, 22
65, 69
28, 32
17, 12
23, 13
23, 21
13, 14
15, 11
16, 21
32, 26
31, 23
17, 14
12, 14
52, 39
54, 59
19, 25
44, 36
387, 468
1604, 1748
1084, 1053
136, 108
11, 18
17, 14
99, 100
278, 245
155, 144
33, 15
16, 10
10, 11
12, 8
7, 6
4, 5
4, 2
8, 5
10, 9
5, 6
5, 5
9, 6
7, 8
7, 12
5, 3
6, 5
2, 3
3, 7
3, 7
8, 5
3, 6
3, 4
6, 2
5, 5
3, 8
3, 3
4, 2
4, 4
4, 4
6, 5
3, 1
2, 4
0, 3
3, 4
4, 3
6, 3
3, 1
1, 2
3, 3
2, 2
2, 4
1, 2
0, 2
2, 2
1, 4
1, 1
6, 1
3, 2
2, 3
1, 1
3, 6
2, 1
2, 0
0, 1
4, 3
1, 3
2, 1
1, 1
0, 1
5, 1
3, 1
1, 0
2, 0
1, 1
0, 0
0, 1
1, 3
0, 1
0, 0
0, 3
0, 0
1, 2
0, 0
0, 2
0, 0
1, 1
0, 0
1, 1
1, 1
0, 0
1, 1
0, 1
2, 1
0, 0
0, 0
0, 1
0, 0
0, 1
0, 0
1, 1
0, 1
0, 1
0, 0
0, 0
1, 0
0, 0
0, 0
0, 0
0, 0
0, 0
1, 1
0, 0
0, 1
0, 0
1, 0
0, 0
1, 1
0, 0
0, 0
0, 0
0, 1
0, 0
1, 0
0, 1
1, 0
0, 0
0, 0
0, 0
0, 0
0, 0
0, 0
0, 0
0, 1
0, 0
0, 0
0, 0
0, 0
0, 0
0, 0
0, 0
0, 0
0, 0
0, 0
0, 0
0, 0
0, 0
0, 0
0, 0
0, 0
0, 0
0, 0
0, 0
0, 0
0, 0
0, 0
0, 0
0, 1
0, 0
0, 0
0, 0
0, 0
0, 0
0, 0
0, 0
0, 0
0, 0
0, 0
0, 0
0, 0
0, 0
0, 0
0, 0
0, 0
0, 0
0, 0
0, 0
0, 0
0, 0
0, 0
0, 0
0, 0
0, 0
0, 0
0, 0
0, 0
0, 0
0, 0
0, 0
0, 0
0, 0
0, 0
0, 0
0, 0
0, 0
0, 0
0, 0
0, 0
0, 0
0, 0
0, 0
0, 0
0, 0
0, 0
0, 0
0, 0
0, 0
0, 0
0, 0
0, 0
0, 0
0, 0
0, 0
0, 0
0, 0
0, 0
0, 0
0, 0
0, 0
0, 0
0, 0
0, 0
0, 0
0, 0
0, 0
0, 0
0, 0
0, 0
0, 0
0, 0
0, 0
0, 0
0, 0
0, 0
0, 0
0, 0
0, 0
0, 0
0, 0
#ENDOFDATA     end of spectrum data

File: ps__0567_0717304816_000rfs_shot_260.msa
#FORMAT      : EMSA/MAS spectral data file
#VERSION     : TC202v2.0 PIXL
#TITLE       : Novarupta (sol567) subset1
#DATE        : 02-11-2024      Date in the format DD-MMM-YYYY, for example 07-JUL-2010
#TIME        :             The time of day at which the spectrum was recorded, in 24-hour format
#OWNER       : PIXL Flight Model       (PIXL will use this to indicate which instrument took the data.)
#NPOINTS     : 4096     Number of data points in the spectrum (This can be zero for configuration only files)
#NCOLUMNS    : 2     Number of data columns in the spectrum (This can be zero for configuration only files)
#XUNITS      : eV
#YUNITS      : COUNTS
#DATATYPE    : YY
#XPERCHAN    : 7.862, 7.881   eV per channel (separate by commas if more than one detector)
#OFFSET      : 18.5, -22.4         eV of first channel  (separate by commas if more than one detector
#SIGNALTYPE  : XRF
#YP_TEMP     : 1.049
#LIVETIME    : 8.84021, 8.81759   seconds (separate by commas if more than one detector)
#REALTIME    : 10, 10.0   seconds (separate by commas if more than one detector)
#SPECTRUM    : start of spectrum data
0, 0
0, 0
0, 0
0, 0
0, 0
0, 0
0, 0
0, 0
2, 2
6, 1
6, 6
10, 16
13, 15
24, 23
40, 46
105, 130
461, 538
119, 117
30, 29
21, 24
48, 60
274, 310
91, 125
78, 79
215, 217
107, 101
57, 76
23, 22
5, 2
9, 3
26, 31
18, 19
22, 16
198, 247
291, 301
56, 33
30, 45
34, 49
10, 21
7, 10
25, 20
68, 76
31, 27
17, 17
17, 15
17, 19
13, 26
12, 11
12, 12
24, 24
22, 23
10, 15
5, 13
35, 37
51, 58
22, 21
34, 35
360, 487
1653, 1874
1077, 1000
127, 100
14, 16
22, 27
76, 98
231, 259
148, 165
21, 14
6, 5
5, 13
10, 10
4, 4
7, 3
3, 7
10, 3
2, 7
11, 9
6, 8
10, 9
15, 11
13, 17
4, 6
8, 7
4, 6
8, 6
3, 5
4, 12
9, 7
4, 5
7, 5
5, 5
0, 6
3, 6
2, 4
8, 3
4, 3
4, 3
5, 3
5, 4
3, 1
3, 1
3, 6
0, 0
4, 3
3, 4
2, 4
2, 2
3, 0
3, 4
2, 4
0, 2
2, 1
1, 1
2, 2
1, 3
1, 2
0, 4
3, 2
2, 3
4, 2
5, 0
4, 4
1, 2
2, 2
2, 0
3, 1
0, 1
1, 0
3, 1
0, 0
0, 0
1, 2
0, 0
1, 0
1, 1
0, 1
0, 1
3, 0
0, 0
2, 1
1, 1
0, 1
0, 0
0, 0
2, 0
0, 0
0, 2
0, 1
0, 0
0, 2
0, 0
1, 0
2, 0
0, 2
0, 0
0, 1
0, 0
0, 0
1, 1
0, 0
0, 2
0, 0
0, 1
1, 1
0, 0
0, 0
0, 0
0, 0
1, 0
0, 0
0, 0
0, 1
0, 1
0, 0
0, 0
0, 0
0, 0
0, 0
0, 1
0, 0
0, 0
0, 1
0, 1
1, 0
0, 0
1, 0
0, 0
0, 0
0, 0
0, 0
0, 0
0, 0
0, 0
0, 0
0, 0
0, 0
0, 0
0, 0
0, 0
0, 0
0, 0
0, 0
0, 0
0, 1
0, 0
0, 0
0, 0
0, 0
0, 0
0, 0
0, 0
0, 0
0, 0
0, 0
0, 0
0, 0
0, 0
0, 0
0, 0
0, 0
0, 0
0, 0
0, 0
0, 0
0, 0
0, 0
0, 0
0, 0
0, 0
0, 0
0, 0
0, 0
0, 0
0, 0
0, 0
0, 0
0, 0
0, 0
0, 0
0, 0
0, 0
0, 0
0, 0
0, 0
0, 1
0, 0
0, 0
0, 0
0, 0
0, 0
0, 0
0, 0
0, 0
0, 0
0, 0
0, 0
0, 0
0, 0
0, 0
0, 0
0, 0
0, 0
0, 0
0, 0
0, 0
0, 0
0, 0
0, 0
0, 0
0, 0
0, 0
0, 0
0, 0
0, 0
0, 0
0, 0
0, 0
0, 0
0, 0
0, 0
0, 0
0, 0
0, 0
0, 0
0, 0
0, 0
0, 0
0, 0
0, 0
0, 0
0, 0
0, 0
0, 0
0, 0
0, 0
#ENDOFDATA     end of spectrum data