Folder: data-repository/host_upload/02-11-2024/rqc/uplink1 (part 23)

File: ps__0567_0717304816_000rfs_shot_378.msa
#FORMAT      : EMSA/MAS spectral data file
#VERSION     : TC202v2.0 PIXL
#TITLE       : Novarupta (sol567) subset1
#DATE        : 02-11-2024      Date in the format DD-MMM-YYYY, for example 07-JUL-2010
#TIME        :             The time of day at which the spectrum was recorded, in 24-hour format
#OWNER       : PIXL Flight Model       (PIXL will use this to indicate which instrument took the data.)
#NPOINTS     : 4096     Number of data points in the spectrum (This can be zero for configuration only files)
#NCOLUMNS    : 2     Number of data columns in the spectrum (This can be zero for configuration only files)
#XUNITS      : eV
#YUNITS      : COUNTS
#DATATYPE    : YY
#XPERCHAN    : 7.862, 7.881   eV per channel (separate by commas if more than one detector)
#OFFSET      : 18.5, -22.4         eV of first channel  (separate by commas if more than one detector
#SIGNALTYPE  : XRF
#YP_TEMP     : 1.658
#LIVETIME    : 8.8238, 8.79429   seconds (separate by commas if more than one detector)
#REALTIME    : 10, 10.0   seconds (separate by commas if more than one detector)
#SPECTRUM    : start of spectrum data
0, 0
0, 0
0, 0
0, 0
0, 0
0, 0
0, 0
1, 0
1, 5
2, 2
2, 2
9, 15
16, 9
22, 26
37, 52
107, 123
454, 537
112, 104
27, 33
23, 27
53, 76
285, 329
110, 119
64, 88
210, 238
116, 139
74, 93
29, 32
7, 8
7, 4
29, 28
13, 13
24, 20
174, 255
296, 377
66, 58
30, 42
48, 58
5, 14
9, 5
20, 21
66, 78
42, 42
17, 19
17, 18
20, 18
5, 20
11, 17
12, 14
26, 39
20, 29
10, 17
7, 8
25, 48
46, 59
23, 16
30, 29
352, 512
1573, 1949
1060, 1161
114, 128
14, 14
16, 19
86, 99
252, 291
173, 172
23, 15
18, 6
13, 15
11, 12
2, 9
4, 5
6, 3
7, 6
9, 6
4, 11
9, 6
7, 10
11, 12
6, 14
10, 5
5, 11
6, 5
8, 2
9, 5
6, 2
2, 8
6, 5
3, 6
2, 4
3, 6
8, 2
1, 4
0, 3
4, 4
4, 4
2, 1
2, 3
5, 1
1, 6
4, 2
5, 9
4, 2
0, 3
1, 4
3, 0
3, 4
3, 3
1, 3
3, 3
1, 4
1, 1
3, 2
2, 1
1, 2
0, 3
5, 8
0, 2
2, 1
3, 2
1, 2
1, 3
2, 0
0, 2
2, 0
2, 0
1, 0
3, 1
0, 0
0, 3
0, 2
2, 0
0, 1
1, 1
0, 1
0, 2
1, 1
2, 1
0, 1
0, 1
0, 0
1, 1
0, 0
0, 0
0, 1
1, 2
0, 0
1, 1
2, 1
0, 0
0, 0
1, 0
0, 0
0, 1
0, 0
0, 0
0, 0
0, 1
1, 0
0, 1
0, 0
0, 1
0, 0
1, 3
0, 0
0, 0
0, 0
1, 0
0, 1
0, 1
0, 0
1, 0
0, 0
0, 0
0, 0
0, 0
1, 0
0, 0
0, 0
0, 0
0, 0
0, 0
0, 0
1, 0
0, 0
0, 0
0, 0
0, 0
0, 0
0, 0
0, 0
0, 0
0, 0
0, 0
0, 0
0, 0
0, 0
0, 0
0, 0
0, 0
0, 0
0, 0
0, 0
0, 0
0, 0
0, 0
0, 0
0, 0
1, 0
0, 0
0, 0
0, 0
0, 0
0, 0
0, 0
0, 0
0, 0
0, 1
0, 0
0, 0
0, 0
0, 0
0, 0
0, 0
0, 0
0, 0
0, 0
0, 0
0, 0
0, 0
0, 0
0, 0
0, 0
0, 0
0, 0
0, 0
0, 0
0, 0
0, 0
0, 0
0, 0
0, 0
0, 0
0, 0
0, 0
0, 0
0, 0
0, 0
0, 0
0, 0
0, 0
0, 0
0, 0
0, 0
0, 0
0, 0
0, 0
0, 0
0, 0
0, 0
0, 0
0, 0
0, 0
0, 0
0, 0
0, 0
0, 0
0, 0
0, 0
0, 0
0, 0
0, 0
0, 0
0, 0
0, 0
0, 0
0, 0
0, 0
0, 0
0, 0
0, 0
0, 0
0, 0
0, 0
0, 0
0, 0
0, 0
0, 0
0, 0
0, 0
0, 0
0, 0
0, 0
0, 0
#ENDOFDATA     end of spectrum data

File: ps__0567_0717304816_000rfs_shot_380.msa
#FORMAT      : EMSA/MAS spectral data file
#VERSION     : TC202v2.0 PIXL
#TITLE       : Novarupta (sol567) subset1
#DATE        : 02-11-2024      Date in the format DD-MMM-YYYY, for example 07-JUL-2010
#TIME        :             The time of day at which the spectrum was recorded, in 24-hour format
#OWNER       : PIXL Flight Model       (PIXL will use this to indicate which instrument took the data.)
#NPOINTS     : 4096     Number of data points in the spectrum (This can be zero for configuration only files)
#NCOLUMNS    : 2     Number of data columns in the spectrum (This can be zero for configuration only files)
#XUNITS      : eV
#YUNITS      : COUNTS
#DATATYPE    : YY
#XPERCHAN    : 7.862, 7.881   eV per channel (separate by commas if more than one detector)
#OFFSET      : 18.5, -22.4         eV of first channel  (separate by commas if more than one detector
#SIGNALTYPE  : XRF
#YP_TEMP     : 1.883
#LIVETIME    : 8.83628, 8.81632   seconds (separate by commas if more than one detector)
#REALTIME    : 10, 10.0   seconds (separate by commas if more than one detector)
#SPECTRUM    : start of spectrum data
0, 0
0, 0
0, 0
0, 0
0, 0
0, 0
1, 0
1, 0
2, 6
5, 1
3, 1
13, 9
14, 12
19, 25
38, 46
94, 128
501, 549
118, 128
25, 41
18, 24
40, 61
283, 350
108, 140
67, 84
195, 255
104, 120
64, 70
32, 33
11, 7
16, 11
33, 24
17, 25
20, 28
195, 248
325, 416
51, 45
35, 52
56, 65
11, 13
13, 9
20, 23
53, 59
28, 27
15, 12
22, 18
19, 15
13, 7
12, 11
11, 13
25, 29
24, 26
17, 7
12, 11
29, 43
59, 60
26, 28
27, 32
335, 461
1497, 1832
1017, 1133
114, 114
16, 14
23, 25
62, 88
226, 263
162, 150
27, 21
6, 14
10, 15
11, 9
4, 6
6, 8
5, 5
5, 8
7, 12
8, 12
4, 4
8, 12
8, 10
14, 11
4, 7
4, 7
5, 5
6, 9
5, 9
7, 5
2, 3
5, 6
6, 9
4, 1
1, 2
6, 9
5, 2
3, 2
6, 5
4, 2
1, 2
4, 3
4, 4
5, 1
6, 3
5, 3
2, 5
5, 2
2, 4
1, 5
1, 5
1, 1
2, 4
2, 2
1, 2
2, 4
5, 1
1, 0
0, 3
1, 2
2, 7
4, 3
1, 0
2, 3
0, 2
1, 1
1, 1
3, 3
0, 1
2, 1
0, 1
1, 3
1, 2
0, 1
1, 1
3, 2
0, 1
1, 2
0, 0
0, 1
0, 1
1, 0
0, 2
1, 2
1, 0
1, 0
0, 1
1, 1
1, 0
0, 1
1, 2
0, 0
0, 1
0, 0
1, 1
0, 1
0, 0
1, 0
1, 0
0, 1
0, 0
0, 0
0, 0
0, 0
0, 0
2, 0
0, 0
0, 2
0, 0
0, 0
1, 1
1, 1
0, 1
0, 0
0, 1
0, 0
1, 2
1, 0
0, 0
0, 0
1, 0
0, 0
0, 0
0, 0
0, 0
0, 0
0, 0
0, 0
0, 0
0, 0
0, 1
0, 0
0, 0
0, 1
0, 0
0, 1
0, 0
0, 0
0, 0
0, 0
0, 0
0, 0
0, 1
0, 0
0, 0
0, 0
0, 1
0, 0
0, 0
0, 1
0, 0
0, 0
0, 0
0, 0
0, 0
0, 0
0, 0
1, 0
0, 0
0, 0
0, 0
0, 0
0, 0
0, 0
0, 0
0, 0
0, 0
0, 0
0, 0
0, 0
0, 0
0, 0
0, 0
0, 0
0, 0
0, 0
0, 0
0, 0
0, 0
0, 0
0, 0
0, 0
0, 0
0, 0
0, 0
0, 0
0, 0
0, 0
0, 0
0, 0
0, 0
0, 0
0, 0
0, 0
0, 0
0, 0
0, 0
0, 0
0, 0
0, 0
0, 0
0, 0
0, 0
0, 0
0, 0
0, 0
0, 0
0, 0
0, 0
0, 0
0, 0
0, 0
0, 0
0, 0
0, 0
0, 0
0, 0
0, 0
0, 0
0, 0
0, 0
0, 0
0, 0
0, 0
0, 0
0, 0
0, 0
0, 0
0, 0
0, 0
0, 0
0, 0
0, 0
0, 0
0, 0
0, 0
0, 0
0, 0
#ENDOFDATA     end of spectrum data

File: ps__0567_0717304816_000rfs_shot_383.msa
#FORMAT      : EMSA/MAS spectral data file
#VERSION     : TC202v2.0 PIXL
#TITLE       : Novarupta (sol567) subset1
#DATE        : 02-11-2024      Date in the format DD-MMM-YYYY, for example 07-JUL-2010
#TIME        :             The time of day at which the spectrum was recorded, in 24-hour format
#OWNER       : PIXL Flight Model       (PIXL will use this to indicate which instrument took the data.)
#NPOINTS     : 4096     Number of data points in the spectrum (This can be zero for configuration only files)
#NCOLUMNS    : 2     Number of data columns in the spectrum (This can be zero for configuration only files)
#XUNITS      : eV
#YUNITS      : COUNTS
#DATATYPE    : YY
#XPERCHAN    : 7.862, 7.881   eV per channel (separate by commas if more than one detector)
#OFFSET      : 18.5, -22.4         eV of first channel  (separate by commas if more than one detector
#SIGNALTYPE  : XRF
#YP_TEMP     : 1.562
#LIVETIME    : 8.82447, 8.81307   seconds (separate by commas if more than one detector)
#REALTIME    : 10, 10.0   seconds (separate by commas if more than one detector)
#SPECTRUM    : start of spectrum data
0, 0
0, 0
0, 0
0, 0
0, 0
0, 0
0, 0
1, 1
1, 6
3, 4
3, 1
9, 11
10, 10
19, 23
44, 54
114, 132
477, 529
116, 118
28, 39
19, 25
51, 68
295, 323
128, 97
65, 70
219, 235
112, 113
71, 61
29, 35
11, 8
13, 6
26, 31
10, 20
22, 15
184, 253
304, 361
53, 70
35, 56
36, 53
13, 11
4, 13
15, 28
47, 73
30, 37
12, 13
16, 17
18, 15
16, 8
8, 17
13, 18
33, 42
18, 23
7, 13
8, 14
39, 34
53, 45
23, 22
32, 31
363, 481
1585, 1863
1051, 1007
114, 98
19, 17
17, 28
94, 93
255, 295
158, 144
16, 19
7, 8
7, 16
7, 10
12, 11
3, 1
9, 4
6, 6
5, 6
7, 3
8, 5
6, 5
12, 9
7, 14
6, 6
6, 5
3, 7
3, 1
4, 8
4, 3
7, 2
1, 8
5, 6
2, 1
8, 6
6, 7
3, 7
4, 5
5, 5
8, 4
3, 2
0, 3
6, 3
6, 8
1, 1
2, 5
1, 7
5, 1
3, 3
4, 3
4, 4
2, 1
2, 2
0, 4
2, 6
3, 1
2, 3
1, 2
2, 0
0, 3
5, 2
2, 2
3, 0
2, 0
2, 0
1, 3
1, 3
3, 2
0, 1
0, 0
0, 2
2, 1
1, 0
1, 1
4, 3
0, 2
1, 2
0, 0
2, 1
0, 1
2, 1
0, 0
0, 1
1, 0
2, 0
1, 2
1, 1
1, 1
0, 0
0, 0
0, 0
1, 1
0, 1
0, 0
1, 1
1, 1
2, 0
0, 0
0, 0
0, 0
1, 0
0, 0
0, 0
0, 1
0, 0
0, 0
0, 0
0, 0
0, 0
0, 1
0, 2
1, 0
0, 1
0, 0
0, 1
0, 0
0, 0
0, 0
1, 0
0, 0
0, 1
0, 0
0, 0
0, 0
0, 0
0, 0
0, 0
0, 0
0, 0
0, 0
0, 0
0, 0
0, 2
0, 0
0, 0
0, 0
0, 0
0, 0
0, 0
0, 0
1, 0
0, 0
0, 0
0, 0
0, 0
0, 0
0, 0
0, 0
0, 0
0, 0
0, 0
0, 0
0, 0
0, 0
0, 0
0, 0
0, 0
0, 0
0, 0
0, 0
0, 0
0, 0
0, 0
0, 0
0, 0
0, 0
0, 0
0, 0
0, 0
0, 0
0, 0
0, 0
0, 0
0, 0
0, 0
0, 0
0, 0
0, 0
0, 0
0, 0
0, 0
0, 0
0, 0
0, 0
0, 0
0, 0
0, 0
0, 0
0, 0
0, 0
0, 0
0, 0
0, 0
0, 0
0, 0
0, 0
0, 0
0, 0
0, 0
0, 0
0, 0
0, 0
0, 0
0, 0
0, 0
0, 0
0, 0
0, 0
0, 0
0, 0
0, 0
0, 0
0, 0
0, 0
0, 0
0, 0
0, 0
0, 0
0, 0
0, 0
0, 0
0, 0
0, 0
0, 0
0, 0
0, 0
0, 0
0, 0
0, 0
0, 0
0, 0
0, 0
0, 0
0, 0
0, 0
0, 0
0, 0
0, 0
#ENDOFDATA     end of spectrum data

File: ps__0567_0717304816_000rfs_shot_385.msa
#FORMAT      : EMSA/MAS spectral data file
#VERSION     : TC202v2.0 PIXL
#TITLE       : Novarupta (sol567) subset1
#DATE        : 02-11-2024      Date in the format DD-MMM-YYYY, for example 07-JUL-2010
#TIME        :             The time of day at which the spectrum was recorded, in 24-hour format
#OWNER       : PIXL Flight Model       (PIXL will use this to indicate which instrument took the data.)
#NPOINTS     : 4096     Number of data points in the spectrum (This can be zero for configuration only files)
#NCOLUMNS    : 2     Number of data columns in the spectrum (This can be zero for configuration only files)
#XUNITS      : eV
#YUNITS      : COUNTS
#DATATYPE    : YY
#XPERCHAN    : 7.862, 7.881   eV per channel (separate by commas if more than one detector)
#OFFSET      : 18.5, -22.4         eV of first channel  (separate by commas if more than one detector
#SIGNALTYPE  : XRF
#YP_TEMP     : 1.979
#LIVETIME    : 8.83364, 8.79878   seconds (separate by commas if more than one detector)
#REALTIME    : 10, 10.0   seconds (separate by commas if more than one detector)
#SPECTRUM    : start of spectrum data
0, 0
0, 0
0, 0
0, 0
0, 0
0, 0
0, 0
1, 0
3, 6
1, 8
1, 0
12, 11
15, 12
20, 22
50, 51
119, 144
465, 537
118, 108
39, 35
27, 29
47, 50
300, 347
134, 126
58, 61
228, 221
123, 105
90, 59
27, 33
10, 8
5, 14
32, 38
20, 27
17, 22
196, 242
363, 392
47, 58
37, 47
54, 47
17, 15
7, 8
35, 36
51, 58
34, 39
14, 20
13, 16
17, 17
12, 17
13, 13
14, 18
22, 35
27, 30
6, 11
15, 18
23, 34
33, 39
26, 29
35, 33
367, 451
1520, 1925
1037, 1017
122, 80
15, 13
27, 26
89, 102
264, 292
179, 168
19, 23
7, 6
13, 15
8, 9
5, 4
7, 4
7, 5
11, 6
8, 6
12, 11
3, 5
6, 12
9, 11
8, 8
8, 6
10, 4
6, 5
5, 5
9, 1
1, 6
5, 4
3, 6
4, 6
0, 7
8, 5
1, 5
4, 4
5, 5
2, 6
3, 6
6, 3
0, 4
6, 2
3, 6
3, 4
1, 6
6, 2
1, 0
3, 0
1, 4
2, 2
1, 2
1, 1
1, 4
4, 1
0, 1
0, 2
2, 1
1, 1
2, 2
4, 2
1, 1
1, 1
3, 0
3, 0
2, 3
0, 0
1, 1
2, 0
1, 0
0, 1
1, 3
1, 1
2, 1
1, 1
1, 0
3, 1
1, 0
0, 1
0, 1
1, 0
0, 1
0, 0
0, 0
3, 1
1, 0
1, 0
1, 0
1, 0
1, 0
1, 1
0, 1
2, 0
0, 0
0, 1
1, 0
0, 0
0, 0
0, 0
0, 1
0, 0
0, 1
0, 0
0, 1
0, 0
1, 0
1, 0
1, 0
0, 0
0, 0
0, 1
1, 0
0, 0
0, 1
1, 1
0, 1
1, 0
0, 0
0, 0
0, 0
1, 0
0, 1
0, 1
0, 0
0, 0
0, 0
0, 1
0, 0
0, 0
0, 1
0, 0
0, 0
0, 0
0, 0
0, 0
1, 0
0, 0
0, 1
0, 0
0, 0
0, 0
0, 0
0, 0
0, 0
0, 0
0, 0
0, 0
0, 0
0, 0
0, 0
1, 0
0, 0
0, 0
0, 0
1, 0
0, 0
0, 0
0, 0
0, 0
0, 0
0, 0
0, 0
0, 0
0, 0
0, 0
0, 0
0, 0
0, 0
0, 0
0, 0
0, 0
0, 0
0, 0
0, 0
0, 0
0, 0
0, 0
0, 0
0, 0
0, 0
0, 0
0, 0
0, 0
0, 0
0, 0
0, 0
0, 0
0, 0
0, 0
0, 0
0, 0
0, 0
0, 0
0, 0
0, 0
0, 0
0, 0
0, 0
0, 0
0, 0
0, 0
0, 0
0, 0
0, 0
0, 0
0, 0
0, 0
0, 0
0, 0
0, 0
0, 0
0, 0
0, 0
0, 0
0, 0
0, 0
0, 0
0, 0
0, 0
0, 0
0, 0
0, 0
0, 0
0, 0
0, 0
0, 0
0, 0
0, 0
0, 0
0, 0
0, 0
0, 0
0, 0
0, 0
0, 0
0, 0
0, 0
0, 0
#ENDOFDATA     end of spectrum data

File: ps__0567_0717304816_000rfs_shot_386.msa
#FORMAT      : EMSA/MAS spectral data file
#VERSION     : TC202v2.0 PIXL
#TITLE       : Novarupta (sol567) subset1
#DATE        : 02-11-2024      Date in the format DD-MMM-YYYY, for example 07-JUL-2010
#TIME        :             The time of day at which the spectrum was recorded, in 24-hour format
#OWNER       : PIXL Flight Model       (PIXL will use this to indicate which instrument took the data.)
#NPOINTS     : 4096     Number of data points in the spectrum (This can be zero for configuration only files)
#NCOLUMNS    : 2     Number of data columns in the spectrum (This can be zero for configuration only files)
#XUNITS      : eV
#YUNITS      : COUNTS
#DATATYPE    : YY
#XPERCHAN    : 7.862, 7.881   eV per channel (separate by commas if more than one detector)
#OFFSET      : 18.5, -22.4         eV of first channel  (separate by commas if more than one detector
#SIGNALTYPE  : XRF
#YP_TEMP     : 1.658
#LIVETIME    : 8.82355, 8.64348   seconds (separate by commas if more than one detector)
#REALTIME    : 10, 10.0   seconds (separate by commas if more than one detector)
#SPECTRUM    : start of spectrum data
0, 0
0, 0
0, 0
0, 0
0, 0
0, 0
0, 0
0, 1
3, 2
6, 7
3, 5
8, 7
10, 16
36, 21
44, 37
106, 130
485, 559
112, 123
29, 38
20, 19
66, 57
303, 327
122, 134
64, 84
233, 256
103, 122
70, 54
24, 34
9, 11
4, 12
31, 32
8, 15
13, 16
201, 222
298, 336
48, 50
38, 58
63, 52
12, 18
15, 8
17, 26
70, 69
30, 39
15, 11
15, 14
20, 26
10, 17
16, 11
21, 17
33, 34
29, 30
9, 13
10, 14
35, 31
49, 39
24, 11
21, 42
353, 450
1606, 1747
1091, 1049
137, 106
17, 23
21, 28
91, 91
256, 280
152, 144
34, 20
7, 11
10, 15
12, 8
6, 4
6, 6
5, 10
3, 7
5, 9
4, 2
11, 12
4, 6
11, 11
7, 14
8, 11
2, 4
6, 4
3, 6
6, 6
5, 8
3, 6
2, 3
8, 6
3, 2
5, 3
4, 8
7, 5
3, 6
5, 11
1, 4
5, 2
3, 1
4, 0
4, 4
3, 3
4, 4
3, 2
2, 0
1, 2
4, 4
4, 4
5, 3
2, 2
3, 2
1, 1
2, 2
1, 0
1, 3
3, 6
2, 5
5, 5
2, 2
1, 1
2, 2
4, 0
2, 1
1, 4
1, 1
0, 1
2, 0
1, 1
0, 2
1, 3
2, 1
1, 0
1, 2
0, 1
2, 2
1, 0
0, 0
2, 0
0, 3
0, 1
1, 1
0, 0
0, 0
0, 0
0, 0
1, 0
0, 1
1, 1
0, 2
1, 0
0, 1
0, 3
1, 1
1, 0
0, 0
1, 1
0, 0
1, 0
0, 0
1, 0
0, 0
0, 0
1, 1
0, 0
0, 0
1, 0
0, 0
0, 0
0, 1
0, 1
0, 0
0, 3
0, 0
0, 0
0, 0
1, 0
0, 0
1, 1
0, 0
0, 0
0, 0
0, 0
1, 0
0, 0
0, 0
0, 0
0, 0
0, 2
0, 0
0, 1
0, 0
0, 1
0, 0
0, 0
0, 0
0, 0
0, 0
0, 0
0, 0
0, 0
0, 0
0, 0
0, 0
0, 0
0, 0
0, 0
0, 0
0, 0
0, 0
0, 0
0, 0
0, 0
0, 0
0, 0
0, 0
0, 0
0, 0
0, 0
0, 0
0, 0
0, 0
0, 0
0, 0
0, 0
0, 0
0, 0
0, 0
0, 0
0, 0
0, 0
0, 0
0, 0
0, 0
0, 0
0, 0
0, 0
0, 0
0, 0
0, 0
0, 0
0, 0
0, 0
0, 0
0, 0
0, 0
0, 0
0, 0
0, 0
0, 0
0, 0
0, 0
0, 0
0, 0
0, 0
0, 0
0, 0
0, 0
0, 0
0, 0
0, 0
0, 0
0, 0
0, 0
0, 0
0, 0
0, 0
0, 0
0, 0
0, 0
0, 0
0, 0
0, 0
0, 0
0, 0
0, 0
0, 0
0, 0
0, 0
0, 0
0, 0
0, 0
0, 0
0, 0
0, 0
0, 0
0, 0
0, 0
0, 0
0, 0
0, 0
0, 0
0, 0
0, 0
0, 0
0, 0
#ENDOFDATA     end of spectrum data

File: ps__0567_0717304816_000rfs_shot_387.msa
#FORMAT      : EMSA/MAS spectral data file
#VERSION     : TC202v2.0 PIXL
#TITLE       : Novarupta (sol567) subset1
#DATE        : 02-11-2024      Date in the format DD-MMM-YYYY, for example 07-JUL-2010
#TIME        :             The time of day at which the spectrum was recorded, in 24-hour format
#OWNER       : PIXL Flight Model       (PIXL will use this to indicate which instrument took the data.)
#NPOINTS     : 4096     Number of data points in the spectrum (This can be zero for configuration only files)
#NCOLUMNS    : 2     Number of data columns in the spectrum (This can be zero for configuration only files)
#XUNITS      : eV
#YUNITS      : COUNTS
#DATATYPE    : YY
#XPERCHAN    : 7.862, 7.881   eV per channel (separate by commas if more than one detector)
#OFFSET      : 18.5, -22.4         eV of first channel  (separate by commas if more than one detector
#SIGNALTYPE  : XRF
#YP_TEMP     : 1.658
#LIVETIME    : 8.83259, 8.80926   seconds (separate by commas if more than one detector)
#REALTIME    : 10, 10.0   seconds (separate by commas if more than one detector)
#SPECTRUM    : start of spectrum data
0, 0
0, 0
0, 0
0, 0
0, 0
0, 0
1, 0
0, 1
5, 3
1, 3
5, 2
6, 7
15, 12
20, 32
41, 49
98, 125
478, 534
138, 124
28, 21
17, 31
56, 55
269, 344
138, 124
73, 67
227, 252
133, 117
73, 85
27, 22
7, 6
11, 9
29, 32
17, 19
28, 27
200, 246
321, 321
50, 52
40, 56
65, 66
13, 11
10, 6
20, 23
52, 59
41, 37
12, 9
13, 13
18, 16
9, 12
10, 13
16, 14
33, 25
24, 23
11, 15
12, 16
24, 39
44, 48
27, 25
22, 44
345, 453
1525, 1855
1087, 1013
131, 113
16, 16
13, 22
74, 102
229, 307
165, 143
19, 15
7, 16
13, 9
7, 15
4, 3
5, 8
7, 9
5, 8
10, 4
4, 1
8, 11
5, 3
12, 11
7, 16
6, 5
6, 6
4, 4
5, 4
3, 3
6, 3
8, 2
6, 5
5, 6
2, 4
8, 5
7, 8
7, 5
1, 5
5, 8
4, 3
3, 9
4, 3
4, 3
3, 0
2, 0
4, 8
3, 1
6, 3
1, 2
4, 2
1, 4
2, 2
4, 4
0, 6
2, 1
2, 0
2, 3
4, 4
1, 0
2, 2
5, 3
2, 3
1, 3
3, 3
0, 4
1, 1
1, 1
0, 0
0, 0
2, 0
2, 0
1, 1
1, 2
1, 2
1, 1
0, 0
0, 0
0, 2
1, 2
1, 1
1, 2
1, 0
1, 0
0, 0
2, 0
1, 0
0, 1
1, 0
0, 0
0, 0
0, 0
1, 0
1, 0
0, 0
0, 0
0, 1
1, 0
0, 0
0, 0
0, 0
0, 0
0, 0
0, 0
0, 0
1, 0
0, 1
0, 0
1, 0
1, 0
0, 0
1, 0
0, 0
0, 1
0, 0
1, 1
0, 0
0, 1
0, 0
1, 1
1, 0
0, 0
0, 1
0, 0
0, 0
0, 0
0, 0
0, 0
1, 0
0, 0
0, 0
0, 0
0, 0
0, 0
0, 0
0, 0
0, 0
0, 0
0, 0
0, 0
0, 0
0, 0
0, 0
0, 0
0, 0
0, 0
0, 0
0, 1
0, 0
1, 0
0, 0
0, 0
0, 0
0, 0
0, 0
0, 0
1, 0
0, 0
0, 1
0, 0
0, 0
0, 0
0, 0
0, 0
0, 0
0, 0
0, 0
0, 0
0, 0
0, 0
0, 0
0, 0
0, 0
0, 0
0, 0
0, 0
0, 0
0, 0
0, 0
0, 0
0, 0
0, 0
0, 0
0, 0
0, 0
0, 0
0, 0
0, 0
0, 0
0, 0
0, 0
0, 0
0, 0
0, 0
0, 0
0, 0
0, 0
0, 0
0, 0
0, 0
0, 0
0, 0
0, 0
0, 0
0, 0
0, 0
0, 0
0, 0
0, 0
0, 0
0, 0
0, 0
0, 0
0, 0
0, 0
0, 0
0, 0
0, 0
0, 0
0, 0
0, 0
0, 0
0, 0
0, 0
0, 0
0, 0
0, 0
0, 0
0, 0
0, 0
0, 0
0, 0
0, 0
0, 0
0, 0
0, 0
0, 0
0, 0
0, 0
#ENDOFDATA     end of spectrum data

File: ps__0567_0717304816_000rfs_shot_388.msa
#FORMAT      : EMSA/MAS spectral data file
#VERSION     : TC202v2.0 PIXL
#TITLE       : Novarupta (sol567) subset1
#DATE        : 02-11-2024      Date in the format DD-MMM-YYYY, for example 07-JUL-2010
#TIME        :             The time of day at which the spectrum was recorded, in 24-hour format
#OWNER       : PIXL Flight Model       (PIXL will use this to indicate which instrument took the data.)
#NPOINTS     : 4096     Number of data points in the spectrum (This can be zero for configuration only files)
#NCOLUMNS    : 2     Number of data columns in the spectrum (This can be zero for configuration only files)
#XUNITS      : eV
#YUNITS      : COUNTS
#DATATYPE    : YY
#XPERCHAN    : 7.862, 7.881   eV per channel (separate by commas if more than one detector)
#OFFSET      : 18.5, -22.4         eV of first channel  (separate by commas if more than one detector
#SIGNALTYPE  : XRF
#YP_TEMP     : 1.658
#LIVETIME    : 8.8287, 8.81691   seconds (separate by commas if more than one detector)
#REALTIME    : 10, 10.0   seconds (separate by commas if more than one detector)
#SPECTRUM    : start of spectrum data
0, 0
0, 0
0, 0
0, 0
0, 0
0, 0
0, 0
1, 0
2, 6
3, 5
5, 1
6, 7
20, 17
30, 18
42, 45
110, 120
468, 574
127, 122
31, 26
23, 26
55, 49
317, 342
116, 127
65, 88
210, 256
117, 128
55, 73
30, 30
8, 12
13, 10
28, 23
22, 15
20, 26
222, 261
319, 402
61, 59
41, 50
54, 60
11, 11
16, 9
30, 17
49, 59
31, 35
17, 19
10, 9
16, 26
17, 21
10, 13
10, 22
28, 22
18, 20
21, 12
17, 15
22, 47
57, 55
14, 27
35, 22
313, 427
1589, 1833
1134, 1046
116, 118
11, 20
16, 23
81, 94
262, 293
171, 149
27, 22
9, 5
12, 12
5, 14
6, 2
9, 5
6, 6
5, 10
8, 7
14, 13
3, 7
6, 4
7, 5
10, 10
5, 6
6, 2
8, 9
5, 9
7, 6
1, 7
3, 3
5, 2
4, 7
3, 4
4, 6
2, 4
7, 5
9, 1
7, 4
2, 4
3, 3
3, 4
1, 5
3, 2
4, 1
1, 4
1, 8
4, 3
2, 3
2, 3
1, 2
1, 3
1, 1
1, 1
2, 2
1, 1
1, 3
0, 2
0, 2
1, 4
7, 6
3, 4
2, 5
2, 1
1, 1
1, 2
2, 1
0, 0
5, 1
0, 1
1, 4
1, 1
2, 1
1, 1
0, 0
1, 0
0, 2
0, 1
2, 3
0, 1
1, 0
0, 0
1, 1
1, 0
2, 0
2, 2
2, 1
1, 2
0, 0
0, 0
1, 0
0, 0
1, 1
1, 0
0, 0
0, 0
0, 0
1, 3
2, 0
0, 0
1, 0
0, 1
1, 0
0, 0
1, 0
0, 0
0, 1
0, 0
0, 0
0, 0
0, 0
0, 0
0, 0
1, 0
1, 0
0, 0
1, 0
0, 1
0, 0
0, 0
0, 2
0, 0
0, 0
0, 0
0, 0
0, 0
0, 0
0, 0
0, 0
0, 0
0, 0
0, 1
0, 0
0, 0
1, 0
0, 0
0, 0
0, 0
0, 0
0, 0
0, 0
0, 0
0, 0
0, 0
0, 0
0, 0
0, 0
0, 0
0, 0
0, 0
0, 0
0, 0
0, 0
0, 0
0, 0
0, 0
0, 0
0, 1
0, 0
0, 0
0, 0
0, 0
0, 0
0, 0
0, 0
0, 0
0, 0
0, 0
0, 0
0, 0
0, 0
0, 0
0, 0
0, 0
0, 0
0, 0
0, 0
0, 0
0, 0
0, 0
0, 0
0, 0
0, 0
0, 0
0, 0
0, 0
0, 0
0, 0
0, 0
0, 0
0, 0
0, 0
0, 0
0, 0
0, 0
0, 0
0, 0
0, 0
0, 0
0, 0
0, 0
0, 0
0, 0
0, 0
0, 0
0, 0
0, 0
0, 0
0, 0
0, 0
0, 0
0, 0
0, 0
0, 0
0, 0
0, 0
0, 0
0, 0
0, 0
0, 0
0, 0
0, 0
0, 0
0, 0
0, 0
0, 0
0, 0
0, 0
0, 0
0, 0
0, 0
0, 0
0, 0
0, 0
0, 0
0, 0
0, 0
0, 0
#ENDOFDATA     end of spectrum data

File: ps__0567_0717304816_000rfs_shot_389.msa
#FORMAT      : EMSA/MAS spectral data file
#VERSION     : TC202v2.0 PIXL
#TITLE       : Novarupta (sol567) subset1
#DATE        : 02-11-2024      Date in the format DD-MMM-YYYY, for example 07-JUL-2010
#TIME        :             The time of day at which the spectrum was recorded, in 24-hour format
#OWNER       : PIXL Flight Model       (PIXL will use this to indicate which instrument took the data.)
#NPOINTS     : 4096     Number of data points in the spectrum (This can be zero for configuration only files)
#NCOLUMNS    : 2     Number of data columns in the spectrum (This can be zero for configuration only files)
#XUNITS      : eV
#YUNITS      : COUNTS
#DATATYPE    : YY
#XPERCHAN    : 7.862, 7.881   eV per channel (separate by commas if more than one detector)
#OFFSET      : 18.5, -22.4         eV of first channel  (separate by commas if more than one detector
#SIGNALTYPE  : XRF
#YP_TEMP     : 1.722
#LIVETIME    : 8.83593, 8.80173   seconds (separate by commas if more than one detector)
#REALTIME    : 10, 10.0   seconds (separate by commas if more than one detector)
#SPECTRUM    : start of spectrum data
0, 0
0, 0
0, 0
0, 0
0, 0
0, 0
0, 0
2, 0
4, 5
4, 1
2, 1
17, 10
9, 19
33, 31
47, 54
106, 130
495, 537
119, 128
36, 31
30, 33
42, 64
309, 354
93, 110
79, 77
271, 251
107, 117
76, 73
30, 28
5, 9
17, 11
24, 33
18, 24
14, 18
209, 257
319, 343
45, 47
46, 52
57, 52
11, 13
10, 12
15, 28
68, 93
39, 48
18, 24
13, 17
21, 20
23, 14
7, 12
13, 25
31, 33
22, 31
11, 14
16, 11
30, 26
48, 48
23, 21
21, 38
316, 436
1569, 1821
1034, 1060
132, 99
15, 19
22, 24
78, 116
240, 278
156, 143
22, 15
6, 14
11, 15
14, 17
12, 8
8, 5
9, 8
11, 8
8, 10
8, 11
4, 5
6, 10
12, 10
11, 14
7, 6
4, 7
7, 7
3, 3
8, 6
3, 5
6, 8
2, 7
3, 6
6, 4
5, 2
3, 5
6, 6
3, 6
4, 6
0, 5
2, 5
4, 4
8, 5
2, 3
4, 1
5, 3
4, 2
6, 2
5, 5
3, 0
2, 7
2, 2
2, 3
3, 1
0, 2
2, 2
3, 0
1, 1
2, 2
5, 6
1, 3
2, 1
2, 2
4, 0
2, 2
1, 3
1, 0
0, 1
1, 0
0, 3
1, 0
1, 2
2, 0
0, 1
1, 0
1, 1
0, 2
1, 0
1, 0
0, 0
0, 0
2, 0
0, 0
0, 0
1, 1
1, 1
1, 1
2, 1
0, 0
1, 1
0, 1
0, 0
2, 0
1, 0
0, 1
0, 0
1, 1
0, 1
0, 0
0, 0
1, 0
0, 0
0, 0
0, 0
0, 0
0, 0
0, 1
2, 0
0, 0
0, 0
0, 0
0, 0
0, 1
1, 0
0, 0
0, 0
0, 0
0, 0
0, 0
0, 0
0, 0
1, 0
0, 0
0, 0
0, 0
0, 2
0, 1
1, 0
0, 0
0, 0
0, 0
0, 0
0, 0
0, 0
1, 1
0, 0
0, 0
0, 0
0, 0
0, 0
0, 0
0, 0
0, 0
0, 0
0, 0
0, 0
0, 0
0, 0
0, 0
0, 0
0, 0
0, 0
0, 0
0, 0
0, 0
0, 0
0, 0
0, 0
0, 0
0, 0
0, 0
0, 0
0, 0
0, 0
0, 0
0, 0
0, 0
0, 0
0, 0
0, 0
0, 0
0, 0
0, 0
0, 0
0, 0
0, 0
0, 0
0, 0
0, 0
0, 0
0, 0
0, 0
0, 0
0, 0
0, 0
0, 0
0, 0
0, 0
0, 0
0, 0
0, 0
0, 0
0, 0
0, 0
0, 0
0, 0
0, 0
0, 0
0, 0
0, 0
0, 0
0, 0
0, 0
0, 0
0, 0
0, 0
0, 0
0, 0
0, 0
0, 0
0, 0
0, 0
0, 0
0, 0
0, 0
0, 0
0, 0
0, 0
0, 0
0, 0
0, 0
0, 0
0, 0
0, 0
0, 0
0, 0
0, 0
0, 0
0, 0
0, 0
0, 0
0, 0
0, 0
0, 0
0, 0
0, 0
0, 0
0, 0
#ENDOFDATA     end of spectrum data

File: ps__0567_0717304816_000rfs_shot_390.msa
#FORMAT      : EMSA/MAS spectral data file
#VERSION     : TC202v2.0 PIXL
#TITLE       : Novarupta (sol567) subset1
#DATE        : 02-11-2024      Date in the format DD-MMM-YYYY, for example 07-JUL-2010
#TIME        :             The time of day at which the spectrum was recorded, in 24-hour format
#OWNER       : PIXL Flight Model       (PIXL will use this to indicate which instrument took the data.)
#NPOINTS     : 4096     Number of data points in the spectrum (This can be zero for configuration only files)
#NCOLUMNS    : 2     Number of data columns in the spectrum (This can be zero for configuration only files)
#XUNITS      : eV
#YUNITS      : COUNTS
#DATATYPE    : YY
#XPERCHAN    : 7.862, 7.881   eV per channel (separate by commas if more than one detector)
#OFFSET      : 18.5, -22.4         eV of first channel  (separate by commas if more than one detector
#SIGNALTYPE  : XRF
#YP_TEMP     : 1.562
#LIVETIME    : 8.83127, 8.80868   seconds (separate by commas if more than one detector)
#REALTIME    : 10, 10.0   seconds (separate by commas if more than one detector)
#SPECTRUM    : start of spectrum data
0, 0
0, 0
0, 0
0, 0
0, 0
0, 0
0, 0
0, 0
4, 1
7, 5
1, 6
4, 15
13, 13
19, 26
39, 29
116, 116
475, 560
127, 106
26, 23
20, 24
58, 54
270, 311
102, 128
60, 96
257, 309
130, 143
78, 70
35, 27
12, 17
15, 6
22, 25
15, 21
17, 11
209, 295
333, 351
51, 46
32, 50
51, 59
14, 17
6, 10
26, 36
73, 59
39, 30
12, 13
14, 12
19, 16
17, 16
8, 6
13, 11
32, 24
31, 20
6, 11
16, 22
26, 29
50, 53
26, 36
30, 38
344, 483
1576, 1814
1068, 1031
117, 122
19, 21
25, 17
85, 86
229, 305
191, 152
24, 19
13, 9
15, 12
14, 6
9, 2
4, 7
6, 6
4, 10
9, 4
5, 11
6, 7
6, 13
11, 9
12, 13
7, 6
4, 7
2, 2
3, 3
3, 8
10, 3
3, 5
4, 6
6, 3
3, 5
3, 3
3, 7
2, 5
2, 3
6, 4
5, 7
3, 3
1, 3
3, 6
5, 6
4, 5
3, 3
1, 5
4, 1
4, 4
0, 1
2, 2
1, 5
0, 1
1, 2
4, 1
1, 3
3, 2
3, 1
2, 3
1, 0
3, 3
2, 5
2, 0
2, 0
1, 0
0, 2
3, 1
1, 1
0, 5
4, 1
5, 0
2, 1
0, 1
1, 2
2, 2
0, 2
0, 0
1, 0
3, 0
0, 1
1, 0
0, 2
0, 0
0, 0
1, 1
1, 1
2, 0
0, 2
0, 0
1, 0
1, 0
1, 0
0, 0
0, 1
1, 0
0, 1
1, 1
0, 0
0, 0
0, 0
0, 0
0, 0
1, 0
0, 0
0, 0
0, 1
0, 2
0, 0
0, 1
0, 0
0, 0
0, 2
0, 0
0, 0
0, 0
0, 0
0, 0
0, 1
1, 0
0, 0
0, 0
0, 1
0, 2
0, 0
1, 0
0, 0
1, 0
0, 0
0, 0
1, 0
0, 0
0, 1
0, 0
0, 0
0, 0
0, 0
0, 0
0, 0
0, 0
0, 0
0, 0
0, 0
0, 0
0, 0
0, 0
0, 0
0, 0
0, 0
0, 0
0, 0
0, 0
0, 1
0, 0
0, 0
0, 0
0, 0
0, 0
0, 0
0, 0
0, 0
0, 0
0, 0
0, 0
0, 0
0, 0
0, 0
0, 0
0, 0
0, 0
0, 0
0, 0
0, 0
0, 0
0, 0
0, 0
0, 0
0, 0
0, 0
0, 0
0, 0
0, 0
0, 0
0, 0
0, 0
0, 0
0, 0
0, 0
0, 0
0, 0
0, 0
0, 0
0, 0
0, 0
0, 0
0, 0
0, 0
0, 0
0, 0
0, 0
0, 0
0, 0
0, 0
0, 0
0, 0
0, 0
0, 0
0, 0
0, 0
0, 0
0, 0
0, 0
0, 0
0, 0
0, 0
0, 0
0, 0
0, 0
0, 0
0, 0
0, 0
0, 0
0, 0
0, 0
0, 0
0, 0
0, 0
0, 0
0, 0
0, 0
0, 0
0, 0
0, 0
0, 0
0, 0
0, 0
0, 0
0, 0
0, 0
#ENDOFDATA     end of spectrum data