Folder: data-repository/host_upload/02-11-2024/rqc/uplink1 (part 24)

File: ps__0567_0717304816_000rfs_shot_392.msa
#FORMAT      : EMSA/MAS spectral data file
#VERSION     : TC202v2.0 PIXL
#TITLE       : Novarupta (sol567) subset1
#DATE        : 02-11-2024      Date in the format DD-MMM-YYYY, for example 07-JUL-2010
#TIME        :             The time of day at which the spectrum was recorded, in 24-hour format
#OWNER       : PIXL Flight Model       (PIXL will use this to indicate which instrument took the data.)
#NPOINTS     : 4096     Number of data points in the spectrum (This can be zero for configuration only files)
#NCOLUMNS    : 2     Number of data columns in the spectrum (This can be zero for configuration only files)
#XUNITS      : eV
#YUNITS      : COUNTS
#DATATYPE    : YY
#XPERCHAN    : 7.862, 7.881   eV per channel (separate by commas if more than one detector)
#OFFSET      : 18.5, -22.4         eV of first channel  (separate by commas if more than one detector
#SIGNALTYPE  : XRF
#YP_TEMP     : 1.658
#LIVETIME    : 8.81832, 8.8065   seconds (separate by commas if more than one detector)
#REALTIME    : 10, 10.0   seconds (separate by commas if more than one detector)
#SPECTRUM    : start of spectrum data
0, 0
0, 0
0, 0
0, 0
0, 0
0, 0
0, 0
0, 0
3, 0
3, 3
0, 4
5, 12
10, 12
26, 14
42, 42
108, 144
523, 504
113, 115
22, 40
22, 19
52, 51
348, 310
115, 102
57, 87
192, 199
110, 93
67, 73
28, 28
10, 9
8, 14
23, 48
24, 23
20, 24
212, 279
365, 382
63, 56
44, 63
53, 62
14, 17
10, 14
23, 31
63, 64
36, 38
16, 18
16, 14
19, 24
14, 14
11, 9
15, 16
38, 35
33, 31
12, 15
17, 17
38, 33
54, 50
30, 21
31, 35
382, 476
1598, 1893
1097, 1014
119, 121
23, 13
23, 28
77, 108
249, 281
143, 140
32, 21
4, 14
13, 16
11, 13
8, 7
7, 6
4, 7
7, 7
12, 6
4, 13
7, 5
3, 4
7, 8
6, 12
8, 3
6, 6
7, 8
2, 4
5, 2
4, 11
7, 5
6, 7
1, 3
6, 7
5, 4
8, 4
1, 4
4, 4
4, 4
6, 5
3, 5
2, 3
6, 7
8, 6
5, 1
3, 2
3, 3
5, 4
2, 3
2, 1
2, 1
2, 3
3, 3
6, 3
1, 1
0, 4
1, 1
0, 2
1, 2
0, 1
4, 5
1, 2
0, 2
2, 1
1, 2
1, 2
6, 1
2, 3
2, 0
1, 1
1, 1
1, 0
0, 0
0, 0
0, 1
1, 1
1, 0
0, 0
1, 2
1, 1
0, 0
0, 1
0, 1
0, 2
0, 0
1, 1
0, 2
1, 0
0, 0
0, 0
0, 0
0, 0
0, 0
0, 0
3, 1
1, 0
1, 0
0, 1
0, 0
2, 1
1, 1
0, 0
0, 1
2, 1
0, 1
1, 0
0, 0
2, 0
2, 1
0, 0
0, 1
1, 0
0, 1
0, 0
0, 0
0, 1
1, 1
0, 0
1, 0
0, 0
0, 1
0, 0
0, 0
0, 0
0, 0
0, 0
0, 0
0, 0
0, 0
0, 0
0, 0
0, 0
0, 0
0, 0
0, 0
0, 1
0, 1
0, 0
0, 0
0, 0
0, 0
0, 0
0, 0
0, 0
0, 0
0, 0
0, 0
0, 0
0, 0
0, 0
0, 0
0, 0
0, 0
0, 0
0, 0
0, 0
0, 0
0, 0
0, 0
0, 0
0, 0
0, 0
0, 0
0, 0
0, 0
0, 0
0, 0
0, 0
0, 0
0, 0
0, 0
0, 0
0, 0
0, 0
0, 0
0, 0
0, 0
0, 0
0, 0
0, 0
0, 0
0, 0
0, 0
0, 0
0, 0
0, 0
0, 0
0, 0
0, 0
0, 0
0, 0
0, 0
0, 0
0, 0
0, 0
0, 0
0, 0
0, 0
0, 0
0, 0
0, 0
0, 0
0, 0
0, 0
0, 0
0, 0
0, 0
0, 0
0, 0
0, 0
0, 0
0, 0
0, 0
0, 0
0, 0
0, 0
0, 0
0, 0
0, 0
0, 0
0, 0
0, 0
0, 0
0, 0
0, 0
0, 0
0, 0
0, 0
0, 0
0, 0
0, 0
0, 0
0, 0
0, 0
0, 0
0, 0
0, 0
0, 0
#ENDOFDATA     end of spectrum data

File: ps__0567_0717304816_000rfs_shot_393.msa
#FORMAT      : EMSA/MAS spectral data file
#VERSION     : TC202v2.0 PIXL
#TITLE       : Novarupta (sol567) subset1
#DATE        : 02-11-2024      Date in the format DD-MMM-YYYY, for example 07-JUL-2010
#TIME        :             The time of day at which the spectrum was recorded, in 24-hour format
#OWNER       : PIXL Flight Model       (PIXL will use this to indicate which instrument took the data.)
#NPOINTS     : 4096     Number of data points in the spectrum (This can be zero for configuration only files)
#NCOLUMNS    : 2     Number of data columns in the spectrum (This can be zero for configuration only files)
#XUNITS      : eV
#YUNITS      : COUNTS
#DATATYPE    : YY
#XPERCHAN    : 7.862, 7.881   eV per channel (separate by commas if more than one detector)
#OFFSET      : 18.5, -22.4         eV of first channel  (separate by commas if more than one detector
#SIGNALTYPE  : XRF
#YP_TEMP     : 1.69
#LIVETIME    : 8.81364, 8.80986   seconds (separate by commas if more than one detector)
#REALTIME    : 10, 10.0   seconds (separate by commas if more than one detector)
#SPECTRUM    : start of spectrum data
0, 0
0, 0
0, 0
0, 0
0, 0
0, 0
0, 0
0, 1
5, 4
3, 3
5, 2
7, 17
9, 10
31, 22
39, 51
87, 116
508, 539
128, 129
35, 22
23, 25
51, 65
313, 314
127, 124
66, 65
214, 218
104, 122
59, 70
40, 32
13, 9
5, 12
33, 22
11, 23
22, 24
249, 259
374, 368
54, 52
35, 55
55, 61
23, 11
7, 10
21, 30
61, 68
44, 24
15, 10
9, 11
16, 15
11, 16
10, 12
14, 14
28, 25
28, 26
8, 10
11, 18
41, 35
47, 50
18, 27
38, 42
350, 488
1674, 1852
1131, 1020
121, 106
19, 13
19, 22
81, 107
272, 288
189, 140
18, 15
10, 17
8, 13
14, 7
7, 11
4, 0
8, 6
3, 3
5, 6
8, 8
3, 10
5, 13
14, 9
14, 8
9, 6
7, 3
7, 5
4, 5
5, 4
2, 8
7, 6
8, 4
6, 10
3, 4
4, 4
6, 4
3, 4
9, 5
2, 1
2, 2
2, 1
2, 5
5, 2
5, 2
3, 3
3, 4
4, 2
2, 2
5, 4
1, 4
0, 2
3, 2
0, 4
2, 1
2, 3
1, 1
4, 3
4, 3
0, 4
0, 3
4, 4
1, 1
1, 1
3, 1
2, 2
0, 3
3, 5
3, 5
1, 2
2, 1
0, 3
2, 3
1, 1
1, 2
0, 2
0, 2
0, 2
0, 0
3, 0
0, 0
4, 0
0, 0
1, 0
0, 1
0, 1
1, 1
3, 0
0, 0
0, 0
0, 0
0, 0
0, 2
0, 0
0, 0
0, 0
0, 0
1, 1
1, 0
1, 2
0, 1
0, 0
0, 0
0, 0
1, 0
0, 0
1, 0
0, 0
1, 0
0, 0
1, 2
0, 1
1, 0
0, 0
0, 1
1, 0
1, 1
1, 1
0, 0
0, 0
0, 0
0, 0
0, 1
0, 0
0, 0
0, 0
0, 0
0, 1
0, 0
0, 0
0, 0
0, 0
0, 0
0, 0
0, 0
0, 0
1, 0
0, 0
0, 0
0, 0
1, 0
0, 0
0, 2
0, 0
0, 0
0, 0
0, 0
0, 0
0, 0
0, 0
0, 0
1, 0
0, 0
0, 0
0, 0
0, 0
0, 0
0, 0
0, 0
0, 0
0, 0
0, 0
0, 0
0, 0
0, 0
0, 0
0, 0
0, 0
0, 0
0, 0
0, 0
0, 0
0, 0
0, 0
0, 0
0, 0
0, 0
0, 0
0, 0
0, 0
0, 0
0, 0
0, 0
0, 0
0, 0
0, 0
0, 0
0, 0
0, 0
0, 0
0, 0
0, 0
0, 0
0, 0
0, 0
0, 0
0, 0
0, 0
0, 0
0, 0
0, 0
0, 0
0, 0
0, 0
0, 0
0, 0
0, 0
0, 0
0, 0
0, 0
0, 0
0, 0
0, 0
0, 0
0, 0
0, 0
0, 0
0, 0
0, 0
0, 0
0, 0
0, 0
0, 0
0, 0
0, 0
0, 0
0, 0
0, 0
0, 0
0, 0
0, 0
0, 0
0, 0
0, 0
0, 0
0, 0
0, 0
0, 0
0, 0
#ENDOFDATA     end of spectrum data

File: ps__0567_0717304816_000rfs_shot_394.msa
#FORMAT      : EMSA/MAS spectral data file
#VERSION     : TC202v2.0 PIXL
#TITLE       : Novarupta (sol567) subset1
#DATE        : 02-11-2024      Date in the format DD-MMM-YYYY, for example 07-JUL-2010
#TIME        :             The time of day at which the spectrum was recorded, in 24-hour format
#OWNER       : PIXL Flight Model       (PIXL will use this to indicate which instrument took the data.)
#NPOINTS     : 4096     Number of data points in the spectrum (This can be zero for configuration only files)
#NCOLUMNS    : 2     Number of data columns in the spectrum (This can be zero for configuration only files)
#XUNITS      : eV
#YUNITS      : COUNTS
#DATATYPE    : YY
#XPERCHAN    : 7.862, 7.881   eV per channel (separate by commas if more than one detector)
#OFFSET      : 18.5, -22.4         eV of first channel  (separate by commas if more than one detector
#SIGNALTYPE  : XRF
#YP_TEMP     : 1.69
#LIVETIME    : 8.8185, 8.82007   seconds (separate by commas if more than one detector)
#REALTIME    : 10, 10.0   seconds (separate by commas if more than one detector)
#SPECTRUM    : start of spectrum data
0, 0
0, 0
0, 0
0, 0
0, 0
0, 0
0, 0
2, 0
7, 4
2, 6
1, 2
11, 8
13, 8
21, 18
53, 47
120, 121
535, 498
127, 107
33, 29
26, 23
55, 53
296, 279
122, 96
69, 87
233, 239
144, 94
60, 68
28, 31
5, 18
6, 13
19, 21
20, 18
21, 21
199, 239
394, 354
59, 47
46, 48
41, 51
14, 9
14, 10
24, 25
69, 63
38, 32
12, 22
14, 5
25, 18
16, 17
9, 9
13, 13
30, 23
21, 26
11, 8
15, 14
37, 33
65, 49
20, 27
27, 29
373, 456
1703, 1805
1175, 997
142, 101
15, 23
20, 15
80, 99
251, 300
159, 150
24, 14
10, 10
13, 20
8, 7
9, 9
10, 4
7, 5
6, 9
11, 6
9, 4
5, 8
4, 8
15, 10
7, 12
6, 8
8, 2
4, 4
6, 6
8, 3
7, 9
0, 11
5, 11
1, 3
8, 4
6, 4
3, 5
7, 6
3, 3
5, 3
5, 3
5, 1
8, 4
1, 2
1, 5
0, 3
8, 3
1, 6
4, 3
0, 2
5, 5
2, 1
3, 1
2, 0
2, 0
4, 4
3, 2
0, 4
3, 2
3, 1
2, 4
6, 4
2, 0
2, 3
0, 2
2, 1
1, 2
2, 4
1, 3
1, 0
1, 0
0, 1
2, 0
2, 2
2, 1
1, 2
1, 0
1, 3
0, 0
3, 0
2, 1
3, 0
0, 2
0, 1
2, 0
0, 0
0, 0
0, 1
1, 0
1, 0
0, 0
1, 0
1, 0
0, 2
0, 1
0, 0
0, 0
0, 0
0, 1
0, 1
0, 0
0, 0
0, 0
1, 0
0, 1
0, 0
1, 1
0, 0
1, 0
0, 0
1, 0
0, 1
0, 0
0, 0
1, 0
0, 0
1, 0
0, 0
2, 0
0, 0
0, 0
0, 0
1, 0
0, 0
0, 0
0, 0
1, 0
0, 0
0, 1
0, 0
0, 0
1, 1
0, 0
0, 0
0, 0
0, 0
1, 0
0, 0
0, 0
0, 0
0, 0
0, 0
0, 0
0, 0
0, 0
0, 0
0, 0
0, 0
0, 0
1, 0
0, 1
0, 0
0, 0
0, 0
0, 0
0, 0
0, 0
0, 0
0, 0
0, 0
0, 0
0, 0
0, 0
0, 0
0, 0
0, 0
0, 0
0, 0
0, 0
0, 0
0, 0
0, 0
0, 0
0, 0
0, 0
0, 0
0, 0
0, 0
0, 0
0, 0
0, 0
0, 0
0, 0
0, 0
0, 0
0, 0
0, 0
0, 0
0, 0
0, 0
0, 0
0, 0
0, 0
0, 0
0, 0
0, 0
0, 0
0, 0
0, 0
0, 0
0, 0
0, 0
0, 0
0, 0
0, 0
0, 0
0, 0
0, 0
0, 0
0, 0
0, 0
0, 0
0, 0
0, 0
0, 0
0, 0
0, 0
0, 0
0, 0
0, 0
0, 0
0, 0
0, 0
0, 0
0, 0
0, 0
0, 0
0, 0
0, 0
0, 0
0, 0
0, 0
0, 0
0, 0
0, 0
0, 0
0, 0
0, 0
0, 0
#ENDOFDATA     end of spectrum data

File: ps__0567_0717304816_000rfs_shot_397.msa
#FORMAT      : EMSA/MAS spectral data file
#VERSION     : TC202v2.0 PIXL
#TITLE       : Novarupta (sol567) subset1
#DATE        : 02-11-2024      Date in the format DD-MMM-YYYY, for example 07-JUL-2010
#TIME        :             The time of day at which the spectrum was recorded, in 24-hour format
#OWNER       : PIXL Flight Model       (PIXL will use this to indicate which instrument took the data.)
#NPOINTS     : 4096     Number of data points in the spectrum (This can be zero for configuration only files)
#NCOLUMNS    : 2     Number of data columns in the spectrum (This can be zero for configuration only files)
#XUNITS      : eV
#YUNITS      : COUNTS
#DATATYPE    : YY
#XPERCHAN    : 7.862, 7.881   eV per channel (separate by commas if more than one detector)
#OFFSET      : 18.5, -22.4         eV of first channel  (separate by commas if more than one detector
#SIGNALTYPE  : XRF
#YP_TEMP     : 1.883
#LIVETIME    : 8.82086, 8.79854   seconds (separate by commas if more than one detector)
#REALTIME    : 10, 10.0   seconds (separate by commas if more than one detector)
#SPECTRUM    : start of spectrum data
0, 0
0, 0
0, 0
0, 0
0, 0
0, 0
0, 0
1, 0
2, 3
3, 3
3, 5
16, 14
18, 21
20, 27
46, 56
108, 121
496, 575
138, 138
27, 34
33, 32
52, 57
316, 306
107, 134
78, 80
245, 243
108, 113
78, 97
36, 27
12, 14
11, 8
22, 31
22, 21
17, 23
199, 229
336, 368
52, 51
41, 50
50, 49
13, 15
8, 15
22, 25
57, 65
35, 29
12, 16
13, 12
18, 27
12, 8
7, 10
10, 9
22, 30
29, 22
12, 15
17, 11
31, 30
50, 65
24, 20
21, 42
337, 491
1607, 1940
1097, 1091
120, 102
14, 14
15, 21
86, 95
246, 303
153, 144
28, 15
9, 13
10, 16
7, 5
6, 8
2, 9
8, 6
8, 5
7, 6
5, 7
5, 3
12, 6
10, 12
12, 15
8, 7
7, 7
4, 7
7, 13
4, 2
4, 6
4, 8
7, 3
3, 7
8, 4
8, 2
4, 2
6, 3
1, 6
5, 2
7, 2
5, 4
3, 4
4, 5
4, 2
1, 1
2, 7
2, 3
2, 3
2, 3
4, 1
4, 2
3, 4
2, 4
3, 1
4, 0
2, 3
0, 3
4, 5
1, 3
4, 4
1, 1
6, 3
1, 1
2, 1
1, 2
1, 2
0, 0
2, 2
1, 0
2, 0
0, 2
0, 0
0, 1
0, 0
0, 1
1, 1
2, 2
2, 1
0, 0
1, 1
0, 1
1, 1
1, 0
0, 0
0, 0
3, 0
0, 0
0, 0
0, 0
0, 0
1, 0
0, 0
0, 0
1, 2
0, 0
0, 0
0, 0
1, 0
0, 0
0, 0
0, 0
1, 0
0, 1
1, 2
1, 0
0, 0
0, 0
0, 0
0, 0
0, 0
1, 0
1, 1
0, 1
0, 0
0, 0
0, 1
0, 0
0, 0
0, 0
1, 0
1, 0
0, 0
0, 0
0, 0
0, 0
0, 1
0, 0
0, 0
0, 1
0, 0
0, 0
0, 0
0, 0
0, 0
0, 0
0, 0
0, 0
0, 0
0, 0
0, 0
0, 0
0, 0
0, 0
0, 0
0, 0
0, 0
0, 0
0, 0
0, 0
0, 0
0, 0
0, 0
0, 0
0, 0
0, 1
0, 0
0, 0
0, 0
0, 0
0, 0
0, 1
0, 0
0, 0
0, 0
0, 0
0, 0
0, 0
0, 0
0, 0
0, 0
0, 0
0, 0
0, 0
0, 0
0, 0
0, 0
0, 0
0, 0
0, 0
0, 0
0, 0
0, 0
0, 0
0, 0
0, 0
0, 0
0, 0
0, 0
0, 0
0, 0
0, 0
0, 0
0, 0
0, 0
0, 0
0, 0
0, 0
0, 0
0, 0
0, 0
0, 0
0, 0
0, 0
0, 0
0, 0
0, 0
0, 0
0, 0
0, 0
0, 0
0, 0
0, 0
0, 0
0, 0
0, 0
0, 0
0, 0
0, 0
0, 0
0, 0
0, 0
0, 0
0, 0
0, 0
0, 0
0, 0
0, 0
0, 0
0, 0
0, 0
0, 0
0, 0
0, 0
0, 0
0, 0
0, 0
0, 0
0, 0
#ENDOFDATA     end of spectrum data

File: ps__0567_0717304816_000rfs_shot_399.msa
#FORMAT      : EMSA/MAS spectral data file
#VERSION     : TC202v2.0 PIXL
#TITLE       : Novarupta (sol567) subset1
#DATE        : 02-11-2024      Date in the format DD-MMM-YYYY, for example 07-JUL-2010
#TIME        :             The time of day at which the spectrum was recorded, in 24-hour format
#OWNER       : PIXL Flight Model       (PIXL will use this to indicate which instrument took the data.)
#NPOINTS     : 4096     Number of data points in the spectrum (This can be zero for configuration only files)
#NCOLUMNS    : 2     Number of data columns in the spectrum (This can be zero for configuration only files)
#XUNITS      : eV
#YUNITS      : COUNTS
#DATATYPE    : YY
#XPERCHAN    : 7.862, 7.881   eV per channel (separate by commas if more than one detector)
#OFFSET      : 18.5, -22.4         eV of first channel  (separate by commas if more than one detector
#SIGNALTYPE  : XRF
#YP_TEMP     : 1.883
#LIVETIME    : 8.82121, 8.80472   seconds (separate by commas if more than one detector)
#REALTIME    : 10, 10.0   seconds (separate by commas if more than one detector)
#SPECTRUM    : start of spectrum data
0, 0
0, 0
0, 0
0, 0
0, 0
0, 0
0, 0
0, 0
5, 4
1, 6
3, 5
9, 11
12, 11
17, 30
39, 36
97, 115
512, 559
131, 122
27, 47
29, 22
45, 60
323, 303
117, 103
93, 76
224, 282
111, 126
73, 63
32, 32
14, 12
7, 10
22, 38
25, 12
13, 19
199, 254
341, 353
64, 53
46, 51
49, 50
15, 12
8, 8
27, 21
77, 76
35, 29
12, 10
14, 13
9, 17
18, 10
13, 8
13, 22
24, 18
25, 18
14, 13
8, 8
37, 36
34, 36
17, 32
31, 34
330, 464
1635, 1902
1189, 1059
130, 122
14, 19
13, 17
92, 120
266, 336
185, 139
17, 14
8, 10
8, 14
11, 7
9, 3
8, 8
9, 4
3, 9
6, 11
5, 11
10, 8
6, 6
19, 11
17, 9
9, 5
5, 5
3, 6
4, 7
4, 7
6, 5
6, 3
3, 3
4, 3
6, 6
7, 4
6, 6
2, 5
3, 2
2, 1
5, 3
3, 0
5, 4
2, 6
3, 3
3, 5
2, 2
3, 1
3, 4
2, 2
4, 2
0, 5
0, 5
1, 3
0, 3
1, 3
2, 6
2, 4
2, 0
2, 1
0, 3
3, 3
5, 4
1, 1
1, 1
0, 1
1, 5
0, 1
2, 3
0, 3
4, 1
0, 2
0, 0
3, 2
3, 1
0, 2
0, 2
1, 1
1, 1
0, 0
1, 1
0, 1
1, 2
1, 1
0, 0
0, 0
0, 0
1, 0
1, 1
0, 0
1, 0
0, 0
0, 1
0, 1
0, 1
0, 1
1, 0
0, 0
0, 0
0, 0
0, 1
0, 0
0, 1
0, 0
0, 0
1, 0
0, 0
1, 0
0, 0
0, 0
0, 0
0, 0
0, 0
2, 0
1, 0
0, 0
1, 1
0, 0
0, 0
0, 1
1, 0
0, 0
1, 0
0, 0
0, 1
0, 0
0, 0
0, 0
1, 0
0, 0
1, 0
0, 0
0, 0
0, 0
0, 0
0, 0
0, 0
0, 0
0, 0
0, 0
0, 0
0, 0
0, 0
0, 0
0, 0
0, 0
0, 0
0, 0
0, 0
0, 0
0, 0
0, 0
0, 0
0, 0
0, 0
0, 0
0, 0
0, 0
0, 0
0, 0
0, 0
0, 0
0, 0
0, 0
0, 0
0, 0
0, 0
0, 0
0, 0
0, 0
0, 0
0, 0
0, 0
0, 0
0, 0
0, 0
0, 0
0, 0
0, 0
0, 0
0, 0
0, 0
0, 0
0, 0
0, 0
0, 0
0, 0
0, 0
0, 0
0, 0
0, 0
0, 0
0, 0
0, 0
0, 0
0, 0
0, 0
0, 0
0, 0
0, 0
0, 0
0, 0
0, 0
0, 0
0, 0
0, 0
0, 0
0, 0
0, 0
0, 0
0, 0
0, 0
0, 0
0, 0
0, 0
0, 0
0, 0
0, 0
0, 0
0, 0
0, 0
0, 0
0, 0
0, 0
0, 0
0, 0
0, 0
0, 0
0, 0
0, 0
0, 0
0, 0
0, 0
0, 0
0, 0
0, 0
0, 0
0, 0
0, 0
#ENDOFDATA     end of spectrum data

File: ps__0567_0717304816_000rfs_shot_403.msa
#FORMAT      : EMSA/MAS spectral data file
#VERSION     : TC202v2.0 PIXL
#TITLE       : Novarupta (sol567) subset1
#DATE        : 02-11-2024      Date in the format DD-MMM-YYYY, for example 07-JUL-2010
#TIME        :             The time of day at which the spectrum was recorded, in 24-hour format
#OWNER       : PIXL Flight Model       (PIXL will use this to indicate which instrument took the data.)
#NPOINTS     : 4096     Number of data points in the spectrum (This can be zero for configuration only files)
#NCOLUMNS    : 2     Number of data columns in the spectrum (This can be zero for configuration only files)
#XUNITS      : eV
#YUNITS      : COUNTS
#DATATYPE    : YY
#XPERCHAN    : 7.862, 7.881   eV per channel (separate by commas if more than one detector)
#OFFSET      : 18.5, -22.4         eV of first channel  (separate by commas if more than one detector
#SIGNALTYPE  : XRF
#YP_TEMP     : 1.818
#LIVETIME    : 8.81907, 8.62656   seconds (separate by commas if more than one detector)
#REALTIME    : 10, 10.0   seconds (separate by commas if more than one detector)
#SPECTRUM    : start of spectrum data
0, 0
0, 0
0, 0
0, 0
0, 0
0, 0
0, 0
0, 1
4, 2
6, 5
5, 4
3, 5
8, 12
31, 25
41, 50
121, 117
510, 485
110, 115
46, 31
27, 29
56, 54
312, 311
111, 109
83, 79
209, 243
123, 123
64, 73
29, 28
10, 12
11, 12
20, 27
11, 20
11, 22
222, 259
334, 306
54, 47
46, 49
48, 51
14, 12
10, 13
14, 20
78, 60
35, 28
10, 11
18, 14
24, 19
13, 15
13, 8
17, 16
29, 30
30, 26
11, 11
19, 13
44, 31
46, 56
26, 14
37, 33
357, 462
1644, 1731
1155, 946
146, 102
19, 15
26, 21
80, 109
302, 290
166, 144
30, 23
9, 12
17, 13
10, 7
9, 5
6, 7
1, 9
6, 8
5, 11
7, 7
11, 10
3, 9
9, 11
11, 9
7, 9
11, 6
4, 4
8, 2
4, 1
9, 3
7, 4
10, 2
4, 5
3, 4
4, 4
3, 5
6, 6
5, 5
9, 4
2, 5
8, 3
6, 3
6, 4
4, 4
4, 3
3, 1
3, 3
6, 0
3, 1
7, 2
0, 2
3, 6
0, 4
2, 3
5, 2
3, 2
2, 1
3, 1
1, 1
0, 1
3, 2
2, 2
5, 1
1, 4
2, 0
2, 2
2, 5
2, 0
1, 0
2, 2
3, 1
1, 1
3, 1
1, 0
1, 1
1, 1
2, 0
1, 1
2, 1
0, 0
0, 0
2, 0
0, 4
0, 0
0, 1
0, 0
0, 1
2, 0
0, 0
0, 0
0, 1
1, 0
0, 1
0, 0
0, 0
1, 1
1, 1
0, 0
0, 0
0, 0
0, 1
0, 0
0, 0
0, 0
0, 0
1, 2
0, 0
1, 0
0, 0
1, 0
0, 0
0, 1
0, 0
0, 1
0, 0
0, 0
1, 1
0, 0
0, 2
1, 0
1, 0
1, 0
0, 0
0, 1
0, 0
0, 0
0, 0
0, 0
0, 0
0, 0
0, 0
0, 0
0, 0
0, 0
0, 1
0, 0
0, 0
0, 0
0, 0
0, 1
0, 0
0, 0
0, 0
0, 0
0, 0
0, 0
0, 0
0, 0
0, 0
1, 0
0, 0
0, 0
0, 0
0, 0
0, 0
0, 0
0, 0
0, 0
0, 0
0, 0
0, 0
0, 0
0, 0
0, 0
0, 0
0, 0
0, 0
0, 0
0, 0
0, 0
0, 0
0, 0
0, 0
0, 0
0, 0
0, 0
0, 0
0, 0
0, 0
0, 0
0, 0
0, 0
0, 0
0, 0
0, 0
0, 0
0, 0
0, 0
0, 0
0, 0
0, 0
0, 0
0, 0
0, 0
0, 0
0, 0
0, 0
0, 0
0, 0
0, 0
0, 0
0, 0
0, 0
0, 0
0, 0
0, 0
0, 0
0, 0
0, 0
0, 0
0, 0
0, 0
0, 0
0, 0
0, 0
0, 0
0, 0
0, 0
0, 0
0, 0
0, 0
0, 0
0, 0
0, 0
0, 0
0, 0
0, 0
0, 0
0, 0
0, 0
0, 0
0, 0
0, 0
0, 0
0, 0
0, 0
0, 0
0, 0
#ENDOFDATA     end of spectrum data

File: ps__0567_0717304816_000rfs_shot_404.msa
#FORMAT      : EMSA/MAS spectral data file
#VERSION     : TC202v2.0 PIXL
#TITLE       : Novarupta (sol567) subset1
#DATE        : 02-11-2024      Date in the format DD-MMM-YYYY, for example 07-JUL-2010
#TIME        :             The time of day at which the spectrum was recorded, in 24-hour format
#OWNER       : PIXL Flight Model       (PIXL will use this to indicate which instrument took the data.)
#NPOINTS     : 4096     Number of data points in the spectrum (This can be zero for configuration only files)
#NCOLUMNS    : 2     Number of data columns in the spectrum (This can be zero for configuration only files)
#XUNITS      : eV
#YUNITS      : COUNTS
#DATATYPE    : YY
#XPERCHAN    : 7.862, 7.881   eV per channel (separate by commas if more than one detector)
#OFFSET      : 18.5, -22.4         eV of first channel  (separate by commas if more than one detector
#SIGNALTYPE  : XRF
#YP_TEMP     : 1.818
#LIVETIME    : 8.81336, 8.81949   seconds (separate by commas if more than one detector)
#REALTIME    : 10, 10.0   seconds (separate by commas if more than one detector)
#SPECTRUM    : start of spectrum data
0, 0
0, 0
0, 0
0, 0
0, 0
0, 0
0, 0
0, 0
4, 3
2, 2
2, 7
1, 8
17, 12
27, 29
32, 35
118, 140
513, 544
144, 124
32, 28
27, 17
46, 54
320, 341
111, 124
75, 72
235, 224
121, 112
81, 62
36, 29
8, 8
10, 15
28, 28
12, 18
14, 21
217, 233
352, 332
57, 47
38, 46
44, 50
13, 13
11, 6
19, 27
85, 70
47, 44
24, 17
13, 14
22, 14
15, 11
12, 10
18, 19
31, 41
26, 24
15, 16
13, 11
36, 32
53, 50
21, 21
18, 34
388, 479
1640, 1742
1202, 1036
138, 85
24, 12
15, 31
69, 119
288, 297
170, 162
19, 15
4, 9
12, 14
11, 3
8, 5
7, 4
6, 6
4, 10
9, 5
7, 5
7, 4
7, 14
10, 9
11, 10
7, 9
8, 4
6, 3
10, 5
5, 3
5, 8
3, 10
4, 5
4, 4
7, 4
4, 4
6, 6
4, 4
5, 4
3, 3
5, 4
3, 2
0, 5
1, 2
4, 2
1, 2
2, 2
2, 1
0, 1
2, 3
2, 0
1, 3
1, 0
3, 1
2, 3
2, 3
2, 2
3, 2
1, 3
2, 1
7, 1
2, 5
1, 2
5, 0
1, 4
2, 0
3, 1
3, 0
0, 2
0, 3
1, 1
3, 0
0, 0
0, 0
1, 0
0, 0
0, 1
2, 0
1, 1
1, 0
2, 2
0, 1
3, 1
0, 1
1, 1
0, 3
0, 0
0, 0
1, 0
0, 1
3, 0
1, 0
0, 1
0, 0
1, 0
0, 0
0, 1
0, 0
0, 0
0, 0
1, 0
1, 2
0, 0
0, 0
0, 1
0, 0
2, 1
0, 0
0, 0
1, 0
0, 0
0, 1
0, 0
0, 1
2, 0
1, 0
0, 1
0, 0
0, 0
0, 0
0, 0
1, 1
0, 0
0, 1
0, 0
0, 0
0, 1
0, 1
0, 1
0, 0
0, 0
0, 1
0, 0
0, 0
0, 0
0, 0
0, 0
0, 0
0, 0
0, 0
0, 0
0, 0
0, 0
0, 0
0, 0
0, 0
0, 0
0, 0
0, 0
0, 0
0, 0
0, 0
0, 0
0, 0
0, 1
0, 0
0, 0
0, 0
0, 0
0, 0
0, 0
0, 0
0, 0
0, 0
0, 0
0, 0
0, 0
0, 0
0, 0
0, 0
0, 0
0, 0
0, 0
0, 0
0, 0
0, 0
0, 0
0, 0
0, 0
0, 0
0, 0
0, 0
0, 0
0, 0
0, 0
0, 0
0, 0
0, 0
0, 0
0, 0
0, 0
0, 0
0, 0
0, 0
0, 0
0, 0
0, 0
0, 0
0, 0
0, 0
0, 0
0, 0
0, 0
0, 0
0, 0
0, 0
0, 0
0, 0
0, 0
0, 0
0, 0
0, 0
0, 0
0, 0
0, 0
0, 0
0, 0
0, 0
0, 0
0, 0
0, 0
0, 0
0, 0
0, 0
0, 0
0, 0
0, 0
0, 0
0, 0
0, 0
0, 0
0, 0
0, 0
0, 0
0, 0
0, 0
0, 0
0, 0
0, 0
#ENDOFDATA     end of spectrum data

File: ps__0567_0717304816_000rfs_shot_408.msa
#FORMAT      : EMSA/MAS spectral data file
#VERSION     : TC202v2.0 PIXL
#TITLE       : Novarupta (sol567) subset1
#DATE        : 02-11-2024      Date in the format DD-MMM-YYYY, for example 07-JUL-2010
#TIME        :             The time of day at which the spectrum was recorded, in 24-hour format
#OWNER       : PIXL Flight Model       (PIXL will use this to indicate which instrument took the data.)
#NPOINTS     : 4096     Number of data points in the spectrum (This can be zero for configuration only files)
#NCOLUMNS    : 2     Number of data columns in the spectrum (This can be zero for configuration only files)
#XUNITS      : eV
#YUNITS      : COUNTS
#DATATYPE    : YY
#XPERCHAN    : 7.862, 7.881   eV per channel (separate by commas if more than one detector)
#OFFSET      : 18.5, -22.4         eV of first channel  (separate by commas if more than one detector
#SIGNALTYPE  : XRF
#YP_TEMP     : 1.69
#LIVETIME    : 8.83909, 8.80406   seconds (separate by commas if more than one detector)
#REALTIME    : 10, 10.0   seconds (separate by commas if more than one detector)
#SPECTRUM    : start of spectrum data
0, 0
0, 0
0, 0
0, 0
0, 0
0, 0
0, 0
0, 1
4, 4
4, 1
3, 6
9, 8
15, 13
11, 21
35, 41
112, 126
469, 527
105, 120
36, 39
19, 26
43, 54
288, 359
114, 134
75, 79
221, 237
133, 120
60, 78
37, 28
9, 11
1, 15
20, 24
16, 20
16, 21
199, 255
318, 363
56, 55
32, 55
46, 69
10, 17
6, 10
15, 28
47, 54
41, 37
12, 13
9, 10
16, 21
8, 16
6, 10
12, 26
37, 41
30, 24
16, 11
12, 21
31, 35
38, 42
18, 32
24, 24
355, 466
1565, 1905
982, 1099
116, 104
15, 19
20, 31
69, 95
239, 301
169, 166
24, 17
7, 6
16, 14
7, 13
4, 1
6, 9
5, 2
7, 7
5, 6
13, 6
6, 7
2, 5
10, 10
7, 9
6, 5
7, 6
5, 3
2, 8
3, 5
10, 7
3, 10
4, 5
6, 3
5, 3
2, 4
8, 2
3, 4
5, 2
2, 9
2, 5
5, 2
0, 6
1, 2
2, 2
4, 3
2, 3
4, 2
3, 3
2, 5
0, 5
2, 1
4, 5
1, 6
0, 3
3, 2
2, 2
0, 4
1, 0
3, 2
2, 1
2, 3
0, 3
1, 3
3, 3
1, 4
1, 4
2, 1
1, 1
2, 1
0, 3
1, 2
0, 2
1, 0
2, 1
1, 0
1, 1
0, 0
0, 1
0, 0
1, 2
2, 0
1, 0
0, 3
1, 0
1, 1
0, 1
1, 1
1, 2
1, 1
0, 2
1, 0
1, 0
0, 0
0, 0
1, 0
0, 0
0, 0
0, 0
0, 0
1, 0
0, 2
1, 0
1, 0
0, 0
0, 1
0, 1
0, 0
1, 0
0, 0
1, 0
1, 0
0, 0
0, 0
0, 0
0, 0
0, 0
0, 0
0, 0
0, 0
0, 0
0, 0
0, 0
0, 0
0, 1
0, 0
0, 0
0, 0
0, 0
0, 0
0, 0
0, 0
0, 0
0, 0
1, 0
0, 0
0, 1
0, 0
0, 0
0, 0
0, 0
0, 0
0, 0
0, 0
1, 0
0, 0
0, 0
0, 0
0, 0
0, 0
0, 0
0, 0
0, 0
0, 0
0, 0
0, 0
0, 0
0, 0
0, 0
0, 0
0, 0
0, 0
0, 0
0, 0
0, 0
0, 0
0, 0
0, 0
0, 0
0, 0
0, 0
0, 0
0, 0
0, 0
0, 0
0, 0
0, 0
0, 0
0, 0
0, 0
0, 0
0, 0
0, 0
0, 0
0, 0
0, 0
0, 0
0, 0
0, 0
0, 0
0, 0
0, 0
0, 0
0, 0
0, 0
0, 0
0, 0
0, 0
0, 0
0, 0
0, 0
0, 0
0, 0
0, 0
0, 0
0, 0
0, 0
0, 0
0, 0
0, 0
0, 0
0, 0
0, 0
0, 0
0, 0
0, 0
0, 0
0, 0
0, 0
0, 0
0, 0
0, 0
0, 0
0, 0
0, 0
0, 0
0, 0
0, 0
0, 0
0, 0
0, 0
0, 0
0, 0
0, 0
0, 0
0, 0
0, 0
0, 0
0, 0
#ENDOFDATA     end of spectrum data

File: ps__0567_0717304816_000rfs_shot_409.msa
#FORMAT      : EMSA/MAS spectral data file
#VERSION     : TC202v2.0 PIXL
#TITLE       : Novarupta (sol567) subset1
#DATE        : 02-11-2024      Date in the format DD-MMM-YYYY, for example 07-JUL-2010
#TIME        :             The time of day at which the spectrum was recorded, in 24-hour format
#OWNER       : PIXL Flight Model       (PIXL will use this to indicate which instrument took the data.)
#NPOINTS     : 4096     Number of data points in the spectrum (This can be zero for configuration only files)
#NCOLUMNS    : 2     Number of data columns in the spectrum (This can be zero for configuration only files)
#XUNITS      : eV
#YUNITS      : COUNTS
#DATATYPE    : YY
#XPERCHAN    : 7.862, 7.881   eV per channel (separate by commas if more than one detector)
#OFFSET      : 18.5, -22.4         eV of first channel  (separate by commas if more than one detector
#SIGNALTYPE  : XRF
#YP_TEMP     : 1.722
#LIVETIME    : 8.83293, 8.81488   seconds (separate by commas if more than one detector)
#REALTIME    : 10, 10.0   seconds (separate by commas if more than one detector)
#SPECTRUM    : start of spectrum data
0, 0
0, 0
0, 0
0, 0
0, 0
0, 0
0, 1
3, 0
6, 5
3, 1
4, 2
3, 7
8, 5
15, 16
47, 59
108, 145
516, 558
108, 112
33, 42
25, 25
40, 70
319, 353
111, 118
58, 74
223, 274
113, 107
63, 78
21, 32
16, 7
6, 11
26, 24
16, 14
22, 24
186, 285
320, 339
56, 71
54, 43
61, 69
12, 12
7, 9
15, 24
58, 79
29, 32
18, 14
7, 16
20, 20
16, 13
14, 11
14, 16
22, 28
22, 29
14, 6
15, 14
30, 53
46, 57
26, 21
24, 26
333, 474
1491, 1845
1076, 1062
110, 116
15, 11
17, 29
93, 93
237, 274
159, 160
29, 24
9, 16
16, 15
11, 8
7, 10
4, 2
6, 6
5, 12
4, 7
8, 11
6, 11
8, 8
8, 10
14, 11
5, 4
8, 6
6, 8
9, 9
7, 3
7, 5
9, 4
5, 3
4, 7
13, 5
5, 4
3, 2
7, 5
5, 6
2, 5
3, 7
3, 4
2, 3
3, 5
1, 0
5, 5
2, 3
2, 2
1, 4
2, 0
0, 2
2, 2
2, 1
2, 6
1, 3
0, 2
1, 4
2, 2
1, 2
2, 2
2, 2
2, 3
3, 0
2, 1
2, 4
0, 0
1, 2
1, 3
0, 3
3, 3
2, 1
2, 0
0, 3
0, 4
1, 0
1, 2
0, 1
4, 0
2, 1
1, 0
0, 0
0, 1
1, 2
0, 1
0, 0
0, 0
0, 1
0, 1
0, 0
0, 1
1, 1
0, 0
0, 1
0, 2
0, 2
0, 0
0, 0
0, 0
1, 2
0, 0
0, 2
0, 1
0, 1
0, 0
1, 0
0, 0
0, 0
1, 0
1, 1
0, 1
0, 0
0, 0
0, 0
0, 1
0, 1
0, 0
0, 0
0, 0
1, 0
0, 0
1, 0
0, 0
0, 0
0, 0
0, 0
0, 0
0, 0
0, 0
0, 0
0, 0
0, 0
0, 0
0, 0
0, 0
1, 0
0, 0
0, 0
0, 0
0, 0
0, 0
1, 0
0, 0
0, 0
0, 0
0, 0
0, 0
0, 0
0, 0
0, 0
0, 0
0, 0
0, 0
0, 0
0, 0
0, 0
0, 0
0, 0
0, 0
0, 0
0, 0
0, 0
0, 0
0, 0
0, 0
1, 0
0, 0
0, 0
0, 0
0, 0
0, 0
0, 0
0, 0
0, 0
0, 0
0, 0
0, 0
0, 0
0, 0
0, 0
0, 0
0, 0
0, 0
0, 0
0, 0
0, 0
0, 0
0, 0
0, 0
0, 0
0, 0
0, 0
0, 0
0, 0
0, 0
0, 0
0, 0
0, 0
0, 0
0, 0
0, 0
0, 0
0, 0
0, 0
0, 0
0, 0
0, 0
0, 0
0, 0
0, 0
0, 0
0, 0
0, 0
0, 0
0, 0
0, 0
0, 0
0, 0
0, 0
0, 0
0, 0
0, 0
0, 0
0, 0
0, 0
0, 0
0, 0
0, 0
0, 0
0, 0
0, 0
0, 0
0, 0
0, 0
0, 0
0, 0
0, 0
0, 0
0, 0
0, 0
#ENDOFDATA     end of spectrum data