Folder: data-repository/host_upload/02-11-2024/rqc/uplink1 (part 17)

File: ps__0567_0717304816_000rfs_shot_275.msa
#FORMAT      : EMSA/MAS spectral data file
#VERSION     : TC202v2.0 PIXL
#TITLE       : Novarupta (sol567) subset1
#DATE        : 02-11-2024      Date in the format DD-MMM-YYYY, for example 07-JUL-2010
#TIME        :             The time of day at which the spectrum was recorded, in 24-hour format
#OWNER       : PIXL Flight Model       (PIXL will use this to indicate which instrument took the data.)
#NPOINTS     : 4096     Number of data points in the spectrum (This can be zero for configuration only files)
#NCOLUMNS    : 2     Number of data columns in the spectrum (This can be zero for configuration only files)
#XUNITS      : eV
#YUNITS      : COUNTS
#DATATYPE    : YY
#XPERCHAN    : 7.862, 7.881   eV per channel (separate by commas if more than one detector)
#OFFSET      : 18.5, -22.4         eV of first channel  (separate by commas if more than one detector
#SIGNALTYPE  : XRF
#YP_TEMP     : 1.145
#LIVETIME    : 8.82493, 8.8051   seconds (separate by commas if more than one detector)
#REALTIME    : 10, 10.0   seconds (separate by commas if more than one detector)
#SPECTRUM    : start of spectrum data
0, 0
0, 0
0, 0
0, 0
0, 0
0, 0
0, 0
0, 0
4, 3
4, 3
2, 4
11, 7
11, 12
29, 24
35, 37
103, 134
526, 544
140, 146
34, 34
25, 30
58, 59
314, 300
105, 107
77, 88
248, 245
118, 135
65, 69
30, 36
8, 13
6, 9
30, 27
13, 15
15, 20
211, 232
359, 345
59, 59
52, 44
53, 37
13, 9
9, 9
17, 26
54, 71
29, 28
15, 12
11, 19
24, 22
6, 14
9, 12
11, 17
33, 39
27, 17
12, 17
15, 12
34, 36
49, 59
19, 16
29, 36
379, 467
1618, 1852
1053, 1019
123, 110
14, 16
16, 20
68, 107
251, 286
184, 145
34, 16
8, 16
11, 9
9, 8
3, 7
5, 5
7, 5
7, 6
7, 2
5, 11
8, 8
3, 7
7, 7
17, 9
2, 5
8, 7
5, 10
8, 3
1, 9
8, 3
4, 7
5, 2
6, 3
9, 3
7, 0
7, 6
4, 3
3, 5
2, 1
3, 3
2, 0
5, 4
5, 5
2, 3
1, 3
1, 3
5, 2
0, 1
1, 3
2, 3
3, 2
0, 3
2, 4
3, 3
1, 4
3, 1
1, 4
0, 2
2, 3
7, 4
3, 5
4, 1
1, 4
3, 2
2, 2
2, 3
3, 3
2, 1
0, 1
0, 4
1, 1
4, 0
0, 2
2, 1
0, 0
1, 2
0, 0
2, 1
1, 1
1, 1
1, 1
0, 0
1, 2
0, 0
0, 0
0, 0
1, 1
1, 0
0, 0
0, 0
1, 0
0, 0
1, 1
0, 2
0, 0
0, 0
0, 1
0, 0
0, 0
0, 0
0, 0
0, 0
0, 0
0, 0
0, 0
0, 1
0, 0
0, 0
0, 1
0, 1
0, 0
0, 1
0, 1
0, 0
1, 1
0, 0
0, 0
0, 0
0, 1
0, 0
0, 0
0, 0
0, 1
0, 0
0, 0
0, 0
1, 0
0, 0
0, 0
0, 1
0, 0
0, 0
0, 0
0, 0
0, 1
0, 0
0, 0
0, 0
0, 0
0, 0
0, 0
0, 0
0, 0
0, 0
0, 1
0, 0
0, 0
0, 0
0, 0
0, 0
0, 0
0, 0
0, 0
0, 0
0, 0
0, 0
0, 0
0, 0
0, 0
0, 0
0, 0
0, 0
0, 0
0, 0
0, 0
0, 0
0, 0
0, 0
0, 0
0, 0
0, 0
0, 0
0, 0
0, 0
0, 0
0, 0
0, 0
0, 0
0, 0
0, 0
0, 0
0, 0
0, 0
0, 0
0, 0
0, 0
0, 0
0, 0
0, 0
0, 0
0, 0
0, 0
0, 0
0, 0
0, 0
0, 0
0, 0
0, 0
0, 0
0, 0
0, 0
0, 0
0, 0
0, 0
0, 0
0, 0
0, 0
0, 0
0, 0
0, 0
0, 0
0, 0
0, 0
0, 0
0, 0
0, 0
0, 0
0, 0
0, 0
0, 0
0, 0
0, 0
0, 0
0, 0
0, 0
0, 0
0, 0
0, 0
0, 0
0, 0
0, 0
0, 0
0, 0
0, 0
0, 0
0, 0
0, 0
0, 0
#ENDOFDATA     end of spectrum data

File: ps__0567_0717304816_000rfs_shot_277.msa
#FORMAT      : EMSA/MAS spectral data file
#VERSION     : TC202v2.0 PIXL
#TITLE       : Novarupta (sol567) subset1
#DATE        : 02-11-2024      Date in the format DD-MMM-YYYY, for example 07-JUL-2010
#TIME        :             The time of day at which the spectrum was recorded, in 24-hour format
#OWNER       : PIXL Flight Model       (PIXL will use this to indicate which instrument took the data.)
#NPOINTS     : 4096     Number of data points in the spectrum (This can be zero for configuration only files)
#NCOLUMNS    : 2     Number of data columns in the spectrum (This can be zero for configuration only files)
#XUNITS      : eV
#YUNITS      : COUNTS
#DATATYPE    : YY
#XPERCHAN    : 7.862, 7.881   eV per channel (separate by commas if more than one detector)
#OFFSET      : 18.5, -22.4         eV of first channel  (separate by commas if more than one detector
#SIGNALTYPE  : XRF
#YP_TEMP     : 1.498
#LIVETIME    : 8.79926, 8.80006   seconds (separate by commas if more than one detector)
#REALTIME    : 10, 10.0   seconds (separate by commas if more than one detector)
#SPECTRUM    : start of spectrum data
0, 0
0, 0
0, 0
0, 0
0, 0
0, 0
0, 0
0, 0
3, 1
5, 4
5, 5
10, 15
4, 11
26, 23
36, 29
112, 117
485, 506
109, 109
35, 39
28, 22
60, 62
285, 286
104, 115
81, 67
230, 223
122, 121
61, 67
29, 24
10, 15
7, 8
26, 30
14, 22
11, 22
206, 218
323, 335
58, 50
36, 47
42, 45
29, 19
19, 11
25, 22
51, 71
27, 44
17, 18
12, 15
15, 34
13, 14
10, 6
14, 13
40, 46
20, 30
10, 18
10, 14
17, 43
43, 54
18, 23
29, 38
382, 461
1866, 2017
1196, 1119
158, 107
15, 20
19, 24
102, 128
293, 300
162, 157
17, 28
8, 8
8, 7
10, 8
8, 4
5, 4
7, 5
6, 9
8, 5
10, 5
4, 7
6, 3
5, 11
9, 9
3, 2
7, 3
2, 3
7, 3
9, 6
3, 6
7, 11
4, 6
6, 1
8, 5
4, 1
6, 2
8, 6
0, 1
2, 5
2, 2
2, 2
1, 5
5, 5
7, 6
1, 0
4, 4
5, 5
2, 5
4, 1
2, 3
1, 2
4, 5
4, 1
0, 2
5, 2
2, 1
6, 1
1, 3
1, 0
0, 3
1, 3
3, 3
1, 1
2, 2
0, 1
5, 3
6, 2
0, 2
0, 1
0, 2
2, 1
2, 1
0, 1
0, 0
1, 0
0, 1
0, 0
0, 0
0, 1
1, 1
1, 2
0, 1
1, 0
2, 1
1, 1
1, 0
1, 0
1, 0
0, 0
0, 0
0, 0
0, 2
0, 0
0, 0
0, 1
0, 1
1, 0
0, 0
0, 0
0, 1
1, 0
0, 0
0, 0
0, 0
0, 1
0, 0
0, 0
0, 0
0, 0
1, 0
0, 1
0, 0
1, 0
0, 0
0, 0
1, 1
0, 1
0, 0
0, 0
0, 1
1, 0
0, 0
0, 0
0, 0
0, 0
1, 0
0, 0
0, 0
0, 0
0, 1
0, 0
0, 0
0, 0
0, 0
0, 0
0, 0
0, 0
0, 0
1, 0
0, 0
0, 0
0, 0
0, 0
0, 0
0, 0
0, 0
0, 0
0, 0
0, 0
0, 0
0, 0
0, 0
0, 0
0, 0
0, 0
0, 1
0, 0
0, 0
0, 0
0, 0
0, 0
0, 0
0, 0
0, 0
0, 0
0, 0
0, 0
0, 0
0, 0
0, 0
0, 0
0, 0
0, 0
0, 1
0, 0
0, 0
0, 0
0, 0
0, 0
0, 0
0, 0
0, 0
0, 0
0, 0
0, 0
0, 0
0, 0
0, 0
0, 0
0, 0
0, 0
0, 0
0, 0
0, 0
0, 0
0, 0
0, 0
0, 0
0, 0
0, 0
0, 0
0, 0
0, 0
0, 0
0, 0
0, 0
0, 0
0, 0
0, 0
0, 0
0, 0
0, 0
0, 0
0, 0
0, 0
0, 0
0, 0
0, 0
0, 0
0, 0
0, 0
0, 0
0, 0
0, 0
0, 0
0, 0
0, 0
0, 0
0, 0
0, 0
0, 0
0, 0
0, 0
0, 0
0, 0
0, 0
0, 0
0, 0
#ENDOFDATA     end of spectrum data

File: ps__0567_0717304816_000rfs_shot_278.msa
#FORMAT      : EMSA/MAS spectral data file
#VERSION     : TC202v2.0 PIXL
#TITLE       : Novarupta (sol567) subset1
#DATE        : 02-11-2024      Date in the format DD-MMM-YYYY, for example 07-JUL-2010
#TIME        :             The time of day at which the spectrum was recorded, in 24-hour format
#OWNER       : PIXL Flight Model       (PIXL will use this to indicate which instrument took the data.)
#NPOINTS     : 4096     Number of data points in the spectrum (This can be zero for configuration only files)
#NCOLUMNS    : 2     Number of data columns in the spectrum (This can be zero for configuration only files)
#XUNITS      : eV
#YUNITS      : COUNTS
#DATATYPE    : YY
#XPERCHAN    : 7.862, 7.881   eV per channel (separate by commas if more than one detector)
#OFFSET      : 18.5, -22.4         eV of first channel  (separate by commas if more than one detector
#SIGNALTYPE  : XRF
#YP_TEMP     : 1.177
#LIVETIME    : 8.82679, 8.81291   seconds (separate by commas if more than one detector)
#REALTIME    : 10, 10.0   seconds (separate by commas if more than one detector)
#SPECTRUM    : start of spectrum data
0, 0
0, 0
0, 0
0, 0
0, 0
0, 0
0, 0
1, 0
3, 2
3, 1
1, 2
13, 7
16, 18
24, 15
42, 54
105, 112
474, 534
126, 108
30, 48
29, 18
44, 75
245, 332
133, 112
73, 79
262, 239
124, 102
71, 89
26, 26
12, 13
10, 12
19, 32
20, 19
14, 19
213, 273
341, 336
50, 36
43, 55
50, 48
19, 15
6, 16
12, 29
66, 65
45, 36
11, 13
12, 15
24, 21
15, 16
10, 16
16, 17
32, 29
29, 19
12, 14
14, 24
34, 35
64, 56
22, 27
27, 27
407, 474
1661, 1895
1129, 1062
107, 109
18, 17
19, 25
91, 99
250, 279
154, 156
20, 20
10, 5
16, 17
9, 8
7, 2
7, 5
5, 5
6, 4
7, 7
7, 8
9, 2
9, 5
7, 7
12, 9
5, 8
8, 4
5, 9
3, 3
8, 7
5, 6
10, 5
8, 6
2, 4
2, 9
10, 4
2, 4
3, 4
2, 5
3, 6
6, 2
3, 2
3, 3
1, 3
1, 4
0, 4
1, 3
5, 0
5, 2
1, 2
2, 5
3, 4
3, 1
2, 1
2, 1
1, 1
1, 3
2, 1
1, 0
0, 2
1, 6
2, 1
3, 2
1, 3
2, 2
3, 1
2, 2
0, 1
0, 3
0, 4
1, 0
1, 2
1, 1
2, 0
0, 0
1, 1
0, 0
3, 2
1, 2
2, 0
0, 0
2, 1
1, 1
0, 2
3, 2
3, 1
0, 0
0, 0
0, 0
1, 0
1, 0
3, 1
0, 1
0, 0
1, 1
1, 1
0, 2
0, 0
0, 1
0, 0
0, 0
1, 0
0, 0
1, 2
1, 1
1, 0
0, 1
0, 0
0, 0
0, 0
1, 0
0, 0
0, 0
0, 0
1, 0
0, 2
0, 0
0, 0
0, 1
0, 0
0, 0
0, 0
1, 0
0, 0
0, 0
0, 0
0, 0
0, 0
0, 0
0, 0
0, 0
0, 0
0, 0
0, 0
0, 0
1, 0
0, 0
0, 0
0, 0
0, 0
0, 0
1, 0
0, 0
0, 0
0, 0
0, 0
0, 0
0, 0
0, 0
0, 0
0, 0
0, 0
0, 0
0, 0
0, 0
0, 0
0, 0
0, 0
0, 0
0, 0
0, 0
0, 0
0, 0
0, 0
0, 0
0, 0
0, 0
0, 0
0, 0
0, 0
0, 0
0, 0
0, 0
0, 0
0, 0
0, 0
0, 0
1, 0
0, 0
0, 0
0, 0
0, 0
0, 0
0, 0
0, 0
0, 0
0, 0
0, 0
0, 0
0, 0
0, 0
0, 0
0, 0
0, 0
0, 0
0, 0
0, 0
0, 0
0, 0
0, 0
0, 0
0, 0
0, 0
0, 0
0, 0
0, 0
0, 0
0, 0
0, 0
0, 0
0, 0
0, 0
0, 0
0, 0
0, 0
0, 0
0, 0
0, 0
0, 0
0, 0
0, 0
0, 0
0, 0
0, 0
0, 0
0, 0
0, 0
0, 0
0, 0
0, 0
0, 0
0, 0
0, 0
0, 0
0, 0
0, 0
0, 0
0, 0
0, 0
#ENDOFDATA     end of spectrum data

File: ps__0567_0717304816_000rfs_shot_279.msa
#FORMAT      : EMSA/MAS spectral data file
#VERSION     : TC202v2.0 PIXL
#TITLE       : Novarupta (sol567) subset1
#DATE        : 02-11-2024      Date in the format DD-MMM-YYYY, for example 07-JUL-2010
#TIME        :             The time of day at which the spectrum was recorded, in 24-hour format
#OWNER       : PIXL Flight Model       (PIXL will use this to indicate which instrument took the data.)
#NPOINTS     : 4096     Number of data points in the spectrum (This can be zero for configuration only files)
#NCOLUMNS    : 2     Number of data columns in the spectrum (This can be zero for configuration only files)
#XUNITS      : eV
#YUNITS      : COUNTS
#DATATYPE    : YY
#XPERCHAN    : 7.862, 7.881   eV per channel (separate by commas if more than one detector)
#OFFSET      : 18.5, -22.4         eV of first channel  (separate by commas if more than one detector
#SIGNALTYPE  : XRF
#YP_TEMP     : 1.113
#LIVETIME    : 8.82949, 8.80421   seconds (separate by commas if more than one detector)
#REALTIME    : 10, 10.0   seconds (separate by commas if more than one detector)
#SPECTRUM    : start of spectrum data
0, 0
0, 0
0, 0
0, 0
0, 0
0, 0
0, 1
1, 0
3, 4
4, 0
3, 8
11, 6
13, 10
18, 23
54, 49
128, 127
548, 551
131, 114
29, 36
26, 29
62, 69
297, 347
133, 126
75, 81
252, 248
127, 111
78, 97
27, 23
7, 12
7, 7
24, 28
22, 13
22, 22
223, 224
323, 327
65, 43
62, 47
48, 59
16, 13
12, 8
15, 20
63, 62
38, 32
12, 12
12, 13
15, 19
24, 14
12, 8
20, 21
33, 38
27, 30
12, 11
20, 13
26, 43
55, 49
24, 17
33, 42
374, 471
1717, 1849
1150, 1029
134, 106
10, 15
25, 19
86, 109
268, 287
160, 147
24, 18
10, 12
7, 20
9, 9
3, 6
7, 3
7, 8
7, 6
3, 9
11, 6
6, 4
7, 4
13, 14
9, 10
6, 11
5, 6
2, 6
2, 7
7, 6
6, 3
6, 4
9, 4
5, 8
2, 5
8, 5
4, 6
3, 3
4, 5
1, 3
3, 2
1, 3
5, 0
3, 0
10, 4
0, 4
1, 3
4, 1
4, 1
1, 4
2, 1
2, 3
3, 5
4, 0
3, 0
1, 6
2, 3
5, 3
0, 2
2, 2
3, 2
0, 4
4, 1
0, 3
1, 3
1, 0
2, 0
2, 4
3, 2
1, 1
1, 2
1, 1
0, 1
1, 1
1, 1
0, 0
1, 0
0, 0
1, 0
2, 1
2, 0
1, 0
0, 0
0, 0
0, 0
0, 1
0, 0
0, 0
0, 2
0, 0
1, 1
0, 0
0, 0
0, 0
1, 0
0, 0
1, 0
0, 0
0, 1
0, 0
0, 0
0, 0
0, 0
0, 0
0, 0
0, 0
0, 1
0, 1
0, 1
1, 1
0, 0
0, 0
0, 0
1, 0
0, 0
0, 1
0, 0
0, 2
0, 0
0, 0
0, 0
0, 0
0, 1
0, 0
0, 0
0, 0
0, 0
0, 1
0, 0
0, 2
0, 0
0, 0
0, 0
0, 0
0, 0
0, 0
0, 0
0, 1
0, 0
0, 0
0, 0
0, 0
0, 0
0, 0
0, 0
0, 0
0, 0
0, 0
0, 0
0, 0
1, 0
0, 0
0, 0
0, 0
0, 0
0, 0
0, 0
0, 0
0, 0
0, 0
0, 0
0, 0
0, 0
0, 0
0, 0
0, 0
0, 0
0, 0
0, 0
0, 0
0, 0
0, 0
0, 0
0, 0
0, 0
0, 0
0, 0
0, 0
0, 0
0, 0
0, 0
0, 0
0, 0
0, 0
0, 0
0, 0
0, 0
0, 0
0, 0
0, 0
0, 0
0, 0
0, 0
0, 0
0, 0
0, 0
0, 0
0, 0
0, 0
0, 0
0, 0
0, 0
0, 0
0, 0
0, 0
0, 0
0, 0
0, 0
0, 0
0, 0
0, 0
0, 0
0, 0
0, 0
0, 0
0, 0
0, 0
0, 0
0, 0
0, 0
0, 0
0, 0
0, 0
0, 0
0, 0
0, 0
0, 0
0, 0
0, 0
0, 0
0, 0
0, 0
0, 0
0, 0
0, 0
0, 0
0, 0
0, 0
0, 0
#ENDOFDATA     end of spectrum data

File: ps__0567_0717304816_000rfs_shot_283.msa
#FORMAT      : EMSA/MAS spectral data file
#VERSION     : TC202v2.0 PIXL
#TITLE       : Novarupta (sol567) subset1
#DATE        : 02-11-2024      Date in the format DD-MMM-YYYY, for example 07-JUL-2010
#TIME        :             The time of day at which the spectrum was recorded, in 24-hour format
#OWNER       : PIXL Flight Model       (PIXL will use this to indicate which instrument took the data.)
#NPOINTS     : 4096     Number of data points in the spectrum (This can be zero for configuration only files)
#NCOLUMNS    : 2     Number of data columns in the spectrum (This can be zero for configuration only files)
#XUNITS      : eV
#YUNITS      : COUNTS
#DATATYPE    : YY
#XPERCHAN    : 7.862, 7.881   eV per channel (separate by commas if more than one detector)
#OFFSET      : 18.5, -22.4         eV of first channel  (separate by commas if more than one detector
#SIGNALTYPE  : XRF
#YP_TEMP     : 1.273
#LIVETIME    : 8.82332, 8.80567   seconds (separate by commas if more than one detector)
#REALTIME    : 10, 10.0   seconds (separate by commas if more than one detector)
#SPECTRUM    : start of spectrum data
0, 0
0, 0
0, 0
0, 0
0, 0
0, 0
0, 1
1, 0
2, 2
4, 7
5, 3
9, 8
16, 13
20, 37
62, 47
106, 126
506, 553
136, 124
24, 30
19, 20
43, 66
246, 287
121, 108
85, 89
264, 251
120, 125
65, 77
33, 28
8, 6
6, 10
25, 29
18, 18
18, 27
200, 255
347, 372
64, 46
45, 50
53, 59
8, 13
13, 7
22, 25
46, 76
20, 39
9, 17
17, 17
20, 17
11, 21
12, 7
17, 17
19, 31
26, 26
19, 17
18, 8
31, 37
42, 47
23, 25
28, 40
342, 509
1589, 1938
1050, 1014
110, 117
22, 18
18, 26
81, 89
299, 288
152, 183
22, 19
4, 6
15, 12
5, 9
7, 4
5, 6
7, 4
8, 9
6, 9
11, 11
7, 6
8, 9
8, 9
12, 8
8, 3
6, 6
5, 5
7, 7
6, 4
4, 5
6, 1
6, 6
10, 6
5, 6
1, 4
3, 4
4, 5
5, 6
3, 7
2, 5
4, 5
4, 3
0, 3
4, 5
2, 6
2, 2
3, 4
3, 7
2, 7
1, 4
4, 2
2, 1
2, 4
3, 1
5, 3
1, 1
0, 0
2, 0
2, 2
3, 1
4, 3
3, 3
3, 3
3, 0
2, 1
1, 1
3, 5
2, 1
0, 0
1, 3
1, 1
1, 3
0, 4
3, 4
2, 0
0, 2
1, 1
0, 1
1, 1
1, 1
0, 1
1, 0
0, 0
0, 2
0, 0
0, 1
0, 0
0, 0
0, 0
0, 0
0, 3
0, 0
0, 0
0, 0
0, 0
0, 1
1, 1
0, 0
1, 1
0, 1
0, 0
1, 2
0, 1
0, 1
0, 0
0, 0
0, 0
2, 0
0, 0
0, 1
0, 0
0, 0
0, 1
0, 0
0, 2
0, 0
0, 0
1, 2
0, 0
1, 0
0, 0
0, 0
0, 0
0, 0
0, 0
0, 0
0, 0
1, 0
0, 0
0, 0
0, 0
0, 0
0, 0
0, 1
0, 0
0, 0
0, 0
0, 0
0, 0
0, 0
0, 0
0, 0
0, 0
1, 0
0, 0
0, 0
0, 0
0, 0
0, 0
0, 0
0, 0
0, 0
0, 0
0, 0
0, 0
0, 0
0, 0
0, 0
0, 0
0, 0
0, 0
0, 0
0, 0
0, 0
0, 0
0, 0
0, 0
0, 0
0, 0
0, 0
0, 0
0, 0
0, 0
0, 0
0, 0
0, 0
0, 0
0, 0
0, 0
0, 0
0, 0
0, 0
0, 0
0, 0
0, 0
0, 0
0, 0
0, 0
0, 0
0, 0
0, 0
0, 0
0, 0
0, 0
0, 0
0, 0
0, 0
0, 0
0, 0
0, 0
0, 0
0, 0
0, 0
0, 0
0, 0
0, 0
0, 0
0, 0
0, 0
0, 0
0, 0
0, 0
0, 0
0, 0
0, 0
0, 0
0, 0
0, 0
0, 0
0, 0
0, 0
0, 0
0, 0
0, 0
0, 0
0, 0
0, 0
0, 0
0, 0
0, 0
0, 0
0, 0
0, 0
0, 0
0, 0
0, 0
0, 0
0, 0
#ENDOFDATA     end of spectrum data

File: ps__0567_0717304816_000rfs_shot_284.msa
#FORMAT      : EMSA/MAS spectral data file
#VERSION     : TC202v2.0 PIXL
#TITLE       : Novarupta (sol567) subset1
#DATE        : 02-11-2024      Date in the format DD-MMM-YYYY, for example 07-JUL-2010
#TIME        :             The time of day at which the spectrum was recorded, in 24-hour format
#OWNER       : PIXL Flight Model       (PIXL will use this to indicate which instrument took the data.)
#NPOINTS     : 4096     Number of data points in the spectrum (This can be zero for configuration only files)
#NCOLUMNS    : 2     Number of data columns in the spectrum (This can be zero for configuration only files)
#XUNITS      : eV
#YUNITS      : COUNTS
#DATATYPE    : YY
#XPERCHAN    : 7.862, 7.881   eV per channel (separate by commas if more than one detector)
#OFFSET      : 18.5, -22.4         eV of first channel  (separate by commas if more than one detector
#SIGNALTYPE  : XRF
#YP_TEMP     : 1.273
#LIVETIME    : 8.82256, 8.80117   seconds (separate by commas if more than one detector)
#REALTIME    : 10, 10.0   seconds (separate by commas if more than one detector)
#SPECTRUM    : start of spectrum data
0, 0
0, 0
0, 0
0, 0
0, 0
0, 0
0, 0
0, 0
6, 7
7, 1
4, 1
15, 8
16, 10
21, 25
36, 58
93, 114
524, 593
134, 120
23, 33
27, 22
49, 57
286, 351
141, 122
88, 80
251, 245
110, 125
69, 80
28, 33
13, 5
11, 13
18, 37
14, 18
14, 18
237, 276
344, 366
54, 59
47, 46
46, 54
9, 13
11, 14
26, 17
48, 73
43, 41
21, 18
11, 13
23, 23
16, 15
12, 11
16, 14
31, 35
27, 26
8, 9
12, 21
34, 50
48, 36
24, 29
26, 43
366, 507
1626, 1898
1077, 957
117, 82
16, 21
15, 20
92, 113
272, 280
182, 150
22, 21
8, 10
10, 12
11, 15
10, 5
9, 9
5, 10
8, 7
5, 11
9, 7
2, 13
10, 6
13, 10
10, 15
7, 10
7, 6
2, 3
4, 4
7, 7
4, 3
7, 5
4, 8
7, 8
4, 2
7, 2
5, 6
4, 7
6, 3
9, 4
9, 1
8, 4
6, 3
4, 8
5, 5
3, 5
1, 1
1, 2
1, 5
2, 3
0, 3
0, 3
2, 1
3, 3
2, 0
2, 4
2, 2
1, 1
0, 0
3, 2
4, 3
3, 2
5, 3
3, 0
0, 2
2, 2
1, 3
1, 5
0, 1
1, 2
0, 1
2, 0
1, 3
1, 0
1, 0
3, 0
0, 0
2, 1
0, 1
0, 0
0, 0
1, 0
1, 1
0, 1
2, 2
0, 0
0, 1
2, 1
0, 0
1, 0
1, 1
2, 2
0, 0
0, 1
0, 1
1, 0
1, 0
1, 0
0, 1
1, 0
0, 0
0, 0
1, 0
1, 0
0, 0
0, 1
0, 0
1, 0
0, 0
0, 0
0, 0
0, 0
0, 1
0, 0
0, 0
0, 1
0, 0
2, 0
0, 0
0, 1
0, 1
1, 0
0, 0
0, 1
0, 0
0, 0
2, 1
1, 0
1, 0
0, 1
0, 0
0, 0
0, 0
0, 0
0, 0
0, 0
0, 0
0, 0
0, 0
0, 0
0, 0
0, 0
0, 0
0, 0
0, 1
0, 0
0, 0
0, 0
0, 0
0, 0
0, 0
0, 0
0, 0
0, 0
0, 0
0, 0
0, 0
0, 0
0, 0
0, 0
0, 0
0, 0
0, 0
0, 0
0, 0
0, 0
0, 0
0, 0
0, 0
0, 0
0, 0
0, 0
0, 0
0, 0
0, 0
0, 0
0, 0
0, 0
0, 0
0, 0
0, 0
0, 0
0, 0
0, 0
0, 0
0, 0
0, 0
0, 0
0, 0
0, 0
0, 0
0, 0
0, 0
0, 0
0, 0
0, 0
0, 0
0, 0
0, 0
0, 0
0, 0
0, 0
0, 0
0, 0
0, 0
0, 0
0, 0
0, 0
0, 0
0, 0
0, 0
0, 0
0, 0
0, 0
0, 0
0, 0
0, 0
0, 0
0, 0
0, 0
0, 0
0, 0
0, 0
0, 0
0, 0
0, 0
0, 0
0, 0
0, 0
0, 0
0, 0
0, 0
0, 0
0, 0
0, 0
0, 0
0, 0
0, 0
0, 0
#ENDOFDATA     end of spectrum data

File: ps__0567_0717304816_000rfs_shot_285.msa
#FORMAT      : EMSA/MAS spectral data file
#VERSION     : TC202v2.0 PIXL
#TITLE       : Novarupta (sol567) subset1
#DATE        : 02-11-2024      Date in the format DD-MMM-YYYY, for example 07-JUL-2010
#TIME        :             The time of day at which the spectrum was recorded, in 24-hour format
#OWNER       : PIXL Flight Model       (PIXL will use this to indicate which instrument took the data.)
#NPOINTS     : 4096     Number of data points in the spectrum (This can be zero for configuration only files)
#NCOLUMNS    : 2     Number of data columns in the spectrum (This can be zero for configuration only files)
#XUNITS      : eV
#YUNITS      : COUNTS
#DATATYPE    : YY
#XPERCHAN    : 7.862, 7.881   eV per channel (separate by commas if more than one detector)
#OFFSET      : 18.5, -22.4         eV of first channel  (separate by commas if more than one detector
#SIGNALTYPE  : XRF
#YP_TEMP     : 1.305
#LIVETIME    : 8.81589, 8.8084   seconds (separate by commas if more than one detector)
#REALTIME    : 10, 10.0   seconds (separate by commas if more than one detector)
#SPECTRUM    : start of spectrum data
0, 0
0, 0
0, 0
0, 0
0, 0
0, 0
0, 0
0, 2
2, 4
2, 2
3, 4
12, 5
13, 15
23, 24
44, 47
108, 128
510, 582
104, 113
34, 30
26, 37
56, 56
309, 359
107, 133
78, 95
250, 260
108, 106
80, 73
37, 24
10, 7
10, 10
26, 32
18, 22
21, 21
206, 267
371, 381
51, 57
44, 58
40, 54
11, 10
6, 12
21, 26
61, 60
39, 32
14, 16
9, 20
20, 24
12, 16
14, 13
15, 14
30, 29
31, 26
15, 16
18, 19
37, 40
44, 57
23, 17
27, 31
400, 490
1675, 1881
1084, 1045
115, 120
17, 17
20, 24
101, 90
280, 301
172, 160
33, 19
11, 16
16, 8
10, 9
8, 5
5, 6
8, 2
4, 11
8, 10
10, 14
3, 7
7, 5
4, 15
7, 12
6, 5
4, 8
5, 7
2, 5
9, 2
4, 9
9, 5
8, 3
2, 7
4, 3
8, 4
2, 4
5, 3
4, 5
3, 5
5, 3
0, 4
5, 3
2, 4
6, 2
4, 2
4, 2
2, 3
2, 2
1, 2
4, 3
1, 6
2, 3
1, 3
1, 4
4, 1
2, 0
1, 4
1, 4
3, 2
3, 5
3, 2
1, 1
1, 0
3, 1
2, 2
1, 2
1, 3
2, 1
2, 0
1, 2
1, 1
1, 3
0, 2
0, 1
2, 2
1, 2
1, 0
2, 1
1, 1
0, 2
1, 1
0, 1
0, 1
1, 0
0, 1
1, 2
0, 0
0, 0
0, 0
0, 1
1, 0
0, 0
0, 0
1, 1
0, 1
2, 1
0, 2
0, 0
0, 2
0, 1
0, 0
0, 0
0, 0
0, 0
0, 1
0, 1
0, 0
0, 0
1, 0
0, 2
0, 0
0, 0
0, 0
0, 0
1, 1
0, 0
0, 1
0, 0
0, 0
1, 0
0, 0
0, 0
0, 0
0, 0
0, 0
0, 0
0, 0
0, 1
0, 0
0, 0
0, 0
0, 0
0, 0
0, 0
0, 0
0, 0
0, 0
0, 0
0, 0
0, 0
0, 0
0, 0
0, 0
0, 0
0, 0
0, 0
0, 0
0, 0
0, 0
0, 0
0, 0
0, 1
0, 0
0, 0
0, 0
0, 0
0, 1
0, 0
0, 0
0, 0
0, 0
0, 0
0, 0
0, 0
0, 0
0, 0
0, 0
0, 0
0, 0
0, 0
0, 0
0, 0
0, 0
0, 0
0, 0
0, 0
0, 0
0, 0
0, 0
0, 0
0, 0
0, 0
0, 0
0, 0
0, 0
0, 0
0, 0
0, 0
0, 0
0, 0
0, 0
0, 0
0, 0
0, 0
0, 0
0, 0
0, 0
0, 0
0, 0
0, 0
0, 0
0, 0
0, 0
0, 0
0, 0
0, 0
0, 0
0, 0
0, 0
0, 0
0, 0
0, 0
0, 0
0, 0
0, 0
0, 0
0, 0
0, 0
0, 0
0, 0
0, 0
0, 0
0, 0
0, 0
0, 0
0, 0
0, 0
0, 0
0, 0
0, 0
0, 0
0, 0
0, 0
0, 0
0, 0
0, 0
0, 0
0, 0
#ENDOFDATA     end of spectrum data

File: ps__0567_0717304816_000rfs_shot_287.msa
#FORMAT      : EMSA/MAS spectral data file
#VERSION     : TC202v2.0 PIXL
#TITLE       : Novarupta (sol567) subset1
#DATE        : 02-11-2024      Date in the format DD-MMM-YYYY, for example 07-JUL-2010
#TIME        :             The time of day at which the spectrum was recorded, in 24-hour format
#OWNER       : PIXL Flight Model       (PIXL will use this to indicate which instrument took the data.)
#NPOINTS     : 4096     Number of data points in the spectrum (This can be zero for configuration only files)
#NCOLUMNS    : 2     Number of data columns in the spectrum (This can be zero for configuration only files)
#XUNITS      : eV
#YUNITS      : COUNTS
#DATATYPE    : YY
#XPERCHAN    : 7.862, 7.881   eV per channel (separate by commas if more than one detector)
#OFFSET      : 18.5, -22.4         eV of first channel  (separate by commas if more than one detector
#SIGNALTYPE  : XRF
#YP_TEMP     : 1.466
#LIVETIME    : 8.8188, 8.814   seconds (separate by commas if more than one detector)
#REALTIME    : 10, 10.0   seconds (separate by commas if more than one detector)
#SPECTRUM    : start of spectrum data
0, 0
0, 0
0, 0
0, 0
0, 0
0, 0
0, 0
0, 2
2, 3
1, 3
4, 3
15, 10
11, 15
17, 32
45, 51
115, 117
522, 596
121, 116
38, 34
16, 34
59, 53
315, 311
118, 116
80, 97
257, 289
132, 144
71, 76
22, 28
10, 13
7, 6
31, 29
16, 17
18, 17
212, 213
340, 397
67, 53
60, 47
44, 56
17, 14
11, 10
18, 26
56, 66
49, 40
15, 18
16, 19
18, 24
22, 15
10, 17
19, 19
34, 35
25, 25
15, 18
14, 20
33, 40
45, 55
15, 22
29, 42
381, 521
1638, 1856
1130, 1068
109, 105
27, 12
17, 28
93, 105
235, 288
136, 154
17, 16
14, 11
14, 8
8, 8
5, 3
3, 7
7, 7
8, 10
5, 9
8, 13
6, 7
6, 4
7, 7
11, 14
4, 1
7, 5
5, 8
3, 9
5, 9
5, 5
3, 3
9, 6
4, 4
6, 5
8, 3
3, 3
1, 3
4, 3
2, 3
4, 1
6, 5
4, 4
4, 4
2, 5
2, 1
5, 3
4, 4
3, 3
1, 1
4, 3
2, 2
1, 4
1, 1
5, 1
1, 3
2, 2
1, 1
4, 1
0, 0
2, 1
5, 6
3, 1
1, 2
2, 1
3, 2
1, 1
1, 1
4, 2
2, 2
1, 3
0, 0
2, 1
0, 2
1, 1
2, 1
0, 3
1, 1
0, 1
0, 0
0, 0
1, 2
0, 1
1, 1
0, 1
0, 1
0, 0
1, 1
0, 0
3, 1
0, 3
0, 3
1, 0
0, 0
0, 3
0, 1
0, 1
0, 1
0, 0
0, 0
0, 0
0, 0
0, 0
0, 1
0, 0
1, 0
0, 0
0, 0
0, 0
0, 0
2, 0
0, 1
1, 0
0, 0
1, 0
0, 0
0, 0
0, 1
0, 0
0, 0
0, 0
0, 0
0, 0
0, 0
0, 0
0, 0
1, 0
3, 0
0, 0
0, 2
0, 0
0, 0
0, 0
0, 0
0, 0
0, 0
0, 0
0, 0
0, 0
0, 0
0, 0
0, 0
0, 0
0, 0
0, 0
0, 0
0, 0
0, 0
0, 0
0, 0
0, 0
0, 0
0, 0
0, 0
0, 0
0, 0
0, 0
0, 0
0, 0
0, 0
0, 0
0, 0
0, 0
0, 0
0, 0
0, 0
0, 0
0, 0
0, 0
0, 0
0, 0
0, 0
0, 0
0, 0
0, 0
0, 0
0, 0
0, 0
0, 0
0, 0
0, 0
0, 0
0, 0
0, 0
0, 0
0, 0
0, 0
0, 0
0, 0
0, 0
0, 0
0, 0
0, 0
0, 0
0, 0
0, 0
0, 0
0, 0
0, 0
0, 0
0, 0
0, 0
0, 0
0, 0
0, 0
0, 0
0, 0
0, 0
0, 0
0, 0
0, 0
0, 0
0, 0
0, 0
0, 0
0, 0
0, 0
0, 0
0, 0
0, 0
0, 0
0, 0
0, 0
0, 0
0, 0
0, 0
0, 0
0, 0
0, 0
0, 0
0, 0
0, 0
0, 0
0, 0
0, 0
0, 0
0, 0
0, 0
0, 0
#ENDOFDATA     end of spectrum data

File: ps__0567_0717304816_000rfs_shot_288.msa
#FORMAT      : EMSA/MAS spectral data file
#VERSION     : TC202v2.0 PIXL
#TITLE       : Novarupta (sol567) subset1
#DATE        : 02-11-2024      Date in the format DD-MMM-YYYY, for example 07-JUL-2010
#TIME        :             The time of day at which the spectrum was recorded, in 24-hour format
#OWNER       : PIXL Flight Model       (PIXL will use this to indicate which instrument took the data.)
#NPOINTS     : 4096     Number of data points in the spectrum (This can be zero for configuration only files)
#NCOLUMNS    : 2     Number of data columns in the spectrum (This can be zero for configuration only files)
#XUNITS      : eV
#YUNITS      : COUNTS
#DATATYPE    : YY
#XPERCHAN    : 7.862, 7.881   eV per channel (separate by commas if more than one detector)
#OFFSET      : 18.5, -22.4         eV of first channel  (separate by commas if more than one detector
#SIGNALTYPE  : XRF
#YP_TEMP     : 1.466
#LIVETIME    : 8.8254, 8.82349   seconds (separate by commas if more than one detector)
#REALTIME    : 10, 10.0   seconds (separate by commas if more than one detector)
#SPECTRUM    : start of spectrum data
0, 0
0, 0
0, 0
0, 0
0, 0
0, 0
0, 0
1, 0
5, 5
3, 4
3, 4
9, 7
13, 9
13, 24
47, 36
115, 143
531, 515
128, 121
30, 30
24, 30
51, 52
283, 337
124, 120
84, 91
222, 229
134, 135
84, 63
32, 27
14, 12
6, 10
28, 37
12, 16
11, 18
220, 242
343, 323
62, 51
45, 47
54, 51
26, 10
8, 11
16, 16
56, 65
35, 33
12, 18
17, 18
25, 18
11, 22
7, 7
16, 20
26, 39
23, 24
10, 14
12, 12
35, 36
59, 44
18, 24
36, 33
397, 467
1740, 1792
1154, 989
158, 98
12, 20
22, 23
79, 113
276, 265
162, 143
19, 24
10, 11
15, 8
7, 7
2, 5
6, 5
8, 10
5, 5
5, 9
6, 4
8, 9
3, 9
12, 13
9, 8
6, 3
2, 9
6, 4
5, 4
3, 2
5, 7
3, 1
7, 4
6, 7
6, 6
2, 3
5, 2
4, 3
7, 3
8, 4
1, 4
6, 5
2, 3
4, 2
1, 0
4, 2
3, 4
0, 2
3, 2
0, 2
1, 2
2, 4
4, 2
3, 3
1, 3
2, 5
3, 1
1, 4
1, 0
0, 4
2, 3
0, 3
1, 6
2, 2
2, 5
0, 0
2, 2
2, 2
2, 3
0, 2
2, 2
1, 1
1, 3
2, 3
0, 0
1, 2
0, 1
1, 1
3, 3
1, 2
0, 1
1, 2
2, 0
1, 1
0, 0
0, 1
0, 1
1, 0
0, 1
0, 0
2, 1
0, 1
1, 0
1, 0
1, 1
1, 0
0, 0
1, 0
0, 1
1, 0
0, 2
1, 1
0, 0
0, 0
0, 0
0, 0
0, 0
0, 0
0, 0
1, 0
0, 0
0, 1
0, 0
0, 0
0, 0
1, 0
1, 0
0, 0
2, 0
0, 0
0, 0
0, 0
0, 0
0, 0
0, 0
0, 0
0, 0
0, 2
0, 0
0, 1
0, 0
0, 0
0, 0
0, 0
0, 0
0, 0
0, 0
0, 0
0, 0
0, 0
0, 0
0, 0
0, 0
0, 0
0, 0
0, 0
0, 0
0, 0
0, 0
0, 0
0, 0
0, 0
0, 0
0, 0
0, 0
0, 0
0, 0
0, 0
0, 0
0, 0
0, 0
0, 0
0, 0
0, 0
0, 0
0, 0
0, 0
0, 0
0, 0
0, 0
0, 0
0, 0
0, 0
0, 0
0, 0
0, 0
0, 0
0, 0
0, 0
0, 0
0, 0
0, 0
0, 0
0, 0
0, 0
0, 0
0, 0
0, 0
0, 0
0, 0
0, 0
0, 0
0, 0
0, 0
0, 0
0, 0
0, 0
0, 0
0, 0
0, 0
0, 0
0, 0
0, 0
0, 0
0, 0
0, 0
0, 0
0, 0
0, 0
0, 0
0, 0
0, 0
0, 0
0, 0
0, 0
0, 0
0, 0
0, 0
0, 0
0, 0
0, 0
0, 0
0, 0
0, 0
0, 0
0, 0
0, 0
0, 0
0, 0
0, 0
0, 0
0, 0
0, 0
0, 0
0, 0
0, 0
0, 0
0, 0
0, 0
#ENDOFDATA     end of spectrum data