Folder: data-repository/host_upload/02-11-2024/rqc/uplink1 (part 10)

File: ps__0567_0717304816_000rfs_shot_148.msa
#FORMAT      : EMSA/MAS spectral data file
#VERSION     : TC202v2.0 PIXL
#TITLE       : Novarupta (sol567) subset1
#DATE        : 02-11-2024      Date in the format DD-MMM-YYYY, for example 07-JUL-2010
#TIME        :             The time of day at which the spectrum was recorded, in 24-hour format
#OWNER       : PIXL Flight Model       (PIXL will use this to indicate which instrument took the data.)
#NPOINTS     : 4096     Number of data points in the spectrum (This can be zero for configuration only files)
#NCOLUMNS    : 2     Number of data columns in the spectrum (This can be zero for configuration only files)
#XUNITS      : eV
#YUNITS      : COUNTS
#DATATYPE    : YY
#XPERCHAN    : 7.862, 7.881   eV per channel (separate by commas if more than one detector)
#OFFSET      : 18.5, -22.4         eV of first channel  (separate by commas if more than one detector
#SIGNALTYPE  : XRF
#YP_TEMP     : 0.022
#LIVETIME    : 8.82849, 8.79902   seconds (separate by commas if more than one detector)
#REALTIME    : 10, 10.0   seconds (separate by commas if more than one detector)
#SPECTRUM    : start of spectrum data
0, 0
0, 0
0, 0
0, 0
0, 0
0, 0
0, 0
0, 1
4, 5
1, 7
4, 4
7, 6
12, 19
22, 20
38, 47
115, 135
471, 564
120, 124
42, 22
15, 26
43, 58
280, 331
123, 139
57, 79
220, 230
110, 116
63, 77
31, 29
14, 8
9, 11
22, 26
17, 16
22, 31
177, 272
329, 360
51, 57
41, 55
48, 53
8, 12
6, 9
19, 22
49, 76
29, 39
12, 12
11, 20
17, 20
16, 16
6, 13
12, 15
19, 37
23, 24
14, 12
8, 11
36, 33
36, 61
15, 20
32, 41
416, 543
1579, 1923
968, 1050
86, 89
8, 16
21, 19
88, 108
250, 290
137, 148
18, 20
9, 10
5, 15
15, 7
8, 5
2, 9
2, 6
4, 6
7, 6
6, 9
9, 10
6, 9
9, 8
10, 15
9, 9
0, 5
3, 6
4, 5
9, 2
8, 2
5, 3
3, 10
7, 8
5, 6
4, 6
7, 7
6, 6
4, 3
3, 5
4, 3
6, 3
3, 2
2, 2
2, 5
0, 1
5, 2
1, 2
3, 5
2, 0
0, 1
3, 4
4, 1
4, 2
5, 1
3, 1
1, 2
2, 1
3, 1
0, 4
2, 1
3, 1
1, 1
2, 0
0, 3
1, 2
1, 5
2, 1
1, 2
1, 1
2, 0
1, 0
0, 2
1, 0
1, 3
0, 0
1, 3
1, 2
1, 1
0, 0
0, 1
0, 1
0, 1
0, 1
2, 0
0, 0
1, 1
0, 0
0, 1
2, 1
0, 1
0, 0
0, 0
1, 0
0, 0
1, 0
1, 0
1, 0
0, 1
0, 0
1, 1
0, 0
0, 0
0, 0
0, 0
0, 0
0, 1
1, 0
0, 2
0, 0
0, 0
0, 0
0, 1
0, 1
0, 1
0, 2
1, 0
0, 0
0, 0
0, 0
0, 0
0, 0
0, 0
0, 0
0, 0
0, 0
0, 0
0, 0
0, 0
0, 0
0, 0
0, 0
0, 0
0, 0
0, 0
0, 0
0, 0
0, 0
0, 0
0, 0
0, 0
0, 0
1, 0
0, 0
0, 0
1, 0
0, 0
0, 0
0, 0
0, 0
0, 0
0, 1
0, 0
0, 0
0, 0
0, 0
0, 0
0, 1
0, 0
0, 0
0, 0
0, 0
0, 0
0, 0
0, 0
0, 0
0, 0
0, 0
0, 0
0, 0
0, 0
0, 0
0, 0
0, 0
0, 0
0, 0
0, 0
0, 0
0, 0
0, 0
0, 0
0, 0
0, 0
0, 0
0, 0
0, 0
0, 0
0, 0
0, 0
0, 0
0, 0
0, 0
0, 0
0, 0
0, 0
0, 0
0, 0
0, 0
0, 0
0, 0
0, 0
0, 0
0, 0
0, 0
0, 0
0, 0
0, 0
0, 0
0, 0
0, 0
0, 0
0, 0
0, 0
0, 0
0, 0
0, 0
0, 0
0, 0
0, 0
0, 0
0, 0
0, 0
0, 0
0, 0
0, 0
0, 0
0, 0
0, 0
0, 0
0, 0
0, 0
0, 0
0, 0
0, 0
0, 0
0, 0
0, 0
0, 0
0, 0
#ENDOFDATA     end of spectrum data

File: ps__0567_0717304816_000rfs_shot_149.msa
#FORMAT      : EMSA/MAS spectral data file
#VERSION     : TC202v2.0 PIXL
#TITLE       : Novarupta (sol567) subset1
#DATE        : 02-11-2024      Date in the format DD-MMM-YYYY, for example 07-JUL-2010
#TIME        :             The time of day at which the spectrum was recorded, in 24-hour format
#OWNER       : PIXL Flight Model       (PIXL will use this to indicate which instrument took the data.)
#NPOINTS     : 4096     Number of data points in the spectrum (This can be zero for configuration only files)
#NCOLUMNS    : 2     Number of data columns in the spectrum (This can be zero for configuration only files)
#XUNITS      : eV
#YUNITS      : COUNTS
#DATATYPE    : YY
#XPERCHAN    : 7.862, 7.881   eV per channel (separate by commas if more than one detector)
#OFFSET      : 18.5, -22.4         eV of first channel  (separate by commas if more than one detector
#SIGNALTYPE  : XRF
#YP_TEMP     : 0.022
#LIVETIME    : 8.83809, 8.80545   seconds (separate by commas if more than one detector)
#REALTIME    : 10, 10.0   seconds (separate by commas if more than one detector)
#SPECTRUM    : start of spectrum data
0, 0
0, 0
0, 0
0, 0
0, 0
0, 0
0, 0
1, 1
2, 6
3, 5
0, 7
6, 10
16, 18
19, 22
51, 50
95, 124
429, 573
95, 144
25, 46
19, 36
45, 77
293, 371
138, 113
72, 89
209, 279
118, 112
67, 86
31, 27
6, 9
6, 9
29, 35
16, 22
16, 22
200, 291
300, 384
54, 56
51, 46
39, 49
13, 16
7, 7
12, 31
67, 87
34, 43
10, 22
11, 19
11, 25
6, 8
7, 14
18, 15
31, 31
21, 19
12, 13
14, 10
33, 49
52, 42
20, 23
35, 51
389, 569
1459, 1988
930, 1055
99, 101
11, 17
14, 30
69, 110
234, 291
150, 143
17, 21
13, 7
11, 13
9, 5
4, 9
4, 4
4, 8
2, 5
6, 4
5, 4
6, 6
6, 13
9, 14
7, 12
4, 10
3, 7
6, 6
4, 11
5, 4
6, 3
2, 5
3, 6
5, 9
3, 8
3, 5
3, 3
6, 1
7, 5
7, 7
6, 2
1, 1
3, 2
4, 5
5, 1
4, 5
1, 2
5, 3
4, 4
3, 2
0, 0
1, 1
1, 4
4, 2
3, 3
4, 3
0, 1
1, 3
4, 1
0, 2
1, 2
1, 7
2, 9
4, 4
2, 3
2, 2
1, 2
2, 3
2, 3
1, 1
3, 2
1, 0
3, 0
1, 0
3, 3
0, 1
2, 0
0, 0
0, 0
0, 1
0, 0
2, 1
3, 1
0, 1
0, 0
1, 2
0, 1
0, 0
0, 0
1, 0
1, 0
1, 0
0, 1
0, 0
0, 1
0, 0
0, 1
0, 0
0, 0
0, 1
1, 0
0, 1
2, 1
0, 0
0, 0
0, 0
1, 0
0, 0
1, 0
0, 0
0, 0
0, 1
0, 0
0, 0
0, 0
0, 1
0, 0
0, 1
0, 1
1, 0
0, 0
0, 0
1, 0
0, 0
0, 0
0, 0
0, 0
0, 0
0, 0
0, 0
0, 0
0, 1
0, 0
1, 0
0, 0
0, 1
0, 1
0, 0
0, 0
0, 0
0, 0
0, 0
0, 0
0, 0
0, 0
0, 0
0, 0
0, 0
0, 0
0, 0
0, 0
0, 0
0, 0
0, 0
0, 0
0, 0
0, 0
0, 0
0, 0
0, 0
0, 0
0, 0
0, 0
0, 0
0, 0
0, 0
0, 0
0, 0
0, 0
0, 0
0, 0
0, 0
0, 0
0, 0
0, 0
0, 0
0, 0
0, 0
0, 0
0, 0
0, 0
0, 0
0, 0
0, 0
0, 0
0, 0
0, 0
0, 0
0, 0
0, 0
0, 0
0, 0
0, 0
0, 0
0, 0
0, 0
0, 0
0, 0
0, 0
0, 0
0, 0
0, 0
0, 0
0, 0
0, 0
0, 0
0, 0
0, 0
0, 0
0, 0
0, 0
0, 0
0, 0
0, 0
0, 0
0, 0
0, 0
0, 0
0, 0
0, 0
0, 0
0, 0
0, 0
0, 0
0, 0
0, 0
0, 0
0, 0
0, 0
0, 0
0, 0
0, 0
0, 0
0, 0
0, 0
0, 0
0, 0
0, 0
0, 0
#ENDOFDATA     end of spectrum data

File: ps__0567_0717304816_000rfs_shot_152.msa
#FORMAT      : EMSA/MAS spectral data file
#VERSION     : TC202v2.0 PIXL
#TITLE       : Novarupta (sol567) subset1
#DATE        : 02-11-2024      Date in the format DD-MMM-YYYY, for example 07-JUL-2010
#TIME        :             The time of day at which the spectrum was recorded, in 24-hour format
#OWNER       : PIXL Flight Model       (PIXL will use this to indicate which instrument took the data.)
#NPOINTS     : 4096     Number of data points in the spectrum (This can be zero for configuration only files)
#NCOLUMNS    : 2     Number of data columns in the spectrum (This can be zero for configuration only files)
#XUNITS      : eV
#YUNITS      : COUNTS
#DATATYPE    : YY
#XPERCHAN    : 7.862, 7.881   eV per channel (separate by commas if more than one detector)
#OFFSET      : 18.5, -22.4         eV of first channel  (separate by commas if more than one detector
#SIGNALTYPE  : XRF
#YP_TEMP     : -0.202
#LIVETIME    : 8.84302, 8.62941   seconds (separate by commas if more than one detector)
#REALTIME    : 10, 10.0   seconds (separate by commas if more than one detector)
#SPECTRUM    : start of spectrum data
0, 0
0, 0
0, 0
0, 0
0, 0
0, 0
0, 0
0, 0
1, 7
1, 5
2, 0
6, 8
15, 19
22, 25
33, 42
101, 137
466, 544
109, 124
25, 27
16, 24
64, 77
321, 393
123, 146
71, 84
216, 240
116, 124
61, 86
36, 38
10, 8
11, 10
27, 42
15, 15
15, 23
223, 254
318, 381
50, 60
39, 68
42, 65
17, 12
4, 11
17, 29
50, 81
32, 28
16, 19
9, 20
15, 24
15, 13
9, 6
17, 13
39, 32
14, 23
5, 10
8, 17
27, 53
42, 57
18, 21
27, 49
366, 549
1458, 1869
962, 989
103, 100
12, 12
22, 39
63, 101
240, 324
145, 134
26, 24
8, 10
15, 12
7, 7
4, 3
10, 7
4, 17
4, 5
5, 10
7, 7
9, 8
4, 12
10, 16
5, 16
4, 7
8, 6
4, 4
6, 10
7, 5
4, 8
3, 5
6, 7
4, 8
1, 5
4, 6
6, 4
5, 4
1, 2
5, 3
5, 8
3, 3
1, 4
1, 3
4, 2
2, 5
5, 2
5, 4
1, 1
4, 6
2, 0
2, 4
4, 5
2, 3
4, 3
2, 7
0, 2
4, 1
2, 2
3, 2
3, 1
3, 1
0, 1
1, 0
1, 3
2, 3
2, 0
0, 0
1, 1
3, 1
1, 0
1, 0
1, 2
1, 1
2, 1
0, 0
0, 3
1, 0
0, 0
0, 1
0, 1
1, 0
2, 1
0, 0
0, 0
0, 1
2, 0
0, 1
0, 0
0, 0
0, 0
0, 1
1, 2
0, 1
0, 0
0, 0
0, 0
1, 0
0, 0
0, 1
0, 0
0, 1
0, 0
0, 1
0, 1
0, 0
0, 0
0, 0
0, 0
0, 0
0, 1
0, 1
0, 0
0, 1
1, 1
3, 0
1, 1
0, 0
0, 0
0, 0
0, 1
0, 0
1, 0
0, 0
1, 0
0, 0
0, 0
0, 0
0, 1
0, 0
0, 1
0, 0
0, 0
0, 0
0, 0
0, 0
0, 0
0, 0
0, 0
0, 0
0, 0
0, 0
0, 0
0, 0
0, 0
0, 0
0, 0
0, 0
0, 0
0, 0
0, 0
0, 0
0, 0
0, 0
0, 0
0, 0
0, 0
0, 0
0, 0
0, 0
0, 0
0, 0
0, 0
0, 0
0, 1
0, 0
0, 0
0, 0
0, 0
0, 0
0, 0
0, 0
0, 0
0, 0
0, 0
0, 0
0, 0
0, 0
0, 0
0, 0
0, 0
0, 0
0, 0
0, 0
0, 0
0, 0
0, 0
0, 0
0, 0
0, 0
0, 0
0, 0
0, 0
0, 0
0, 0
0, 0
0, 0
0, 0
0, 0
0, 0
0, 0
0, 0
0, 0
0, 0
0, 0
0, 0
0, 0
0, 0
0, 0
0, 0
0, 0
0, 0
0, 0
0, 0
0, 0
0, 0
0, 0
0, 0
0, 0
0, 0
0, 0
0, 0
0, 0
0, 0
0, 0
0, 0
0, 0
0, 0
0, 0
0, 0
0, 0
0, 0
0, 0
0, 0
0, 0
0, 0
0, 0
0, 0
0, 0
#ENDOFDATA     end of spectrum data

File: ps__0567_0717304816_000rfs_shot_153.msa
#FORMAT      : EMSA/MAS spectral data file
#VERSION     : TC202v2.0 PIXL
#TITLE       : Novarupta (sol567) subset1
#DATE        : 02-11-2024      Date in the format DD-MMM-YYYY, for example 07-JUL-2010
#TIME        :             The time of day at which the spectrum was recorded, in 24-hour format
#OWNER       : PIXL Flight Model       (PIXL will use this to indicate which instrument took the data.)
#NPOINTS     : 4096     Number of data points in the spectrum (This can be zero for configuration only files)
#NCOLUMNS    : 2     Number of data columns in the spectrum (This can be zero for configuration only files)
#XUNITS      : eV
#YUNITS      : COUNTS
#DATATYPE    : YY
#XPERCHAN    : 7.862, 7.881   eV per channel (separate by commas if more than one detector)
#OFFSET      : 18.5, -22.4         eV of first channel  (separate by commas if more than one detector
#SIGNALTYPE  : XRF
#YP_TEMP     : -0.202
#LIVETIME    : 8.83684, 8.80539   seconds (separate by commas if more than one detector)
#REALTIME    : 10, 10.0   seconds (separate by commas if more than one detector)
#SPECTRUM    : start of spectrum data
0, 0
0, 0
0, 0
0, 0
0, 0
0, 0
0, 0
1, 1
8, 2
4, 4
2, 5
12, 10
13, 7
28, 32
40, 46
114, 158
477, 553
124, 110
26, 41
20, 26
59, 60
296, 368
131, 129
81, 82
223, 264
118, 146
73, 83
24, 37
11, 10
6, 22
31, 34
17, 17
20, 26
209, 275
288, 353
48, 52
55, 50
51, 66
11, 17
15, 10
18, 19
50, 83
26, 41
18, 31
12, 16
22, 22
14, 21
7, 14
9, 24
25, 27
16, 22
12, 11
15, 18
34, 33
44, 49
26, 23
24, 43
357, 536
1520, 1923
983, 1051
109, 106
15, 12
18, 22
82, 85
256, 263
148, 133
16, 23
8, 6
7, 15
6, 6
4, 8
2, 9
3, 11
6, 9
8, 11
9, 9
2, 7
4, 6
10, 14
12, 14
6, 5
5, 9
1, 5
7, 5
6, 4
3, 6
3, 7
1, 4
2, 8
3, 6
3, 5
3, 7
1, 5
4, 3
5, 2
2, 8
5, 4
2, 6
6, 5
5, 2
3, 10
2, 2
7, 3
2, 2
4, 0
2, 4
5, 2
3, 1
3, 2
2, 4
1, 2
4, 6
1, 1
1, 1
4, 3
3, 4
2, 3
4, 2
2, 0
1, 2
3, 3
1, 5
2, 3
3, 1
2, 0
0, 3
1, 1
2, 1
1, 3
0, 0
1, 1
2, 0
1, 1
0, 0
0, 2
0, 1
0, 0
1, 1
0, 0
1, 0
1, 0
0, 2
0, 2
0, 0
1, 0
2, 0
0, 0
0, 1
1, 1
0, 3
0, 0
0, 0
0, 0
1, 0
0, 1
0, 0
0, 0
1, 1
1, 1
0, 1
1, 1
0, 0
1, 0
0, 1
1, 0
0, 0
0, 0
1, 1
1, 1
0, 0
0, 1
0, 1
0, 0
0, 0
1, 0
0, 0
1, 0
0, 0
0, 0
1, 0
0, 1
0, 0
0, 0
0, 0
0, 0
0, 0
0, 0
0, 0
1, 0
1, 0
0, 0
0, 0
0, 0
0, 0
0, 0
0, 0
0, 0
0, 0
0, 0
0, 0
0, 0
0, 0
0, 0
0, 0
0, 0
0, 0
0, 0
0, 0
0, 1
0, 0
0, 0
0, 0
0, 0
0, 0
0, 0
0, 0
0, 0
0, 0
0, 0
0, 0
0, 0
0, 0
0, 0
0, 0
0, 0
0, 0
0, 0
0, 0
0, 0
0, 0
0, 0
0, 0
0, 0
0, 0
0, 0
0, 0
0, 0
0, 0
0, 0
0, 0
0, 0
0, 0
0, 0
0, 0
0, 0
0, 0
0, 0
0, 0
0, 0
0, 0
0, 0
0, 0
0, 0
0, 0
0, 0
0, 0
0, 0
0, 0
0, 0
0, 0
0, 0
0, 0
0, 0
0, 0
0, 0
0, 0
0, 0
0, 0
0, 0
0, 0
0, 0
0, 0
0, 0
0, 0
0, 0
0, 0
0, 0
0, 0
0, 0
0, 0
0, 0
0, 0
0, 0
0, 0
0, 0
0, 0
0, 0
0, 0
0, 0
0, 0
0, 0
0, 0
0, 0
0, 0
#ENDOFDATA     end of spectrum data

File: ps__0567_0717304816_000rfs_shot_157.msa
#FORMAT      : EMSA/MAS spectral data file
#VERSION     : TC202v2.0 PIXL
#TITLE       : Novarupta (sol567) subset1
#DATE        : 02-11-2024      Date in the format DD-MMM-YYYY, for example 07-JUL-2010
#TIME        :             The time of day at which the spectrum was recorded, in 24-hour format
#OWNER       : PIXL Flight Model       (PIXL will use this to indicate which instrument took the data.)
#NPOINTS     : 4096     Number of data points in the spectrum (This can be zero for configuration only files)
#NCOLUMNS    : 2     Number of data columns in the spectrum (This can be zero for configuration only files)
#XUNITS      : eV
#YUNITS      : COUNTS
#DATATYPE    : YY
#XPERCHAN    : 7.862, 7.881   eV per channel (separate by commas if more than one detector)
#OFFSET      : 18.5, -22.4         eV of first channel  (separate by commas if more than one detector
#SIGNALTYPE  : XRF
#YP_TEMP     : -0.074
#LIVETIME    : 8.82502, 8.81252   seconds (separate by commas if more than one detector)
#REALTIME    : 10, 10.0   seconds (separate by commas if more than one detector)
#SPECTRUM    : start of spectrum data
0, 0
0, 0
0, 0
0, 0
0, 0
0, 0
0, 0
0, 0
5, 5
2, 8
0, 3
10, 11
17, 14
23, 29
48, 44
127, 126
529, 549
115, 117
41, 31
17, 25
61, 66
341, 389
132, 108
57, 91
227, 261
141, 112
70, 66
28, 23
9, 8
6, 12
22, 42
17, 20
19, 26
217, 285
304, 372
62, 53
30, 60
49, 48
15, 15
3, 12
17, 29
52, 79
36, 33
15, 20
27, 17
15, 17
11, 16
8, 15
15, 16
23, 41
26, 20
9, 12
10, 13
36, 43
43, 56
24, 16
36, 35
363, 502
1571, 1925
1054, 1023
113, 99
16, 29
34, 27
106, 100
252, 281
173, 139
23, 13
5, 10
5, 9
5, 12
9, 4
9, 10
5, 11
5, 7
11, 12
7, 7
12, 8
8, 8
15, 19
7, 10
1, 1
10, 8
7, 7
4, 7
5, 8
1, 2
7, 6
4, 8
6, 3
3, 6
4, 7
4, 4
1, 9
2, 6
3, 7
3, 4
4, 5
2, 3
1, 5
8, 7
1, 4
2, 3
5, 3
0, 3
4, 5
1, 0
6, 2
3, 6
7, 2
5, 1
3, 2
0, 3
4, 1
3, 1
0, 3
1, 0
3, 5
2, 6
1, 3
1, 2
0, 3
2, 1
1, 3
2, 2
3, 0
0, 3
4, 2
0, 1
1, 0
0, 0
0, 0
1, 1
0, 0
1, 0
1, 1
1, 0
0, 0
1, 1
0, 0
1, 0
0, 1
0, 0
0, 2
0, 0
0, 1
1, 0
1, 3
0, 1
0, 1
0, 0
0, 0
0, 0
1, 0
1, 1
1, 0
0, 0
0, 0
0, 0
0, 1
1, 0
0, 1
0, 0
0, 0
0, 0
0, 1
1, 0
1, 0
0, 0
0, 1
0, 0
0, 0
0, 0
2, 0
0, 0
0, 0
0, 0
0, 0
0, 0
0, 0
0, 1
0, 0
0, 0
0, 0
0, 1
0, 0
1, 0
0, 0
0, 0
0, 0
0, 0
0, 0
0, 0
0, 0
0, 0
0, 0
0, 0
0, 0
0, 0
0, 0
0, 0
2, 0
0, 0
0, 0
0, 0
0, 0
0, 0
0, 0
0, 0
0, 0
0, 0
0, 0
0, 0
0, 0
0, 0
0, 0
0, 0
0, 0
0, 0
0, 0
0, 0
0, 0
0, 0
0, 0
0, 0
0, 0
0, 0
0, 0
0, 0
0, 0
0, 0
0, 0
0, 0
0, 0
0, 0
0, 0
0, 0
0, 0
0, 0
0, 0
0, 0
0, 0
0, 0
0, 0
0, 0
0, 0
0, 0
0, 0
0, 0
0, 0
0, 0
0, 0
0, 0
0, 0
0, 0
0, 0
0, 0
0, 0
0, 0
0, 0
0, 0
0, 0
0, 0
0, 0
0, 0
0, 0
0, 0
0, 0
0, 0
0, 0
0, 0
0, 0
0, 0
0, 0
0, 0
0, 0
0, 0
0, 0
0, 0
0, 0
0, 0
0, 0
0, 0
0, 0
0, 0
0, 0
0, 0
0, 0
0, 0
0, 0
0, 0
0, 0
0, 0
0, 0
0, 0
#ENDOFDATA     end of spectrum data

File: ps__0567_0717304816_000rfs_shot_158.msa
#FORMAT      : EMSA/MAS spectral data file
#VERSION     : TC202v2.0 PIXL
#TITLE       : Novarupta (sol567) subset1
#DATE        : 02-11-2024      Date in the format DD-MMM-YYYY, for example 07-JUL-2010
#TIME        :             The time of day at which the spectrum was recorded, in 24-hour format
#OWNER       : PIXL Flight Model       (PIXL will use this to indicate which instrument took the data.)
#NPOINTS     : 4096     Number of data points in the spectrum (This can be zero for configuration only files)
#NCOLUMNS    : 2     Number of data columns in the spectrum (This can be zero for configuration only files)
#XUNITS      : eV
#YUNITS      : COUNTS
#DATATYPE    : YY
#XPERCHAN    : 7.862, 7.881   eV per channel (separate by commas if more than one detector)
#OFFSET      : 18.5, -22.4         eV of first channel  (separate by commas if more than one detector
#SIGNALTYPE  : XRF
#YP_TEMP     : 0.151
#LIVETIME    : 8.82062, 8.80317   seconds (separate by commas if more than one detector)
#REALTIME    : 10, 10.0   seconds (separate by commas if more than one detector)
#SPECTRUM    : start of spectrum data
0, 0
0, 0
0, 0
0, 0
0, 0
0, 0
0, 0
0, 0
2, 7
3, 3
7, 1
11, 8
18, 10
27, 27
53, 48
107, 127
489, 556
109, 127
28, 42
17, 25
63, 81
317, 371
120, 128
83, 67
236, 245
89, 109
70, 74
24, 25
8, 10
8, 13
32, 30
22, 21
19, 30
253, 252
300, 367
69, 62
40, 49
57, 53
8, 13
11, 13
22, 23
71, 69
33, 36
9, 9
11, 17
21, 22
11, 16
9, 15
16, 22
33, 38
27, 22
11, 12
13, 19
41, 29
46, 43
25, 25
36, 34
424, 485
1604, 1768
1072, 1011
100, 94
18, 24
14, 32
83, 115
252, 305
151, 152
15, 11
12, 5
13, 9
16, 10
8, 5
7, 4
1, 4
6, 4
10, 9
7, 13
2, 4
6, 7
11, 12
7, 12
15, 4
5, 9
3, 5
7, 5
5, 5
4, 6
6, 3
4, 1
6, 7
2, 3
3, 5
4, 5
0, 3
4, 7
5, 5
4, 3
3, 3
5, 3
4, 2
2, 1
5, 5
1, 3
3, 2
2, 0
3, 3
3, 0
2, 1
5, 5
3, 2
9, 2
1, 0
2, 5
0, 5
4, 0
1, 1
1, 3
2, 3
4, 0
4, 6
3, 3
1, 1
1, 2
0, 3
2, 2
2, 1
3, 0
1, 1
0, 3
3, 1
1, 0
1, 0
2, 0
0, 1
1, 0
1, 1
1, 1
0, 1
0, 0
0, 0
0, 2
1, 0
1, 0
0, 0
0, 0
0, 1
1, 0
1, 0
0, 0
3, 0
0, 0
0, 1
0, 1
0, 0
0, 1
0, 0
0, 1
0, 0
1, 0
1, 0
0, 1
0, 1
0, 0
0, 0
0, 0
0, 0
0, 0
0, 0
0, 0
1, 0
0, 0
0, 0
0, 0
0, 0
0, 0
0, 0
0, 0
0, 0
0, 0
1, 0
0, 0
0, 0
0, 0
0, 0
0, 0
0, 0
0, 0
0, 0
0, 0
0, 0
0, 0
0, 0
0, 0
0, 0
0, 0
0, 0
0, 0
0, 0
0, 0
0, 0
0, 0
0, 0
0, 0
0, 0
0, 0
0, 0
0, 0
0, 0
0, 0
0, 0
0, 0
0, 0
0, 0
0, 0
0, 0
0, 0
0, 0
0, 0
0, 0
0, 0
0, 0
0, 0
0, 0
0, 0
0, 0
0, 0
0, 0
0, 0
0, 0
0, 0
0, 0
0, 0
0, 0
0, 0
0, 0
0, 0
0, 0
0, 0
0, 0
0, 0
0, 0
0, 0
0, 0
0, 0
0, 0
0, 0
0, 0
0, 0
0, 0
0, 0
0, 0
0, 0
0, 0
0, 0
0, 0
0, 0
0, 0
0, 0
0, 0
0, 0
0, 0
0, 0
0, 0
0, 0
0, 0
0, 0
0, 0
0, 0
0, 0
0, 0
0, 0
0, 0
0, 0
0, 0
0, 0
0, 0
0, 0
0, 0
0, 0
0, 0
0, 0
0, 0
0, 0
0, 0
0, 0
0, 0
0, 0
0, 0
0, 0
0, 0
0, 0
0, 0
0, 0
0, 0
0, 0
#ENDOFDATA     end of spectrum data

File: ps__0567_0717304816_000rfs_shot_161.msa
#FORMAT      : EMSA/MAS spectral data file
#VERSION     : TC202v2.0 PIXL
#TITLE       : Novarupta (sol567) subset1
#DATE        : 02-11-2024      Date in the format DD-MMM-YYYY, for example 07-JUL-2010
#TIME        :             The time of day at which the spectrum was recorded, in 24-hour format
#OWNER       : PIXL Flight Model       (PIXL will use this to indicate which instrument took the data.)
#NPOINTS     : 4096     Number of data points in the spectrum (This can be zero for configuration only files)
#NCOLUMNS    : 2     Number of data columns in the spectrum (This can be zero for configuration only files)
#XUNITS      : eV
#YUNITS      : COUNTS
#DATATYPE    : YY
#XPERCHAN    : 7.862, 7.881   eV per channel (separate by commas if more than one detector)
#OFFSET      : 18.5, -22.4         eV of first channel  (separate by commas if more than one detector
#SIGNALTYPE  : XRF
#YP_TEMP     : -0.17
#LIVETIME    : 8.82464, 8.82009   seconds (separate by commas if more than one detector)
#REALTIME    : 10, 10.0   seconds (separate by commas if more than one detector)
#SPECTRUM    : start of spectrum data
0, 0
0, 0
0, 0
0, 0
0, 0
0, 0
0, 0
1, 0
4, 3
0, 2
4, 2
15, 7
14, 9
23, 15
40, 35
124, 133
470, 488
128, 105
28, 26
23, 26
59, 66
289, 341
128, 110
80, 67
197, 269
126, 111
75, 80
29, 28
19, 12
20, 8
28, 34
20, 14
23, 27
240, 253
338, 315
52, 49
32, 40
52, 50
12, 19
7, 11
13, 22
48, 75
39, 35
19, 18
14, 17
19, 12
15, 12
16, 12
13, 14
24, 25
28, 16
15, 15
15, 18
43, 39
57, 47
19, 17
38, 35
426, 461
1658, 1833
1035, 982
89, 97
13, 14
12, 19
87, 106
268, 263
165, 146
19, 21
8, 9
11, 14
6, 13
4, 9
6, 11
4, 6
3, 3
3, 3
6, 8
7, 9
10, 9
8, 10
7, 5
14, 7
10, 7
7, 1
4, 7
6, 4
9, 5
5, 12
7, 8
3, 7
4, 5
6, 7
4, 8
5, 1
2, 4
3, 4
4, 6
2, 2
4, 2
1, 5
3, 5
3, 5
1, 1
4, 4
4, 4
4, 1
1, 3
0, 2
2, 2
4, 6
4, 3
2, 2
5, 3
0, 1
1, 0
2, 3
2, 0
7, 1
4, 2
1, 1
1, 4
1, 2
0, 0
1, 4
3, 2
1, 1
1, 2
2, 0
2, 0
1, 0
0, 2
1, 2
2, 2
1, 1
1, 0
1, 2
0, 3
0, 0
0, 1
0, 1
0, 0
0, 1
0, 0
0, 0
4, 2
1, 1
0, 0
0, 0
0, 1
2, 2
0, 0
0, 0
1, 1
1, 1
0, 0
0, 0
0, 0
0, 0
0, 0
1, 0
0, 0
0, 1
1, 0
0, 0
0, 0
0, 0
0, 0
0, 0
0, 0
1, 0
0, 0
0, 0
1, 1
0, 0
0, 0
0, 0
0, 0
0, 0
0, 0
0, 0
0, 0
0, 1
0, 0
0, 0
0, 0
1, 0
0, 0
0, 0
0, 0
2, 0
0, 0
0, 0
0, 0
0, 0
0, 0
0, 0
0, 0
0, 0
0, 0
0, 0
0, 0
0, 0
0, 0
0, 0
0, 0
0, 0
0, 0
0, 0
0, 0
0, 0
0, 0
0, 0
0, 0
0, 0
0, 0
0, 0
0, 0
0, 0
0, 0
0, 0
0, 0
0, 0
0, 0
0, 0
0, 0
0, 0
0, 0
0, 0
0, 0
0, 0
0, 0
0, 0
0, 0
0, 0
0, 0
0, 0
0, 0
0, 0
0, 0
0, 0
0, 0
0, 0
0, 0
0, 0
0, 0
0, 0
0, 0
0, 0
0, 0
0, 0
0, 0
0, 0
0, 0
0, 0
0, 0
0, 0
0, 0
0, 0
0, 0
0, 0
0, 0
0, 0
0, 0
0, 0
0, 0
0, 0
0, 0
0, 0
0, 0
0, 0
0, 0
0, 0
0, 0
0, 0
0, 0
0, 0
0, 0
0, 0
0, 0
0, 0
0, 0
0, 0
0, 0
0, 0
0, 0
0, 0
0, 0
0, 0
0, 0
0, 0
0, 0
0, 0
0, 0
0, 0
0, 0
#ENDOFDATA     end of spectrum data

File: ps__0567_0717304816_000rfs_shot_162.msa
#FORMAT      : EMSA/MAS spectral data file
#VERSION     : TC202v2.0 PIXL
#TITLE       : Novarupta (sol567) subset1
#DATE        : 02-11-2024      Date in the format DD-MMM-YYYY, for example 07-JUL-2010
#TIME        :             The time of day at which the spectrum was recorded, in 24-hour format
#OWNER       : PIXL Flight Model       (PIXL will use this to indicate which instrument took the data.)
#NPOINTS     : 4096     Number of data points in the spectrum (This can be zero for configuration only files)
#NCOLUMNS    : 2     Number of data columns in the spectrum (This can be zero for configuration only files)
#XUNITS      : eV
#YUNITS      : COUNTS
#DATATYPE    : YY
#XPERCHAN    : 7.862, 7.881   eV per channel (separate by commas if more than one detector)
#OFFSET      : 18.5, -22.4         eV of first channel  (separate by commas if more than one detector
#SIGNALTYPE  : XRF
#YP_TEMP     : 0.087
#LIVETIME    : 8.83303, 8.82278   seconds (separate by commas if more than one detector)
#REALTIME    : 10, 10.0   seconds (separate by commas if more than one detector)
#SPECTRUM    : start of spectrum data
0, 0
0, 0
0, 0
0, 0
0, 0
0, 0
0, 0
0, 0
2, 5
4, 2
3, 6
8, 14
17, 15
26, 33
43, 37
127, 139
479, 518
119, 107
31, 45
20, 21
56, 56
321, 316
130, 102
87, 74
237, 235
134, 119
69, 65
33, 25
7, 12
12, 17
20, 27
19, 23
27, 20
218, 239
341, 292
47, 46
41, 58
45, 57
13, 15
7, 8
25, 19
67, 83
36, 34
8, 16
13, 13
17, 29
13, 12
10, 8
17, 21
28, 31
24, 12
7, 11
14, 9
40, 40
53, 41
25, 22
35, 42
415, 455
1684, 1713
1131, 980
103, 102
15, 19
25, 19
105, 101
270, 290
151, 123
18, 20
9, 9
13, 18
6, 7
7, 9
9, 11
10, 7
5, 7
11, 6
7, 10
5, 7
3, 7
8, 11
13, 15
2, 2
6, 6
5, 3
5, 11
9, 11
7, 3
10, 4
6, 7
2, 7
5, 4
4, 4
3, 3
4, 7
5, 2
4, 8
1, 1
5, 3
5, 1
2, 4
1, 5
2, 2
6, 2
2, 3
0, 6
2, 2
2, 1
4, 2
3, 2
3, 1
3, 1
3, 2
2, 0
1, 1
3, 0
2, 4
4, 1
1, 3
2, 2
4, 2
2, 3
2, 0
1, 0
2, 2
3, 3
1, 0
4, 0
1, 0
0, 2
2, 2
1, 1
2, 0
1, 2
2, 1
1, 0
2, 0
0, 0
0, 0
1, 2
1, 2
0, 1
0, 0
1, 0
0, 2
0, 0
0, 0
3, 1
0, 0
2, 1
1, 1
1, 0
0, 0
0, 1
0, 1
0, 0
0, 0
0, 0
1, 0
1, 0
0, 1
0, 1
0, 0
1, 1
0, 0
1, 0
0, 0
0, 0
0, 1
0, 0
0, 1
0, 0
0, 1
0, 0
1, 0
0, 1
0, 0
0, 0
0, 0
0, 0
1, 0
0, 0
0, 1
0, 0
0, 0
0, 0
0, 0
0, 0
0, 0
0, 0
0, 0
0, 1
0, 0
0, 0
1, 0
0, 0
0, 0
0, 0
0, 0
0, 0
0, 0
0, 0
0, 0
0, 0
0, 0
0, 1
0, 0
0, 0
0, 0
0, 0
0, 0
0, 0
0, 0
0, 0
0, 0
0, 0
0, 0
0, 1
0, 0
0, 0
0, 0
0, 0
0, 0
0, 0
0, 0
0, 0
0, 0
0, 0
0, 0
0, 0
0, 0
0, 0
0, 0
0, 0
0, 0
0, 0
0, 0
0, 0
0, 0
0, 0
0, 0
0, 0
0, 0
0, 0
0, 0
0, 0
0, 0
0, 0
0, 0
0, 0
0, 0
0, 0
0, 0
0, 0
0, 0
0, 0
0, 0
0, 0
0, 0
0, 0
0, 0
0, 0
0, 0
0, 0
0, 0
0, 0
0, 0
0, 0
0, 0
0, 0
0, 0
0, 0
0, 0
0, 0
0, 0
0, 0
0, 0
0, 0
0, 0
0, 0
0, 0
0, 0
0, 0
0, 0
0, 0
0, 0
0, 0
0, 0
0, 0
0, 0
0, 0
0, 0
0, 0
0, 0
0, 0
0, 0
#ENDOFDATA     end of spectrum data

File: ps__0567_0717304816_000rfs_shot_163.msa
#FORMAT      : EMSA/MAS spectral data file
#VERSION     : TC202v2.0 PIXL
#TITLE       : Novarupta (sol567) subset1
#DATE        : 02-11-2024      Date in the format DD-MMM-YYYY, for example 07-JUL-2010
#TIME        :             The time of day at which the spectrum was recorded, in 24-hour format
#OWNER       : PIXL Flight Model       (PIXL will use this to indicate which instrument took the data.)
#NPOINTS     : 4096     Number of data points in the spectrum (This can be zero for configuration only files)
#NCOLUMNS    : 2     Number of data columns in the spectrum (This can be zero for configuration only files)
#XUNITS      : eV
#YUNITS      : COUNTS
#DATATYPE    : YY
#XPERCHAN    : 7.862, 7.881   eV per channel (separate by commas if more than one detector)
#OFFSET      : 18.5, -22.4         eV of first channel  (separate by commas if more than one detector
#SIGNALTYPE  : XRF
#YP_TEMP     : 0.215
#LIVETIME    : 8.82748, 8.82896   seconds (separate by commas if more than one detector)
#REALTIME    : 10, 10.0   seconds (separate by commas if more than one detector)
#SPECTRUM    : start of spectrum data
0, 0
0, 0
0, 0
0, 0
0, 0
0, 0
0, 0
1, 0
2, 0
1, 9
2, 3
9, 16
20, 9
20, 19
56, 63
115, 107
514, 527
120, 115
43, 44
17, 27
70, 55
307, 328
129, 133
72, 91
242, 265
100, 126
72, 67
30, 27
10, 13
9, 8
31, 34
18, 12
23, 19
195, 252
344, 322
50, 62
41, 49
57, 51
16, 12
7, 10
19, 27
72, 60
28, 27
15, 12
18, 15
13, 20
6, 6
11, 11
8, 14
30, 36
14, 15
19, 13
13, 17
30, 35
42, 45
31, 15
29, 38
366, 480
1709, 1788
1060, 942
119, 104
15, 10
19, 30
88, 118
251, 275
157, 139
18, 16
13, 10
11, 15
16, 12
9, 4
9, 4
8, 3
6, 6
5, 5
11, 8
4, 9
8, 4
5, 3
7, 12
7, 4
9, 5
10, 5
5, 4
7, 6
3, 4
4, 4
7, 5
6, 2
5, 2
3, 5
10, 7
3, 4
3, 3
6, 6
4, 1
8, 9
3, 3
4, 1
2, 4
2, 5
7, 1
5, 5
3, 7
0, 1
1, 0
5, 2
4, 3
1, 3
3, 3
0, 1
1, 2
1, 4
2, 2
5, 4
2, 0
3, 3
2, 4
2, 2
3, 4
1, 1
1, 2
2, 1
1, 2
2, 1
1, 1
0, 0
3, 2
0, 1
0, 1
3, 0
1, 1
2, 1
0, 0
0, 1
1, 1
1, 0
0, 0
0, 2
1, 1
0, 2
2, 0
0, 1
1, 0
0, 0
1, 1
2, 0
0, 1
1, 0
0, 2
0, 1
1, 1
0, 1
0, 1
0, 0
0, 0
1, 1
1, 0
0, 0
0, 0
0, 0
0, 1
0, 0
0, 0
1, 0
0, 0
0, 0
0, 0
0, 0
0, 0
0, 0
0, 0
0, 0
1, 0
0, 0
0, 0
0, 0
0, 0
0, 0
0, 0
0, 0
1, 0
0, 0
0, 1
1, 0
0, 0
0, 0
0, 0
0, 0
0, 0
0, 0
0, 0
0, 0
0, 0
0, 0
0, 0
0, 0
0, 0
0, 0
0, 0
0, 0
0, 0
0, 0
0, 0
0, 0
0, 0
1, 0
0, 0
0, 0
0, 0
0, 0
0, 0
0, 0
0, 0
0, 0
0, 0
0, 0
0, 0
0, 0
0, 0
0, 0
0, 0
0, 0
0, 0
0, 0
0, 0
0, 0
0, 0
0, 0
0, 0
0, 0
0, 0
0, 0
0, 0
0, 0
0, 0
0, 0
0, 0
0, 0
0, 0
0, 0
0, 0
0, 0
0, 0
0, 0
0, 0
0, 0
0, 0
0, 0
0, 0
0, 0
0, 0
0, 0
0, 0
0, 0
0, 0
0, 0
0, 0
0, 0
0, 0
0, 0
0, 0
0, 0
0, 0
0, 0
0, 0
0, 0
0, 0
0, 0
0, 0
0, 0
0, 0
0, 0
0, 0
0, 0
0, 0
0, 0
0, 0
0, 0
0, 0
0, 0
0, 0
0, 0
0, 0
0, 0
0, 0
0, 0
0, 0
0, 0
0, 0
0, 0
0, 0
0, 0
0, 0
#ENDOFDATA     end of spectrum data