Folder: data-repository/host_upload/02-11-2024/rqc/uplink1 (part 6)

File: ps__0567_0717304816_000rfs_shot_89.msa
#FORMAT      : EMSA/MAS spectral data file
#VERSION     : TC202v2.0 PIXL
#TITLE       : Novarupta (sol567) subset1
#DATE        : 02-11-2024      Date in the format DD-MMM-YYYY, for example 07-JUL-2010
#TIME        :             The time of day at which the spectrum was recorded, in 24-hour format
#OWNER       : PIXL Flight Model       (PIXL will use this to indicate which instrument took the data.)
#NPOINTS     : 4096     Number of data points in the spectrum (This can be zero for configuration only files)
#NCOLUMNS    : 2     Number of data columns in the spectrum (This can be zero for configuration only files)
#XUNITS      : eV
#YUNITS      : COUNTS
#DATATYPE    : YY
#XPERCHAN    : 7.862, 7.881   eV per channel (separate by commas if more than one detector)
#OFFSET      : 18.5, -22.4         eV of first channel  (separate by commas if more than one detector
#SIGNALTYPE  : XRF
#YP_TEMP     : -1.26
#LIVETIME    : 8.84439, 8.83056   seconds (separate by commas if more than one detector)
#REALTIME    : 10, 10.0   seconds (separate by commas if more than one detector)
#SPECTRUM    : start of spectrum data
0, 0
0, 0
0, 0
0, 0
0, 0
0, 0
0, 0
0, 0
1, 10
3, 6
2, 3
3, 8
8, 20
23, 18
38, 34
124, 131
423, 509
105, 109
27, 31
31, 28
53, 52
278, 368
108, 124
69, 77
221, 238
112, 112
66, 59
27, 24
7, 14
8, 9
28, 31
10, 24
24, 23
195, 255
293, 344
50, 44
46, 45
43, 56
19, 14
3, 3
17, 24
73, 57
30, 43
12, 16
14, 17
21, 27
8, 14
10, 12
12, 15
30, 40
22, 17
9, 10
18, 19
30, 61
39, 54
23, 20
32, 43
425, 521
1549, 1743
929, 854
82, 73
13, 17
16, 23
96, 109
239, 273
120, 131
25, 12
13, 8
6, 17
4, 8
6, 5
0, 5
7, 4
6, 4
9, 12
5, 11
4, 3
7, 9
7, 9
10, 8
7, 6
7, 8
6, 6
0, 4
2, 3
2, 4
3, 8
5, 3
5, 2
5, 2
5, 3
2, 7
6, 5
4, 4
3, 3
4, 3
5, 4
1, 3
3, 5
3, 3
4, 4
3, 3
1, 3
3, 2
3, 2
4, 4
2, 2
4, 0
2, 1
2, 1
1, 2
1, 3
0, 2
5, 2
1, 6
2, 2
2, 6
2, 3
1, 2
2, 1
1, 3
0, 2
1, 0
0, 3
2, 0
1, 2
1, 0
1, 4
0, 0
1, 1
0, 0
1, 1
1, 0
1, 1
2, 0
1, 0
2, 0
0, 0
1, 1
0, 2
0, 0
0, 0
0, 0
1, 0
0, 2
1, 0
0, 0
0, 0
2, 0
1, 0
0, 1
1, 0
0, 0
0, 1
0, 0
0, 0
0, 0
1, 0
0, 0
0, 0
1, 1
0, 1
0, 0
0, 0
0, 1
2, 1
0, 0
0, 0
0, 0
0, 0
0, 0
0, 0
1, 1
0, 0
0, 0
0, 0
0, 0
0, 0
0, 1
0, 0
0, 0
0, 0
0, 0
0, 0
0, 0
0, 0
0, 0
0, 0
0, 0
0, 0
0, 0
0, 0
0, 0
0, 0
0, 0
0, 0
0, 0
0, 1
0, 0
0, 0
0, 0
0, 0
0, 0
0, 0
0, 0
0, 0
0, 0
0, 0
0, 0
0, 0
0, 0
0, 0
0, 0
0, 0
0, 0
0, 0
0, 0
0, 0
0, 0
0, 0
0, 0
0, 0
0, 0
0, 0
0, 0
0, 0
0, 0
0, 0
0, 0
0, 0
0, 0
0, 0
0, 0
0, 0
0, 0
0, 0
0, 0
0, 0
0, 0
0, 0
0, 0
0, 0
0, 0
0, 0
0, 0
0, 0
0, 0
0, 0
0, 0
0, 0
0, 0
0, 0
0, 0
0, 0
0, 0
0, 0
0, 0
0, 0
0, 0
0, 0
0, 0
0, 0
0, 0
0, 0
0, 0
0, 0
0, 0
0, 0
0, 0
0, 0
0, 0
0, 0
0, 0
0, 0
0, 0
0, 0
0, 0
0, 0
0, 0
0, 0
0, 0
0, 0
0, 0
0, 0
0, 0
0, 0
0, 0
0, 0
0, 0
0, 0
0, 0
0, 0
0, 0
0, 0
#ENDOFDATA     end of spectrum data

File: ps__0567_0717304816_000rfs_shot_90.msa
#FORMAT      : EMSA/MAS spectral data file
#VERSION     : TC202v2.0 PIXL
#TITLE       : Novarupta (sol567) subset1
#DATE        : 02-11-2024      Date in the format DD-MMM-YYYY, for example 07-JUL-2010
#TIME        :             The time of day at which the spectrum was recorded, in 24-hour format
#OWNER       : PIXL Flight Model       (PIXL will use this to indicate which instrument took the data.)
#NPOINTS     : 4096     Number of data points in the spectrum (This can be zero for configuration only files)
#NCOLUMNS    : 2     Number of data columns in the spectrum (This can be zero for configuration only files)
#XUNITS      : eV
#YUNITS      : COUNTS
#DATATYPE    : YY
#XPERCHAN    : 7.862, 7.881   eV per channel (separate by commas if more than one detector)
#OFFSET      : 18.5, -22.4         eV of first channel  (separate by commas if more than one detector
#SIGNALTYPE  : XRF
#YP_TEMP     : -1.132
#LIVETIME    : 8.8521, 8.82214   seconds (separate by commas if more than one detector)
#REALTIME    : 10, 10.0   seconds (separate by commas if more than one detector)
#SPECTRUM    : start of spectrum data
0, 0
0, 0
0, 0
0, 0
0, 0
0, 0
0, 0
0, 0
0, 6
8, 3
1, 4
9, 10
15, 12
27, 22
42, 46
101, 130
440, 494
105, 124
21, 28
25, 23
62, 61
286, 317
124, 108
87, 80
209, 244
102, 122
72, 62
28, 21
11, 11
8, 7
24, 30
20, 18
18, 40
226, 247
326, 331
52, 44
59, 63
46, 51
11, 11
6, 6
36, 22
55, 86
29, 25
12, 8
12, 16
26, 20
12, 12
12, 9
15, 25
33, 43
17, 24
13, 10
18, 10
34, 27
44, 33
19, 21
24, 39
422, 470
1538, 1763
861, 870
96, 91
13, 15
20, 21
85, 128
246, 280
130, 138
21, 17
8, 10
13, 15
7, 9
6, 6
4, 9
4, 6
6, 8
8, 9
3, 9
7, 6
3, 8
7, 6
10, 10
6, 8
3, 8
5, 7
10, 6
1, 5
2, 11
7, 9
5, 5
3, 4
2, 5
1, 6
1, 4
7, 3
3, 4
4, 5
0, 2
2, 4
4, 6
2, 3
4, 4
1, 5
2, 6
3, 1
1, 4
2, 1
3, 3
1, 3
4, 2
3, 3
1, 0
3, 1
2, 3
1, 1
1, 2
3, 2
1, 3
1, 3
1, 2
0, 2
3, 1
1, 2
1, 0
4, 1
2, 1
2, 1
2, 1
2, 2
1, 2
0, 1
0, 1
1, 1
1, 1
2, 2
0, 2
0, 1
0, 2
1, 2
0, 1
0, 1
2, 2
1, 1
0, 1
0, 1
0, 1
0, 0
1, 0
0, 0
0, 0
0, 1
0, 1
0, 0
0, 0
0, 0
0, 0
0, 0
1, 0
0, 2
0, 0
0, 0
0, 0
0, 0
0, 1
0, 2
0, 0
0, 0
1, 0
0, 0
0, 0
0, 0
0, 1
0, 1
1, 1
0, 0
0, 0
0, 0
0, 0
0, 0
0, 0
0, 0
0, 0
0, 0
0, 0
0, 1
0, 0
0, 0
0, 0
0, 0
0, 0
0, 0
0, 0
0, 0
0, 0
0, 0
0, 0
0, 1
0, 0
0, 0
0, 0
0, 0
0, 0
0, 0
0, 0
0, 0
0, 0
0, 0
0, 0
0, 0
0, 0
0, 0
0, 0
0, 0
0, 0
0, 0
0, 0
0, 0
0, 0
0, 0
0, 0
0, 0
0, 0
0, 0
0, 0
0, 0
0, 0
0, 0
0, 0
0, 0
0, 0
0, 0
0, 0
0, 0
0, 0
0, 0
0, 0
0, 0
0, 0
0, 0
0, 0
0, 0
0, 0
0, 0
0, 0
0, 0
0, 0
0, 0
0, 0
0, 0
0, 0
0, 0
0, 0
0, 0
0, 0
0, 0
0, 0
0, 0
0, 0
0, 0
0, 0
0, 0
0, 0
0, 0
0, 0
0, 0
0, 0
0, 0
0, 0
0, 0
0, 0
0, 0
0, 0
0, 0
0, 0
0, 0
0, 0
0, 0
0, 0
0, 0
0, 0
0, 0
0, 0
0, 0
0, 0
0, 0
0, 0
0, 0
0, 0
0, 0
0, 0
0, 0
0, 0
0, 0
0, 0
0, 0
0, 0
#ENDOFDATA     end of spectrum data

File: ps__0567_0717304816_000rfs_shot_91.msa
#FORMAT      : EMSA/MAS spectral data file
#VERSION     : TC202v2.0 PIXL
#TITLE       : Novarupta (sol567) subset1
#DATE        : 02-11-2024      Date in the format DD-MMM-YYYY, for example 07-JUL-2010
#TIME        :             The time of day at which the spectrum was recorded, in 24-hour format
#OWNER       : PIXL Flight Model       (PIXL will use this to indicate which instrument took the data.)
#NPOINTS     : 4096     Number of data points in the spectrum (This can be zero for configuration only files)
#NCOLUMNS    : 2     Number of data columns in the spectrum (This can be zero for configuration only files)
#XUNITS      : eV
#YUNITS      : COUNTS
#DATATYPE    : YY
#XPERCHAN    : 7.862, 7.881   eV per channel (separate by commas if more than one detector)
#OFFSET      : 18.5, -22.4         eV of first channel  (separate by commas if more than one detector
#SIGNALTYPE  : XRF
#YP_TEMP     : -1.357
#LIVETIME    : 8.84495, 8.83096   seconds (separate by commas if more than one detector)
#REALTIME    : 10, 10.0   seconds (separate by commas if more than one detector)
#SPECTRUM    : start of spectrum data
0, 0
0, 0
0, 0
0, 0
0, 0
0, 0
0, 0
0, 0
1, 5
1, 5
2, 4
11, 11
16, 13
27, 16
41, 44
102, 130
446, 491
108, 82
24, 27
21, 27
53, 40
303, 333
135, 112
67, 75
221, 244
115, 113
63, 65
32, 34
12, 8
8, 4
24, 29
13, 7
19, 19
216, 266
294, 327
44, 56
44, 39
39, 42
12, 12
10, 10
24, 22
53, 75
31, 24
13, 18
9, 11
17, 19
9, 12
11, 13
8, 14
26, 30
22, 21
8, 13
13, 15
26, 36
44, 42
27, 22
35, 39
434, 538
1555, 1689
954, 847
101, 86
12, 13
20, 19
84, 114
253, 290
139, 137
22, 16
13, 10
11, 8
8, 11
2, 5
10, 7
5, 7
6, 7
5, 7
8, 11
4, 7
8, 7
11, 10
10, 17
5, 3
7, 5
3, 7
5, 6
2, 4
3, 3
4, 6
5, 2
3, 9
7, 4
3, 3
7, 6
4, 1
8, 5
4, 4
1, 6
7, 4
0, 6
2, 3
1, 4
1, 5
2, 3
2, 5
4, 3
3, 1
1, 4
1, 0
0, 3
4, 4
0, 1
0, 1
1, 4
0, 2
2, 0
1, 4
3, 0
4, 4
1, 6
3, 2
2, 1
0, 1
1, 4
0, 3
2, 4
2, 1
2, 2
0, 2
0, 1
2, 0
1, 0
0, 1
2, 1
3, 0
0, 1
0, 1
1, 1
0, 2
1, 0
0, 0
1, 1
0, 1
0, 0
1, 0
0, 0
1, 0
0, 2
0, 1
1, 0
0, 0
1, 0
0, 1
0, 1
1, 0
0, 0
0, 2
0, 0
0, 1
1, 0
0, 0
0, 0
0, 0
0, 0
0, 0
0, 0
0, 0
0, 0
0, 0
0, 1
0, 0
0, 0
0, 0
0, 1
0, 1
1, 1
0, 0
0, 0
1, 0
2, 0
0, 0
0, 0
1, 0
0, 0
0, 1
0, 0
0, 0
0, 0
0, 0
0, 0
0, 0
0, 0
0, 0
0, 0
0, 0
2, 0
0, 0
0, 0
1, 0
0, 0
0, 0
0, 0
0, 0
0, 0
1, 0
0, 0
0, 0
0, 0
0, 0
0, 1
0, 0
0, 0
0, 0
0, 0
0, 0
0, 0
0, 0
0, 0
0, 0
0, 0
0, 0
0, 0
0, 0
0, 0
0, 0
0, 0
0, 0
0, 0
0, 0
0, 0
0, 0
0, 0
0, 0
0, 0
0, 0
0, 0
0, 0
0, 0
0, 0
0, 0
0, 0
0, 0
0, 0
0, 0
0, 0
0, 0
0, 0
0, 0
0, 0
0, 0
0, 0
0, 0
0, 0
0, 0
0, 0
0, 0
0, 0
0, 0
0, 0
0, 0
0, 0
0, 0
0, 0
0, 0
0, 0
0, 0
0, 0
0, 0
0, 0
0, 0
0, 0
0, 0
0, 0
0, 0
0, 0
0, 0
0, 0
0, 0
0, 0
0, 0
0, 0
0, 0
0, 0
0, 0
0, 0
0, 0
0, 0
0, 0
0, 0
0, 0
0, 0
0, 0
0, 0
0, 0
0, 0
0, 0
#ENDOFDATA     end of spectrum data

File: ps__0567_0717304816_000rfs_shot_93.msa
#FORMAT      : EMSA/MAS spectral data file
#VERSION     : TC202v2.0 PIXL
#TITLE       : Novarupta (sol567) subset1
#DATE        : 02-11-2024      Date in the format DD-MMM-YYYY, for example 07-JUL-2010
#TIME        :             The time of day at which the spectrum was recorded, in 24-hour format
#OWNER       : PIXL Flight Model       (PIXL will use this to indicate which instrument took the data.)
#NPOINTS     : 4096     Number of data points in the spectrum (This can be zero for configuration only files)
#NCOLUMNS    : 2     Number of data columns in the spectrum (This can be zero for configuration only files)
#XUNITS      : eV
#YUNITS      : COUNTS
#DATATYPE    : YY
#XPERCHAN    : 7.862, 7.881   eV per channel (separate by commas if more than one detector)
#OFFSET      : 18.5, -22.4         eV of first channel  (separate by commas if more than one detector
#SIGNALTYPE  : XRF
#YP_TEMP     : -1.004
#LIVETIME    : 8.847, 8.83528   seconds (separate by commas if more than one detector)
#REALTIME    : 10, 10.0   seconds (separate by commas if more than one detector)
#SPECTRUM    : start of spectrum data
0, 0
0, 0
0, 0
0, 0
0, 0
0, 0
0, 0
0, 0
1, 3
2, 1
5, 4
16, 12
14, 7
33, 24
48, 46
123, 130
448, 481
123, 93
40, 26
19, 32
55, 57
259, 259
111, 105
76, 76
201, 233
107, 107
67, 54
38, 19
9, 8
6, 4
32, 30
12, 13
21, 25
201, 224
321, 334
45, 33
41, 41
46, 54
14, 9
7, 15
29, 18
52, 63
24, 39
13, 13
10, 16
31, 21
12, 9
10, 11
14, 16
26, 34
25, 21
12, 6
10, 8
39, 33
36, 37
23, 18
39, 52
386, 528
1619, 1722
995, 863
98, 88
22, 23
19, 23
100, 111
244, 262
129, 124
21, 14
7, 9
12, 10
15, 8
5, 6
7, 6
7, 7
5, 7
12, 6
5, 8
12, 10
11, 7
10, 13
10, 7
13, 8
4, 3
4, 4
5, 4
5, 1
4, 0
5, 4
5, 4
3, 3
3, 5
3, 3
4, 3
4, 8
4, 3
4, 3
3, 3
4, 2
1, 8
4, 5
3, 5
2, 5
1, 2
4, 1
0, 3
1, 5
3, 5
1, 4
1, 2
2, 3
3, 3
3, 2
0, 2
2, 0
1, 1
0, 2
3, 0
9, 4
1, 2
2, 1
1, 1
3, 2
3, 2
0, 3
1, 0
2, 1
2, 1
1, 3
0, 1
1, 2
2, 1
2, 2
0, 0
0, 0
1, 0
2, 1
0, 0
0, 0
0, 0
0, 0
0, 0
0, 2
1, 1
4, 0
1, 0
1, 0
1, 2
0, 1
0, 0
0, 0
0, 0
1, 0
0, 0
0, 0
0, 0
0, 0
0, 0
0, 2
0, 1
0, 0
0, 0
0, 1
1, 0
0, 1
0, 0
1, 1
0, 0
1, 2
0, 0
1, 0
0, 0
1, 0
1, 0
0, 0
0, 0
0, 0
1, 0
0, 0
0, 0
1, 1
0, 0
0, 0
0, 1
1, 0
0, 0
0, 0
0, 0
0, 1
0, 0
0, 0
0, 0
1, 0
0, 0
0, 0
0, 0
0, 0
0, 0
0, 0
0, 0
0, 0
0, 0
0, 0
0, 0
0, 0
0, 0
0, 0
0, 0
0, 0
0, 0
0, 0
0, 0
0, 0
0, 0
0, 0
0, 0
0, 0
0, 0
0, 0
0, 0
0, 0
0, 0
0, 0
0, 0
0, 0
0, 0
0, 0
0, 0
0, 0
0, 0
0, 0
0, 0
0, 0
0, 0
0, 0
0, 0
0, 0
0, 0
0, 0
0, 0
0, 0
0, 0
0, 0
0, 0
0, 0
0, 0
0, 0
0, 0
0, 0
0, 0
0, 0
0, 0
0, 0
0, 0
0, 0
0, 0
0, 0
0, 0
0, 0
0, 0
0, 0
0, 0
0, 0
0, 0
0, 0
0, 0
0, 0
0, 0
0, 0
0, 0
0, 0
0, 0
0, 0
0, 0
0, 0
0, 0
0, 0
0, 0
0, 0
0, 0
0, 0
0, 0
0, 0
0, 0
0, 0
0, 0
0, 0
0, 0
0, 0
0, 0
0, 0
0, 0
0, 0
0, 0
0, 0
0, 0
#ENDOFDATA     end of spectrum data

File: ps__0567_0717304816_000rfs_shot_97.msa
#FORMAT      : EMSA/MAS spectral data file
#VERSION     : TC202v2.0 PIXL
#TITLE       : Novarupta (sol567) subset1
#DATE        : 02-11-2024      Date in the format DD-MMM-YYYY, for example 07-JUL-2010
#TIME        :             The time of day at which the spectrum was recorded, in 24-hour format
#OWNER       : PIXL Flight Model       (PIXL will use this to indicate which instrument took the data.)
#NPOINTS     : 4096     Number of data points in the spectrum (This can be zero for configuration only files)
#NCOLUMNS    : 2     Number of data columns in the spectrum (This can be zero for configuration only files)
#XUNITS      : eV
#YUNITS      : COUNTS
#DATATYPE    : YY
#XPERCHAN    : 7.862, 7.881   eV per channel (separate by commas if more than one detector)
#OFFSET      : 18.5, -22.4         eV of first channel  (separate by commas if more than one detector
#SIGNALTYPE  : XRF
#YP_TEMP     : -0.94
#LIVETIME    : 8.84149, 8.6419   seconds (separate by commas if more than one detector)
#REALTIME    : 10, 10.0   seconds (separate by commas if more than one detector)
#SPECTRUM    : start of spectrum data
0, 0
0, 0
0, 0
0, 0
0, 0
0, 0
0, 0
1, 0
2, 1
5, 2
3, 1
7, 7
7, 13
28, 23
43, 48
91, 129
424, 518
107, 96
21, 32
22, 21
48, 62
287, 321
104, 106
82, 71
231, 201
105, 115
68, 62
19, 30
7, 10
10, 4
22, 31
11, 16
24, 20
230, 234
305, 303
38, 48
41, 44
49, 62
15, 15
19, 8
21, 33
42, 74
25, 44
14, 13
11, 16
21, 17
14, 10
12, 7
13, 15
30, 27
25, 17
14, 21
14, 9
32, 38
51, 42
17, 24
32, 38
413, 565
1506, 1806
925, 924
104, 71
13, 12
18, 16
90, 115
257, 243
155, 134
18, 18
9, 14
14, 10
11, 8
8, 7
7, 8
5, 8
11, 5
14, 9
4, 7
7, 4
2, 7
8, 12
10, 7
1, 10
4, 5
3, 9
5, 3
4, 6
5, 3
2, 5
10, 5
5, 6
3, 4
4, 4
8, 2
5, 5
6, 3
2, 4
5, 3
2, 1
4, 3
3, 2
5, 2
3, 3
4, 2
2, 6
0, 1
2, 2
1, 2
4, 2
3, 5
0, 0
1, 3
1, 1
3, 2
0, 0
4, 2
0, 4
1, 1
3, 5
3, 0
2, 2
2, 1
1, 3
2, 2
2, 0
5, 4
4, 2
1, 0
1, 0
1, 0
1, 2
2, 4
0, 0
0, 1
2, 1
2, 2
1, 1
1, 0
2, 0
1, 1
1, 1
0, 1
1, 1
0, 0
2, 1
1, 2
0, 1
2, 1
1, 2
0, 0
0, 0
1, 0
0, 2
1, 0
0, 1
0, 4
0, 0
0, 0
0, 0
1, 0
0, 0
0, 1
0, 0
0, 0
1, 0
0, 0
0, 1
0, 1
0, 0
0, 0
0, 0
0, 0
0, 0
0, 0
0, 0
0, 1
0, 0
0, 1
0, 0
0, 1
0, 0
1, 0
0, 1
0, 0
0, 0
1, 0
1, 0
0, 0
0, 0
0, 0
1, 1
0, 0
0, 0
0, 0
0, 0
0, 0
0, 0
0, 0
0, 0
0, 0
1, 0
0, 0
0, 0
0, 0
0, 0
0, 0
0, 0
0, 0
0, 0
0, 0
0, 0
0, 0
0, 0
0, 0
0, 0
0, 0
0, 0
0, 0
0, 0
0, 0
0, 0
0, 0
0, 0
0, 0
0, 0
0, 0
0, 0
0, 0
0, 0
0, 0
0, 0
0, 0
0, 0
0, 0
0, 0
0, 0
0, 0
0, 0
0, 0
0, 0
0, 0
0, 0
0, 0
0, 0
0, 0
0, 0
0, 0
0, 0
0, 0
0, 0
0, 0
0, 0
0, 0
0, 0
0, 0
0, 0
0, 0
0, 0
0, 0
0, 0
0, 0
0, 0
0, 0
0, 0
0, 0
0, 0
0, 0
0, 0
0, 0
0, 0
0, 0
0, 0
0, 0
0, 0
0, 0
0, 0
0, 0
0, 0
0, 0
0, 0
0, 0
0, 0
0, 0
0, 0
0, 0
0, 0
0, 0
0, 0
0, 0
0, 0
0, 0
0, 0
0, 0
0, 0
0, 0
0, 0
#ENDOFDATA     end of spectrum data

File: ps__0567_0717304816_000rfs_shot_98.msa
#FORMAT      : EMSA/MAS spectral data file
#VERSION     : TC202v2.0 PIXL
#TITLE       : Novarupta (sol567) subset1
#DATE        : 02-11-2024      Date in the format DD-MMM-YYYY, for example 07-JUL-2010
#TIME        :             The time of day at which the spectrum was recorded, in 24-hour format
#OWNER       : PIXL Flight Model       (PIXL will use this to indicate which instrument took the data.)
#NPOINTS     : 4096     Number of data points in the spectrum (This can be zero for configuration only files)
#NCOLUMNS    : 2     Number of data columns in the spectrum (This can be zero for configuration only files)
#XUNITS      : eV
#YUNITS      : COUNTS
#DATATYPE    : YY
#XPERCHAN    : 7.862, 7.881   eV per channel (separate by commas if more than one detector)
#OFFSET      : 18.5, -22.4         eV of first channel  (separate by commas if more than one detector
#SIGNALTYPE  : XRF
#YP_TEMP     : -1.164
#LIVETIME    : 8.85337, 8.8234   seconds (separate by commas if more than one detector)
#REALTIME    : 10, 10.0   seconds (separate by commas if more than one detector)
#SPECTRUM    : start of spectrum data
0, 0
0, 0
0, 0
0, 0
0, 0
0, 0
0, 0
0, 1
2, 3
2, 4
5, 3
8, 5
7, 11
22, 28
40, 46
107, 107
447, 535
118, 113
25, 23
18, 29
64, 67
274, 322
108, 122
87, 85
205, 214
96, 113
56, 68
23, 25
8, 2
9, 12
24, 25
15, 17
17, 27
205, 226
275, 293
37, 39
38, 47
33, 43
9, 11
10, 5
19, 30
53, 75
28, 42
14, 11
19, 13
19, 25
7, 11
8, 9
10, 10
33, 26
21, 14
12, 14
11, 10
30, 42
40, 37
18, 21
35, 42
434, 546
1567, 1801
851, 975
91, 89
14, 17
11, 17
87, 126
237, 250
142, 127
15, 19
7, 11
11, 16
3, 9
4, 9
10, 6
5, 8
7, 3
6, 3
5, 5
6, 9
9, 6
13, 5
7, 10
5, 6
3, 2
6, 5
2, 7
11, 5
7, 7
8, 11
8, 5
4, 4
6, 2
3, 4
1, 8
1, 2
6, 9
3, 2
3, 6
3, 6
7, 0
7, 1
2, 6
3, 3
2, 3
6, 3
1, 5
4, 2
4, 1
6, 0
2, 2
5, 1
3, 2
0, 4
4, 1
1, 3
2, 2
0, 3
3, 1
3, 3
2, 2
0, 3
3, 2
1, 1
1, 2
0, 5
0, 1
0, 1
1, 2
1, 0
2, 1
1, 1
0, 0
2, 0
1, 0
0, 0
0, 1
0, 0
0, 2
2, 1
0, 0
1, 0
1, 0
0, 3
0, 0
0, 0
1, 1
0, 1
0, 0
0, 0
0, 1
0, 1
0, 0
1, 0
0, 0
1, 0
1, 1
1, 1
0, 0
0, 1
0, 0
1, 0
3, 0
0, 0
0, 0
1, 2
0, 0
0, 1
0, 0
1, 1
0, 0
0, 0
0, 0
0, 0
1, 1
0, 0
0, 1
0, 1
0, 0
0, 0
0, 0
1, 0
0, 0
0, 0
0, 0
0, 0
0, 0
0, 0
0, 0
0, 0
0, 0
0, 0
0, 0
0, 0
0, 0
0, 0
0, 0
0, 0
1, 0
0, 0
0, 0
0, 0
0, 0
0, 0
0, 0
0, 0
0, 0
0, 0
0, 0
0, 0
0, 0
0, 0
0, 0
0, 0
0, 1
0, 0
0, 0
0, 0
0, 0
0, 0
0, 0
0, 1
0, 0
0, 0
0, 1
0, 0
0, 0
0, 0
0, 0
0, 0
0, 0
0, 0
0, 0
0, 0
0, 0
0, 0
0, 0
0, 0
0, 0
0, 0
0, 0
0, 0
0, 0
0, 0
0, 0
0, 0
0, 0
0, 0
0, 0
0, 0
0, 0
0, 0
0, 0
0, 0
0, 0
0, 0
0, 0
0, 0
0, 0
0, 0
0, 0
0, 0
0, 0
0, 0
0, 0
0, 0
0, 0
0, 0
0, 0
0, 0
0, 0
0, 0
0, 0
0, 0
0, 0
0, 0
0, 0
0, 0
0, 0
0, 0
0, 0
0, 0
0, 0
0, 0
0, 0
0, 0
0, 0
0, 0
0, 0
0, 0
0, 0
0, 0
0, 0
0, 0
0, 0
0, 0
0, 0
#ENDOFDATA     end of spectrum data

File: ps__0567_0717304816_000rfs_shot_100.msa
#FORMAT      : EMSA/MAS spectral data file
#VERSION     : TC202v2.0 PIXL
#TITLE       : Novarupta (sol567) subset1
#DATE        : 02-11-2024      Date in the format DD-MMM-YYYY, for example 07-JUL-2010
#TIME        :             The time of day at which the spectrum was recorded, in 24-hour format
#OWNER       : PIXL Flight Model       (PIXL will use this to indicate which instrument took the data.)
#NPOINTS     : 4096     Number of data points in the spectrum (This can be zero for configuration only files)
#NCOLUMNS    : 2     Number of data columns in the spectrum (This can be zero for configuration only files)
#XUNITS      : eV
#YUNITS      : COUNTS
#DATATYPE    : YY
#XPERCHAN    : 7.862, 7.881   eV per channel (separate by commas if more than one detector)
#OFFSET      : 18.5, -22.4         eV of first channel  (separate by commas if more than one detector
#SIGNALTYPE  : XRF
#YP_TEMP     : -0.908
#LIVETIME    : 8.84503, 8.82857   seconds (separate by commas if more than one detector)
#REALTIME    : 10, 10.0   seconds (separate by commas if more than one detector)
#SPECTRUM    : start of spectrum data
0, 0
0, 0
0, 0
0, 0
0, 0
0, 0
0, 0
1, 2
5, 5
2, 5
8, 1
9, 7
9, 13
22, 35
28, 55
103, 142
468, 528
109, 137
23, 21
23, 22
65, 58
270, 319
124, 118
76, 73
195, 232
95, 117
77, 61
27, 23
7, 6
7, 9
18, 34
19, 26
22, 27
224, 238
300, 327
39, 46
36, 39
43, 47
15, 11
17, 9
22, 28
64, 64
33, 30
10, 11
18, 14
16, 19
11, 15
10, 7
22, 15
15, 44
19, 27
15, 13
4, 18
27, 48
51, 50
25, 23
33, 43
424, 518
1487, 1901
925, 899
95, 102
18, 17
24, 21
88, 98
237, 265
140, 123
12, 14
8, 11
14, 15
8, 4
7, 7
6, 9
4, 9
8, 6
5, 7
9, 8
8, 3
6, 9
9, 7
13, 12
3, 8
3, 9
7, 6
10, 7
4, 9
6, 5
7, 4
9, 2
3, 3
5, 5
4, 5
4, 6
8, 2
4, 1
4, 6
3, 4
5, 2
5, 7
3, 3
4, 2
3, 4
1, 1
2, 1
2, 3
3, 4
5, 3
2, 5
2, 2
0, 0
3, 2
3, 2
0, 1
0, 2
5, 2
0, 1
1, 2
4, 1
5, 1
3, 3
0, 3
2, 1
0, 0
2, 0
3, 0
1, 1
1, 3
0, 1
2, 1
0, 1
1, 1
1, 1
0, 1
0, 1
0, 0
1, 2
0, 0
0, 1
1, 3
0, 0
0, 3
1, 2
2, 1
0, 0
0, 1
0, 0
1, 0
0, 1
0, 0
1, 0
0, 0
0, 0
0, 1
1, 2
0, 2
0, 1
0, 0
0, 0
0, 0
1, 0
0, 0
0, 1
0, 0
0, 0
1, 0
0, 0
0, 0
1, 0
1, 0
1, 0
0, 1
0, 0
0, 0
0, 0
1, 0
0, 0
0, 0
0, 0
0, 1
0, 0
0, 1
0, 0
0, 0
0, 0
0, 0
0, 1
0, 0
0, 0
0, 0
0, 0
0, 0
0, 0
0, 0
0, 0
0, 0
0, 0
0, 0
0, 0
0, 0
0, 0
0, 0
0, 0
0, 0
0, 0
0, 0
0, 0
0, 0
0, 0
0, 0
0, 0
0, 0
0, 0
0, 0
0, 0
0, 0
0, 0
0, 0
0, 0
0, 0
0, 0
0, 0
0, 0
0, 0
0, 0
0, 0
0, 0
0, 0
0, 0
0, 0
0, 0
0, 0
0, 0
0, 0
0, 0
0, 0
0, 0
0, 0
0, 0
0, 0
0, 0
0, 0
0, 0
0, 0
0, 0
0, 0
0, 0
0, 0
0, 0
0, 0
0, 0
0, 0
0, 0
0, 0
0, 0
0, 0
0, 0
0, 0
0, 0
0, 0
0, 0
0, 0
0, 0
0, 0
0, 0
0, 0
0, 0
0, 0
0, 0
0, 0
0, 0
0, 0
0, 0
0, 0
0, 0
0, 0
0, 0
0, 0
0, 0
0, 0
0, 0
0, 0
0, 0
0, 0
0, 0
0, 0
0, 0
0, 0
0, 0
0, 0
0, 0
0, 0
0, 0
0, 0
0, 0
0, 0
#ENDOFDATA     end of spectrum data

File: ps__0567_0717304816_000rfs_shot_101.msa
#FORMAT      : EMSA/MAS spectral data file
#VERSION     : TC202v2.0 PIXL
#TITLE       : Novarupta (sol567) subset1
#DATE        : 02-11-2024      Date in the format DD-MMM-YYYY, for example 07-JUL-2010
#TIME        :             The time of day at which the spectrum was recorded, in 24-hour format
#OWNER       : PIXL Flight Model       (PIXL will use this to indicate which instrument took the data.)
#NPOINTS     : 4096     Number of data points in the spectrum (This can be zero for configuration only files)
#NCOLUMNS    : 2     Number of data columns in the spectrum (This can be zero for configuration only files)
#XUNITS      : eV
#YUNITS      : COUNTS
#DATATYPE    : YY
#XPERCHAN    : 7.862, 7.881   eV per channel (separate by commas if more than one detector)
#OFFSET      : 18.5, -22.4         eV of first channel  (separate by commas if more than one detector
#SIGNALTYPE  : XRF
#YP_TEMP     : -1.1
#LIVETIME    : 8.84074, 8.81444   seconds (separate by commas if more than one detector)
#REALTIME    : 10, 10.0   seconds (separate by commas if more than one detector)
#SPECTRUM    : start of spectrum data
0, 0
0, 0
0, 0
0, 0
0, 0
0, 0
0, 0
0, 0
2, 3
2, 0
2, 2
10, 12
14, 10
22, 24
37, 33
102, 132
463, 579
117, 112
35, 31
16, 20
55, 55
272, 299
92, 118
72, 78
204, 241
106, 102
73, 69
22, 27
9, 11
9, 13
32, 36
17, 19
13, 24
197, 249
278, 319
46, 54
47, 41
41, 53
15, 6
12, 10
27, 23
57, 65
31, 43
9, 15
13, 8
20, 21
14, 15
9, 8
11, 16
26, 31
20, 20
12, 16
13, 17
35, 33
41, 41
13, 22
27, 50
377, 555
1624, 1810
923, 958
107, 90
19, 21
25, 26
73, 110
251, 258
135, 147
20, 21
4, 14
11, 10
5, 7
2, 6
10, 6
7, 6
5, 17
3, 10
9, 5
4, 7
3, 7
8, 14
9, 13
8, 6
6, 5
3, 10
2, 7
5, 5
4, 5
3, 8
6, 3
3, 12
4, 7
3, 5
4, 6
1, 5
6, 6
4, 5
2, 4
2, 5
0, 3
0, 1
2, 3
2, 6
3, 1
2, 2
1, 2
3, 2
1, 3
4, 2
2, 2
2, 0
4, 0
1, 1
0, 1
1, 2
3, 2
4, 0
2, 7
5, 3
1, 0
5, 1
2, 2
0, 2
2, 1
0, 3
2, 1
2, 0
1, 0
2, 2
0, 0
0, 5
1, 2
1, 4
0, 1
3, 2
1, 0
2, 0
2, 0
0, 2
1, 3
0, 1
3, 0
0, 1
0, 1
1, 1
1, 0
1, 0
1, 0
1, 1
2, 1
0, 0
0, 1
0, 1
0, 0
1, 0
0, 0
0, 0
0, 2
0, 1
0, 1
1, 0
0, 0
0, 0
0, 0
0, 0
0, 0
0, 0
0, 0
1, 0
0, 0
0, 1
0, 0
0, 0
0, 1
0, 0
0, 1
0, 0
0, 0
0, 0
0, 0
0, 0
0, 1
0, 0
0, 0
0, 1
1, 0
0, 0
0, 0
0, 0
0, 0
0, 0
0, 0
0, 0
1, 0
0, 0
0, 0
0, 0
0, 0
0, 0
0, 0
2, 0
0, 0
0, 0
0, 0
0, 0
0, 0
0, 0
0, 0
0, 0
0, 0
0, 0
0, 0
0, 0
0, 0
0, 0
0, 0
0, 0
0, 0
0, 0
0, 0
0, 0
0, 0
0, 0
0, 0
0, 0
0, 0
0, 0
0, 0
0, 0
0, 0
0, 0
0, 0
0, 0
0, 0
0, 0
0, 0
0, 0
0, 0
0, 0
0, 0
0, 0
0, 0
0, 0
0, 0
0, 0
0, 0
0, 0
0, 0
0, 0
0, 0
0, 0
0, 0
0, 0
0, 0
0, 0
1, 0
0, 0
0, 0
0, 0
0, 0
0, 0
0, 0
0, 0
0, 0
0, 0
0, 0
0, 0
0, 0
0, 0
0, 0
0, 0
0, 0
0, 0
0, 0
0, 0
0, 0
0, 0
0, 0
0, 0
0, 0
0, 0
0, 0
0, 0
0, 0
0, 0
0, 0
0, 0
0, 0
0, 0
0, 0
0, 0
0, 0
0, 0
0, 0
0, 0
0, 0
#ENDOFDATA     end of spectrum data

File: ps__0567_0717304816_000rfs_shot_102.msa
#FORMAT      : EMSA/MAS spectral data file
#VERSION     : TC202v2.0 PIXL
#TITLE       : Novarupta (sol567) subset1
#DATE        : 02-11-2024      Date in the format DD-MMM-YYYY, for example 07-JUL-2010
#TIME        :             The time of day at which the spectrum was recorded, in 24-hour format
#OWNER       : PIXL Flight Model       (PIXL will use this to indicate which instrument took the data.)
#NPOINTS     : 4096     Number of data points in the spectrum (This can be zero for configuration only files)
#NCOLUMNS    : 2     Number of data columns in the spectrum (This can be zero for configuration only files)
#XUNITS      : eV
#YUNITS      : COUNTS
#DATATYPE    : YY
#XPERCHAN    : 7.862, 7.881   eV per channel (separate by commas if more than one detector)
#OFFSET      : 18.5, -22.4         eV of first channel  (separate by commas if more than one detector
#SIGNALTYPE  : XRF
#YP_TEMP     : -1.004
#LIVETIME    : 8.85267, 8.82118   seconds (separate by commas if more than one detector)
#REALTIME    : 10, 10.0   seconds (separate by commas if more than one detector)
#SPECTRUM    : start of spectrum data
0, 0
0, 0
0, 0
0, 0
0, 0
0, 0
0, 0
0, 1
4, 4
0, 3
6, 1
13, 16
13, 16
25, 25
47, 44
110, 124
458, 563
135, 132
28, 36
17, 30
60, 64
252, 337
110, 109
73, 63
181, 218
87, 113
84, 60
26, 37
11, 4
6, 10
25, 34
14, 15
24, 27
223, 247
301, 351
55, 48
52, 66
47, 48
12, 11
12, 13
9, 24
56, 65
28, 38
13, 8
15, 19
16, 18
8, 12
8, 7
11, 17
32, 39
11, 15
10, 11
14, 10
38, 42
44, 47
19, 13
25, 38
384, 530
1546, 1874
935, 916
113, 74
17, 11
24, 27
86, 116
225, 292
140, 145
12, 17
10, 7
6, 10
8, 6
11, 3
10, 4
5, 4
3, 7
8, 12
5, 5
6, 8
6, 9
10, 11
8, 6
8, 9
1, 8
4, 3
4, 9
2, 6
5, 4
6, 4
2, 4
8, 4
3, 3
4, 4
2, 4
7, 8
8, 2
2, 3
3, 4
3, 6
4, 2
2, 6
4, 3
3, 6
1, 3
3, 4
4, 4
2, 5
1, 3
2, 2
2, 5
1, 2
3, 2
2, 1
0, 0
3, 0
0, 3
2, 1
2, 4
3, 3
1, 4
5, 3
0, 0
1, 2
1, 2
2, 2
1, 1
0, 1
0, 1
1, 1
1, 2
1, 1
1, 0
0, 1
0, 1
0, 0
0, 0
0, 2
1, 0
0, 1
0, 0
0, 0
1, 0
1, 0
1, 1
0, 1
0, 0
1, 3
1, 0
3, 0
0, 0
1, 0
1, 0
0, 1
0, 0
1, 0
0, 0
0, 1
1, 0
0, 1
0, 0
0, 0
0, 1
0, 0
0, 0
0, 0
0, 0
0, 1
0, 0
0, 0
0, 0
0, 0
0, 1
0, 0
0, 1
0, 0
0, 2
1, 1
0, 0
0, 0
0, 0
0, 0
0, 0
0, 0
0, 0
0, 0
0, 0
0, 1
0, 0
0, 0
0, 0
0, 0
0, 0
0, 0
0, 1
0, 0
0, 1
0, 0
0, 0
0, 0
0, 0
0, 0
0, 0
0, 0
0, 0
0, 0
0, 0
0, 0
0, 0
0, 0
0, 0
0, 0
0, 0
0, 0
0, 0
0, 0
0, 0
0, 0
0, 0
0, 0
0, 0
0, 0
0, 0
0, 0
0, 0
0, 0
0, 0
0, 0
0, 0
0, 0
0, 0
0, 0
0, 0
0, 0
0, 0
0, 0
0, 0
0, 0
0, 0
0, 0
0, 0
0, 0
0, 0
0, 0
0, 0
0, 0
0, 0
0, 0
0, 0
0, 0
0, 0
0, 0
0, 0
0, 0
0, 0
0, 0
0, 0
0, 0
0, 0
0, 0
0, 0
0, 0
0, 0
0, 0
0, 0
0, 0
0, 0
0, 0
0, 0
0, 0
0, 0
0, 0
0, 0
0, 0
0, 0
0, 0
0, 0
0, 0
0, 0
0, 0
0, 0
0, 0
0, 0
0, 0
0, 0
0, 0
0, 0
0, 0
0, 0
0, 0
0, 0
0, 0
0, 0
0, 0
0, 0
0, 0
0, 0
#ENDOFDATA     end of spectrum data