Folder: data-repository/host_upload/02-11-2024/rqc/uplink1 (part 3)

File: ps__0567_0717304816_000rfs_shot_28.msa
#FORMAT      : EMSA/MAS spectral data file
#VERSION     : TC202v2.0 PIXL
#TITLE       : Novarupta (sol567) subset1
#DATE        : 02-11-2024      Date in the format DD-MMM-YYYY, for example 07-JUL-2010
#TIME        :             The time of day at which the spectrum was recorded, in 24-hour format
#OWNER       : PIXL Flight Model       (PIXL will use this to indicate which instrument took the data.)
#NPOINTS     : 4096     Number of data points in the spectrum (This can be zero for configuration only files)
#NCOLUMNS    : 2     Number of data columns in the spectrum (This can be zero for configuration only files)
#XUNITS      : eV
#YUNITS      : COUNTS
#DATATYPE    : YY
#XPERCHAN    : 7.862, 7.881   eV per channel (separate by commas if more than one detector)
#OFFSET      : 18.5, -22.4         eV of first channel  (separate by commas if more than one detector
#SIGNALTYPE  : XRF
#YP_TEMP     : -4.147
#LIVETIME    : 8.84026, 8.831   seconds (separate by commas if more than one detector)
#REALTIME    : 10, 10.0   seconds (separate by commas if more than one detector)
#SPECTRUM    : start of spectrum data
0, 0
0, 0
0, 0
0, 0
0, 0
0, 0
0, 0
0, 1
1, 3
2, 4
1, 5
9, 14
13, 17
26, 33
28, 43
135, 135
487, 510
125, 105
30, 36
18, 17
60, 89
289, 325
106, 109
97, 88
234, 220
99, 110
69, 59
26, 18
6, 8
9, 9
24, 34
20, 18
27, 42
241, 312
289, 290
54, 42
56, 42
34, 45
8, 13
4, 11
28, 29
67, 73
23, 34
19, 9
11, 14
14, 20
15, 10
12, 10
7, 22
29, 31
20, 25
16, 9
16, 12
37, 42
43, 48
20, 23
49, 56
577, 671
1747, 1782
846, 748
84, 61
19, 16
27, 29
134, 135
259, 268
129, 95
13, 16
12, 8
15, 12
5, 7
8, 6
3, 9
4, 6
3, 6
6, 9
4, 5
4, 6
4, 6
13, 17
10, 10
6, 2
4, 9
6, 4
3, 2
1, 4
7, 7
4, 6
2, 7
6, 6
4, 2
8, 5
3, 3
5, 1
0, 7
2, 6
2, 2
3, 2
2, 6
3, 3
3, 6
3, 4
2, 4
1, 0
4, 5
1, 2
5, 2
3, 3
1, 4
5, 1
2, 5
3, 5
1, 3
3, 1
4, 3
3, 1
2, 3
2, 3
2, 1
1, 7
2, 0
2, 3
2, 1
1, 2
2, 0
0, 2
2, 1
1, 2
0, 3
1, 1
0, 1
0, 0
0, 0
0, 1
0, 0
1, 1
2, 1
1, 0
0, 0
1, 1
0, 0
1, 2
1, 0
0, 0
1, 1
1, 0
1, 0
0, 0
0, 1
2, 0
0, 0
2, 0
0, 0
1, 1
0, 0
1, 0
1, 0
0, 1
0, 0
0, 0
0, 0
0, 0
0, 0
1, 0
1, 0
1, 0
0, 0
0, 0
0, 0
0, 1
0, 0
0, 0
0, 1
0, 1
0, 0
0, 0
0, 0
0, 1
0, 0
1, 0
0, 0
0, 0
0, 0
0, 0
0, 0
0, 1
0, 0
0, 0
0, 0
0, 1
0, 0
0, 0
0, 0
0, 0
0, 0
0, 0
1, 0
0, 0
0, 1
0, 0
0, 0
0, 0
0, 0
0, 0
0, 0
0, 0
0, 0
0, 0
0, 0
0, 0
0, 0
0, 0
0, 0
0, 0
0, 0
0, 0
0, 0
0, 0
0, 0
0, 0
0, 0
0, 0
0, 0
0, 0
0, 0
0, 0
0, 0
0, 0
0, 0
0, 0
0, 0
0, 0
0, 0
0, 0
0, 0
0, 0
0, 0
1, 0
0, 0
0, 0
0, 0
0, 0
0, 0
0, 0
0, 0
0, 0
0, 0
0, 0
0, 0
0, 0
0, 0
0, 0
0, 0
0, 0
0, 0
0, 0
0, 0
0, 0
0, 0
0, 0
0, 0
0, 0
0, 0
0, 0
0, 0
0, 0
0, 0
0, 0
0, 0
0, 0
0, 0
0, 0
0, 0
0, 0
0, 0
0, 0
0, 0
0, 0
0, 0
0, 0
0, 0
0, 0
0, 0
0, 0
0, 0
0, 0
0, 0
0, 0
0, 0
0, 0
0, 0
0, 0
0, 0
0, 0
0, 0
#ENDOFDATA     end of spectrum data

File: ps__0567_0717304816_000rfs_shot_29.msa
#FORMAT      : EMSA/MAS spectral data file
#VERSION     : TC202v2.0 PIXL
#TITLE       : Novarupta (sol567) subset1
#DATE        : 02-11-2024      Date in the format DD-MMM-YYYY, for example 07-JUL-2010
#TIME        :             The time of day at which the spectrum was recorded, in 24-hour format
#OWNER       : PIXL Flight Model       (PIXL will use this to indicate which instrument took the data.)
#NPOINTS     : 4096     Number of data points in the spectrum (This can be zero for configuration only files)
#NCOLUMNS    : 2     Number of data columns in the spectrum (This can be zero for configuration only files)
#XUNITS      : eV
#YUNITS      : COUNTS
#DATATYPE    : YY
#XPERCHAN    : 7.862, 7.881   eV per channel (separate by commas if more than one detector)
#OFFSET      : 18.5, -22.4         eV of first channel  (separate by commas if more than one detector
#SIGNALTYPE  : XRF
#YP_TEMP     : -4.371
#LIVETIME    : 8.84097, 8.8216   seconds (separate by commas if more than one detector)
#REALTIME    : 10, 10.0   seconds (separate by commas if more than one detector)
#SPECTRUM    : start of spectrum data
0, 0
0, 0
0, 0
0, 0
0, 0
0, 0
0, 0
2, 3
2, 1
1, 4
5, 8
8, 4
12, 13
19, 19
34, 38
134, 120
463, 487
112, 115
49, 27
30, 18
73, 73
299, 294
107, 104
93, 86
234, 251
127, 119
63, 76
24, 22
8, 6
5, 11
28, 28
13, 10
26, 34
229, 271
276, 325
53, 53
44, 43
45, 49
11, 13
8, 7
22, 32
50, 69
33, 34
16, 14
22, 17
15, 18
18, 12
11, 11
15, 23
32, 39
27, 20
8, 10
15, 17
32, 36
50, 45
16, 18
48, 54
535, 653
1679, 1788
781, 748
81, 55
14, 16
34, 20
127, 140
236, 276
134, 103
17, 11
11, 10
9, 14
10, 11
5, 2
8, 8
9, 5
5, 9
5, 9
7, 9
3, 7
6, 3
9, 8
8, 15
10, 8
6, 11
3, 8
7, 9
4, 3
3, 7
4, 7
3, 4
3, 6
4, 5
4, 6
2, 4
5, 4
1, 3
4, 3
4, 5
3, 8
3, 3
3, 1
3, 1
4, 4
3, 1
2, 1
4, 1
3, 3
4, 0
1, 6
4, 3
2, 6
2, 2
1, 4
0, 1
0, 2
1, 2
0, 1
3, 7
4, 5
4, 3
2, 0
4, 2
2, 2
1, 1
2, 3
0, 1
0, 0
0, 3
0, 1
1, 4
0, 1
1, 5
0, 0
0, 0
0, 1
0, 1
2, 1
0, 2
0, 0
0, 0
0, 0
1, 1
2, 0
1, 0
0, 3
0, 2
1, 1
0, 0
1, 0
1, 0
1, 2
0, 0
1, 0
1, 0
1, 0
0, 0
1, 0
1, 0
0, 0
0, 0
0, 0
0, 2
0, 1
0, 1
0, 0
0, 0
0, 0
0, 1
0, 2
1, 0
0, 0
1, 0
1, 0
1, 0
0, 1
0, 0
0, 1
0, 2
0, 0
1, 0
0, 0
0, 0
1, 1
0, 0
0, 0
0, 1
0, 0
0, 0
0, 0
0, 0
0, 0
1, 0
0, 1
0, 0
0, 0
0, 0
0, 0
0, 0
0, 0
0, 0
0, 0
0, 0
0, 0
0, 0
0, 0
0, 0
0, 0
0, 0
0, 0
0, 0
0, 0
0, 0
0, 0
0, 0
0, 0
0, 0
0, 0
0, 0
0, 0
0, 0
0, 0
0, 0
0, 0
0, 0
0, 0
0, 0
0, 0
0, 0
0, 0
0, 0
0, 0
0, 0
0, 0
0, 0
0, 0
0, 0
0, 0
0, 0
0, 0
0, 0
0, 0
0, 0
0, 0
0, 0
0, 0
0, 0
0, 0
0, 0
0, 0
0, 0
0, 0
0, 0
0, 0
0, 0
0, 0
0, 0
0, 0
0, 0
0, 0
0, 0
0, 0
0, 0
0, 0
0, 0
0, 0
0, 0
0, 0
0, 0
0, 0
0, 0
0, 0
0, 0
0, 0
0, 0
0, 0
0, 0
0, 0
0, 0
0, 0
0, 0
0, 0
0, 0
0, 0
0, 0
0, 0
0, 0
0, 0
0, 0
0, 0
0, 0
0, 0
0, 0
0, 0
0, 0
0, 0
0, 0
#ENDOFDATA     end of spectrum data

File: ps__0567_0717304816_000rfs_shot_31.msa
#FORMAT      : EMSA/MAS spectral data file
#VERSION     : TC202v2.0 PIXL
#TITLE       : Novarupta (sol567) subset1
#DATE        : 02-11-2024      Date in the format DD-MMM-YYYY, for example 07-JUL-2010
#TIME        :             The time of day at which the spectrum was recorded, in 24-hour format
#OWNER       : PIXL Flight Model       (PIXL will use this to indicate which instrument took the data.)
#NPOINTS     : 4096     Number of data points in the spectrum (This can be zero for configuration only files)
#NCOLUMNS    : 2     Number of data columns in the spectrum (This can be zero for configuration only files)
#XUNITS      : eV
#YUNITS      : COUNTS
#DATATYPE    : YY
#XPERCHAN    : 7.862, 7.881   eV per channel (separate by commas if more than one detector)
#OFFSET      : 18.5, -22.4         eV of first channel  (separate by commas if more than one detector
#SIGNALTYPE  : XRF
#YP_TEMP     : -4.275
#LIVETIME    : 8.83162, 8.8266   seconds (separate by commas if more than one detector)
#REALTIME    : 10, 10.0   seconds (separate by commas if more than one detector)
#SPECTRUM    : start of spectrum data
0, 0
0, 0
0, 0
0, 0
0, 0
0, 0
0, 0
0, 2
3, 3
3, 2
7, 1
12, 10
12, 12
20, 24
50, 52
131, 182
494, 504
120, 140
39, 37
15, 20
79, 82
298, 306
115, 125
90, 85
252, 224
105, 115
62, 73
19, 29
11, 10
13, 10
18, 30
13, 18
33, 34
239, 282
300, 316
62, 40
51, 50
54, 50
12, 9
11, 11
27, 34
58, 65
32, 38
20, 7
12, 20
19, 23
7, 17
15, 8
22, 15
26, 40
22, 23
10, 10
14, 12
38, 40
38, 38
17, 25
44, 68
609, 725
1693, 1849
834, 765
90, 60
18, 16
30, 29
132, 169
250, 250
113, 99
18, 24
6, 10
10, 16
15, 10
4, 8
7, 5
4, 10
6, 2
5, 13
7, 12
8, 5
4, 11
6, 6
10, 14
6, 5
4, 2
9, 5
4, 5
0, 7
5, 6
3, 10
12, 8
8, 3
4, 6
4, 7
5, 4
6, 3
5, 2
4, 2
4, 3
4, 2
1, 4
2, 2
6, 1
4, 0
2, 4
4, 1
3, 2
8, 1
3, 4
3, 1
1, 7
6, 1
3, 1
2, 3
3, 4
1, 2
1, 0
3, 0
1, 1
4, 5
3, 6
1, 1
1, 2
0, 2
1, 2
3, 0
2, 0
3, 0
1, 1
1, 0
2, 0
1, 2
1, 2
2, 1
2, 0
0, 0
1, 1
0, 3
0, 0
0, 0
1, 0
0, 1
1, 0
3, 0
1, 0
0, 0
0, 0
1, 1
0, 2
0, 1
0, 0
0, 0
0, 0
0, 0
0, 0
0, 0
0, 1
0, 1
0, 0
0, 0
1, 1
1, 1
0, 0
0, 0
1, 0
1, 0
0, 0
0, 1
1, 1
0, 0
1, 0
0, 1
0, 0
0, 0
0, 0
0, 0
0, 0
0, 0
0, 0
0, 1
0, 0
0, 0
0, 0
0, 0
0, 0
0, 0
1, 0
0, 1
0, 0
0, 0
0, 0
0, 0
0, 1
0, 0
0, 0
0, 0
0, 0
0, 0
0, 0
0, 0
0, 0
0, 0
0, 0
0, 0
0, 1
0, 0
0, 0
0, 0
0, 0
0, 0
0, 0
0, 0
0, 0
1, 0
0, 1
0, 0
0, 0
0, 0
0, 0
0, 0
0, 0
0, 0
0, 0
0, 0
0, 0
0, 0
0, 0
0, 0
0, 0
0, 0
0, 0
0, 0
0, 0
0, 0
0, 0
0, 0
0, 0
0, 0
0, 0
0, 0
0, 0
0, 0
0, 0
0, 0
0, 0
0, 0
0, 0
0, 0
0, 0
0, 0
0, 0
0, 0
0, 0
0, 0
0, 0
0, 0
0, 0
0, 0
0, 0
0, 0
0, 0
0, 0
0, 0
0, 0
0, 0
0, 0
0, 0
0, 0
0, 0
0, 0
0, 0
0, 0
0, 0
0, 0
0, 0
0, 0
0, 0
0, 0
0, 0
0, 0
0, 0
0, 0
0, 0
0, 0
0, 0
0, 0
0, 0
0, 0
0, 0
0, 0
0, 0
0, 0
0, 0
0, 0
0, 0
0, 0
0, 0
#ENDOFDATA     end of spectrum data

File: ps__0567_0717304816_000rfs_shot_36.msa
#FORMAT      : EMSA/MAS spectral data file
#VERSION     : TC202v2.0 PIXL
#TITLE       : Novarupta (sol567) subset1
#DATE        : 02-11-2024      Date in the format DD-MMM-YYYY, for example 07-JUL-2010
#TIME        :             The time of day at which the spectrum was recorded, in 24-hour format
#OWNER       : PIXL Flight Model       (PIXL will use this to indicate which instrument took the data.)
#NPOINTS     : 4096     Number of data points in the spectrum (This can be zero for configuration only files)
#NCOLUMNS    : 2     Number of data columns in the spectrum (This can be zero for configuration only files)
#XUNITS      : eV
#YUNITS      : COUNTS
#DATATYPE    : YY
#XPERCHAN    : 7.862, 7.881   eV per channel (separate by commas if more than one detector)
#OFFSET      : 18.5, -22.4         eV of first channel  (separate by commas if more than one detector
#SIGNALTYPE  : XRF
#YP_TEMP     : -3.602
#LIVETIME    : 8.85784, 8.63724   seconds (separate by commas if more than one detector)
#REALTIME    : 10, 10.0   seconds (separate by commas if more than one detector)
#SPECTRUM    : start of spectrum data
0, 0
0, 0
0, 0
0, 0
0, 0
0, 0
0, 0
0, 0
2, 2
3, 2
4, 1
10, 17
8, 12
25, 33
32, 40
116, 171
386, 563
108, 119
22, 31
31, 35
67, 83
263, 363
104, 124
65, 113
196, 229
93, 143
67, 77
29, 32
7, 10
9, 16
15, 30
26, 8
20, 34
252, 312
271, 365
36, 65
35, 46
39, 52
13, 12
5, 8
22, 27
57, 80
23, 49
10, 15
15, 24
23, 21
9, 19
9, 20
15, 16
29, 38
21, 27
9, 10
17, 13
35, 52
38, 47
17, 24
53, 66
477, 702
1456, 1933
694, 889
72, 82
12, 17
29, 29
99, 158
231, 322
97, 115
12, 15
8, 9
10, 6
9, 5
5, 11
1, 8
8, 4
4, 4
4, 15
8, 8
2, 7
9, 7
3, 19
10, 11
2, 6
4, 3
6, 8
5, 6
3, 6
7, 10
2, 7
7, 7
4, 5
3, 3
2, 5
5, 7
2, 4
2, 4
3, 3
4, 4
2, 3
2, 4
1, 2
1, 5
1, 4
1, 7
1, 6
3, 4
0, 3
1, 5
0, 6
0, 3
3, 6
4, 7
1, 3
2, 1
0, 0
3, 3
2, 3
1, 3
1, 4
1, 1
1, 0
1, 2
0, 2
3, 1
4, 4
0, 2
4, 0
0, 0
0, 2
2, 1
0, 2
1, 3
1, 0
0, 0
0, 1
1, 0
0, 1
1, 0
0, 1
0, 0
0, 0
1, 1
1, 2
0, 1
0, 1
1, 0
1, 0
0, 1
1, 0
0, 0
1, 1
3, 1
0, 0
0, 0
1, 0
0, 0
1, 1
0, 1
0, 0
0, 0
0, 1
0, 1
0, 1
0, 0
0, 0
0, 0
2, 1
0, 1
0, 0
0, 0
0, 1
0, 0
0, 0
0, 0
1, 0
0, 1
0, 0
0, 0
0, 0
0, 0
0, 0
0, 0
0, 0
0, 0
0, 0
0, 1
0, 0
0, 0
0, 0
0, 0
1, 0
0, 0
0, 0
0, 0
0, 1
0, 0
0, 0
0, 0
0, 0
0, 0
0, 0
0, 0
2, 0
1, 0
0, 0
0, 0
0, 0
0, 0
0, 0
0, 0
0, 0
0, 0
0, 0
0, 0
0, 0
0, 0
0, 0
0, 0
0, 0
0, 0
0, 0
0, 0
0, 0
0, 0
0, 0
0, 0
0, 0
0, 0
0, 0
0, 0
0, 0
0, 0
0, 0
0, 0
0, 0
0, 0
0, 0
0, 0
0, 0
0, 0
0, 0
0, 0
0, 0
0, 0
0, 0
0, 0
0, 0
0, 0
0, 0
0, 0
0, 0
0, 0
0, 0
0, 0
0, 0
0, 0
0, 0
0, 0
0, 0
0, 0
0, 0
0, 0
0, 0
0, 0
0, 0
0, 0
0, 0
0, 0
0, 0
0, 0
0, 0
0, 0
0, 0
0, 0
0, 0
0, 0
0, 0
0, 0
0, 0
0, 0
0, 0
0, 0
0, 0
0, 0
0, 0
0, 0
0, 0
0, 0
0, 0
0, 0
0, 0
0, 0
0, 0
0, 0
0, 0
0, 0
#ENDOFDATA     end of spectrum data

File: ps__0567_0717304816_000rfs_shot_37.msa
#FORMAT      : EMSA/MAS spectral data file
#VERSION     : TC202v2.0 PIXL
#TITLE       : Novarupta (sol567) subset1
#DATE        : 02-11-2024      Date in the format DD-MMM-YYYY, for example 07-JUL-2010
#TIME        :             The time of day at which the spectrum was recorded, in 24-hour format
#OWNER       : PIXL Flight Model       (PIXL will use this to indicate which instrument took the data.)
#NPOINTS     : 4096     Number of data points in the spectrum (This can be zero for configuration only files)
#NCOLUMNS    : 2     Number of data columns in the spectrum (This can be zero for configuration only files)
#XUNITS      : eV
#YUNITS      : COUNTS
#DATATYPE    : YY
#XPERCHAN    : 7.862, 7.881   eV per channel (separate by commas if more than one detector)
#OFFSET      : 18.5, -22.4         eV of first channel  (separate by commas if more than one detector
#SIGNALTYPE  : XRF
#YP_TEMP     : -3.698
#LIVETIME    : 8.84456, 8.81281   seconds (separate by commas if more than one detector)
#REALTIME    : 10, 10.0   seconds (separate by commas if more than one detector)
#SPECTRUM    : start of spectrum data
0, 0
0, 0
0, 0
0, 0
0, 0
0, 0
0, 0
0, 3
2, 6
4, 5
2, 4
5, 13
11, 13
19, 29
33, 52
100, 161
425, 544
104, 133
33, 30
20, 19
69, 86
271, 382
108, 135
60, 107
221, 277
129, 112
69, 75
17, 36
10, 7
11, 18
30, 35
18, 20
31, 31
204, 292
311, 374
52, 50
64, 54
46, 52
13, 12
11, 10
19, 30
46, 67
35, 34
7, 12
11, 16
15, 24
14, 8
9, 12
11, 18
29, 36
22, 21
14, 19
10, 20
31, 44
34, 38
22, 18
41, 69
475, 736
1515, 1911
759, 874
87, 79
20, 16
19, 35
96, 155
261, 275
121, 135
15, 19
9, 10
13, 11
12, 5
6, 5
5, 6
9, 12
5, 7
11, 6
6, 4
9, 9
8, 14
9, 15
9, 12
7, 6
5, 9
7, 4
6, 5
4, 1
3, 4
6, 10
3, 4
4, 4
7, 3
5, 2
4, 5
5, 5
4, 3
4, 3
5, 8
2, 8
5, 6
4, 7
1, 1
1, 4
2, 4
1, 3
3, 3
2, 1
4, 4
2, 1
2, 3
1, 4
2, 1
2, 4
4, 2
2, 6
0, 1
0, 2
0, 3
4, 4
1, 2
1, 1
3, 1
1, 0
0, 1
1, 3
3, 1
1, 1
3, 2
1, 4
1, 3
0, 4
1, 1
0, 2
0, 1
1, 1
0, 0
0, 1
1, 0
1, 0
0, 0
2, 0
0, 0
0, 2
0, 1
1, 1
1, 0
1, 1
1, 2
0, 2
2, 1
0, 1
0, 0
0, 3
0, 1
0, 1
1, 1
0, 0
1, 0
0, 0
0, 0
0, 0
0, 0
0, 0
1, 1
0, 0
0, 1
1, 0
0, 0
0, 0
0, 0
0, 0
0, 1
0, 0
0, 0
2, 0
1, 0
0, 2
0, 0
0, 0
0, 0
0, 0
0, 1
0, 0
0, 0
0, 0
0, 0
0, 0
0, 0
0, 0
0, 0
0, 1
0, 0
0, 0
0, 0
0, 1
0, 0
0, 0
1, 0
0, 0
0, 0
0, 0
1, 1
0, 0
0, 0
0, 0
0, 0
0, 0
0, 0
0, 0
0, 0
0, 0
0, 0
0, 0
0, 0
0, 0
0, 0
0, 0
0, 0
0, 0
0, 0
0, 0
1, 0
0, 0
0, 0
0, 0
0, 0
0, 0
0, 0
0, 0
0, 0
0, 0
0, 0
0, 0
0, 0
0, 0
0, 0
0, 0
0, 0
0, 0
0, 0
0, 0
0, 0
0, 0
0, 0
0, 0
0, 0
0, 0
0, 0
0, 0
0, 0
0, 0
0, 0
0, 0
0, 0
0, 0
0, 0
0, 0
0, 0
0, 0
0, 0
0, 0
0, 0
0, 0
0, 0
0, 0
0, 0
0, 0
0, 0
0, 0
0, 0
0, 0
0, 0
0, 0
0, 0
0, 0
0, 0
0, 0
0, 0
0, 0
0, 0
0, 0
0, 0
0, 0
0, 0
0, 0
0, 0
0, 0
0, 0
0, 0
0, 0
0, 0
0, 0
0, 0
0, 0
0, 0
0, 0
#ENDOFDATA     end of spectrum data

File: ps__0567_0717304816_000rfs_shot_39.msa
#FORMAT      : EMSA/MAS spectral data file
#VERSION     : TC202v2.0 PIXL
#TITLE       : Novarupta (sol567) subset1
#DATE        : 02-11-2024      Date in the format DD-MMM-YYYY, for example 07-JUL-2010
#TIME        :             The time of day at which the spectrum was recorded, in 24-hour format
#OWNER       : PIXL Flight Model       (PIXL will use this to indicate which instrument took the data.)
#NPOINTS     : 4096     Number of data points in the spectrum (This can be zero for configuration only files)
#NCOLUMNS    : 2     Number of data columns in the spectrum (This can be zero for configuration only files)
#XUNITS      : eV
#YUNITS      : COUNTS
#DATATYPE    : YY
#XPERCHAN    : 7.862, 7.881   eV per channel (separate by commas if more than one detector)
#OFFSET      : 18.5, -22.4         eV of first channel  (separate by commas if more than one detector
#SIGNALTYPE  : XRF
#YP_TEMP     : -3.056
#LIVETIME    : 8.84626, 8.81014   seconds (separate by commas if more than one detector)
#REALTIME    : 10, 10.0   seconds (separate by commas if more than one detector)
#SPECTRUM    : start of spectrum data
0, 0
0, 0
0, 0
0, 0
0, 0
0, 0
0, 0
0, 0
1, 9
4, 4
5, 3
6, 9
11, 9
25, 33
37, 41
114, 156
428, 549
123, 113
32, 33
23, 20
69, 81
333, 366
121, 120
70, 96
245, 263
103, 112
68, 68
37, 38
10, 10
9, 16
33, 36
11, 23
28, 25
219, 319
285, 343
60, 59
48, 44
41, 60
14, 13
13, 7
15, 33
50, 66
29, 36
14, 10
20, 13
23, 18
14, 20
13, 11
15, 24
40, 27
18, 30
14, 9
6, 15
34, 43
45, 54
24, 20
46, 69
521, 686
1612, 1871
762, 808
72, 65
18, 24
21, 35
121, 142
221, 281
124, 115
22, 13
13, 9
13, 12
11, 3
10, 7
9, 7
3, 4
3, 7
6, 9
6, 9
7, 6
13, 8
11, 11
8, 6
5, 7
5, 6
1, 5
6, 7
9, 5
2, 7
8, 12
5, 8
2, 7
9, 2
6, 6
5, 5
5, 4
3, 7
2, 6
6, 4
5, 2
3, 5
6, 5
0, 5
3, 6
1, 4
2, 4
7, 3
4, 5
3, 1
1, 3
4, 2
1, 1
6, 5
5, 3
1, 2
5, 3
1, 3
5, 4
0, 7
0, 1
3, 2
0, 1
1, 3
0, 1
1, 0
1, 4
1, 3
1, 0
1, 2
0, 1
1, 1
0, 2
0, 1
2, 1
1, 2
0, 0
2, 1
1, 0
2, 1
0, 0
0, 2
0, 0
1, 0
0, 0
2, 0
1, 1
1, 2
1, 0
0, 0
0, 0
0, 1
1, 1
1, 2
0, 2
0, 0
1, 0
0, 0
1, 1
0, 0
2, 0
0, 0
0, 1
0, 0
0, 0
0, 0
0, 1
1, 0
0, 1
0, 1
0, 0
2, 1
0, 0
0, 0
0, 0
0, 0
0, 0
0, 0
0, 0
0, 2
0, 1
0, 0
0, 0
0, 0
0, 0
0, 1
0, 0
0, 0
0, 1
0, 0
0, 0
0, 0
0, 0
0, 0
0, 0
0, 0
0, 0
0, 0
1, 1
0, 0
0, 0
0, 0
0, 0
0, 0
0, 0
0, 0
1, 0
0, 0
0, 0
0, 0
0, 0
0, 0
0, 0
0, 0
0, 0
0, 0
0, 0
0, 0
0, 0
0, 0
0, 0
0, 0
0, 0
0, 0
0, 0
0, 0
0, 0
0, 0
0, 0
0, 0
0, 0
0, 0
0, 0
0, 0
0, 0
0, 0
0, 0
0, 0
0, 0
0, 0
0, 0
0, 0
0, 0
0, 0
0, 0
0, 0
0, 0
0, 0
0, 0
0, 0
0, 0
0, 0
0, 0
0, 0
0, 0
0, 0
0, 0
0, 0
0, 0
0, 0
0, 0
0, 0
0, 0
0, 0
0, 0
0, 0
0, 0
0, 0
0, 0
0, 0
0, 0
0, 0
0, 0
0, 0
0, 0
0, 0
0, 0
0, 0
0, 0
0, 0
0, 0
0, 0
0, 0
0, 0
0, 0
0, 0
0, 0
0, 0
0, 0
0, 0
0, 0
0, 0
0, 0
0, 0
0, 0
0, 0
0, 0
0, 0
#ENDOFDATA     end of spectrum data

File: ps__0567_0717304816_000rfs_shot_46.msa
#FORMAT      : EMSA/MAS spectral data file
#VERSION     : TC202v2.0 PIXL
#TITLE       : Novarupta (sol567) subset1
#DATE        : 02-11-2024      Date in the format DD-MMM-YYYY, for example 07-JUL-2010
#TIME        :             The time of day at which the spectrum was recorded, in 24-hour format
#OWNER       : PIXL Flight Model       (PIXL will use this to indicate which instrument took the data.)
#NPOINTS     : 4096     Number of data points in the spectrum (This can be zero for configuration only files)
#NCOLUMNS    : 2     Number of data columns in the spectrum (This can be zero for configuration only files)
#XUNITS      : eV
#YUNITS      : COUNTS
#DATATYPE    : YY
#XPERCHAN    : 7.862, 7.881   eV per channel (separate by commas if more than one detector)
#OFFSET      : 18.5, -22.4         eV of first channel  (separate by commas if more than one detector
#SIGNALTYPE  : XRF
#YP_TEMP     : -2.832
#LIVETIME    : 8.82978, 8.82651   seconds (separate by commas if more than one detector)
#REALTIME    : 10, 10.0   seconds (separate by commas if more than one detector)
#SPECTRUM    : start of spectrum data
0, 0
0, 0
0, 0
0, 0
0, 0
0, 0
0, 0
0, 1
3, 5
3, 1
2, 2
9, 12
14, 12
35, 29
50, 52
107, 145
454, 489
130, 115
32, 35
23, 22
61, 67
286, 325
116, 128
89, 77
230, 231
104, 123
76, 70
24, 31
8, 4
12, 8
28, 26
11, 13
29, 28
223, 277
306, 308
68, 38
41, 55
45, 44
16, 11
10, 5
32, 22
69, 62
30, 34
17, 15
15, 19
16, 19
18, 12
8, 4
14, 14
33, 34
28, 21
11, 7
10, 10
40, 39
47, 43
25, 20
50, 50
510, 653
1681, 1749
883, 803
88, 75
12, 22
18, 23
119, 135
246, 256
136, 128
17, 16
11, 11
9, 14
7, 8
6, 2
9, 7
6, 7
5, 11
6, 11
6, 8
7, 7
3, 5
13, 5
11, 10
9, 9
7, 4
3, 5
4, 4
9, 7
6, 5
5, 5
7, 7
3, 4
3, 7
1, 1
8, 3
2, 4
3, 3
2, 5
1, 2
6, 3
1, 3
4, 3
6, 2
0, 4
4, 6
2, 3
1, 3
3, 3
4, 0
2, 1
4, 2
1, 1
2, 3
3, 2
1, 1
0, 4
1, 4
5, 3
5, 2
4, 3
2, 5
1, 2
3, 2
0, 2
1, 5
2, 1
2, 0
0, 0
0, 0
1, 0
1, 0
1, 0
0, 0
1, 0
0, 0
3, 1
0, 1
0, 1
0, 0
2, 0
0, 0
2, 1
1, 0
1, 0
0, 1
1, 1
0, 0
0, 1
0, 0
1, 1
0, 0
1, 0
1, 0
0, 0
1, 0
1, 0
0, 1
0, 0
1, 0
0, 2
1, 1
1, 0
1, 2
0, 0
0, 0
0, 0
0, 2
0, 0
1, 0
1, 0
0, 0
1, 0
0, 1
0, 0
0, 0
0, 0
0, 0
0, 0
1, 0
1, 0
1, 0
0, 0
0, 0
0, 0
0, 0
0, 0
0, 0
0, 0
0, 0
0, 0
0, 0
0, 0
0, 0
0, 0
0, 0
0, 0
0, 0
0, 0
0, 0
0, 0
0, 0
0, 0
0, 0
0, 0
0, 0
0, 0
0, 0
0, 0
0, 0
0, 0
0, 0
0, 0
0, 0
0, 0
0, 0
0, 0
0, 0
0, 0
0, 0
0, 0
0, 0
0, 0
0, 0
1, 0
0, 0
0, 0
0, 0
0, 0
0, 0
0, 0
0, 0
0, 0
0, 0
0, 0
0, 0
0, 0
0, 0
0, 0
0, 0
0, 0
0, 0
0, 0
0, 0
0, 0
0, 0
0, 0
0, 0
0, 0
0, 0
0, 0
0, 0
0, 0
0, 0
0, 0
0, 0
0, 0
0, 0
0, 0
0, 0
0, 0
0, 0
0, 0
0, 0
0, 0
0, 0
0, 0
0, 0
0, 0
0, 0
0, 0
0, 0
0, 0
0, 0
0, 0
0, 0
0, 0
0, 0
0, 0
0, 0
0, 0
0, 0
0, 0
0, 0
0, 0
0, 0
0, 0
0, 0
0, 0
0, 0
0, 0
0, 0
0, 0
0, 0
0, 0
0, 0
0, 0
0, 0
#ENDOFDATA     end of spectrum data

File: ps__0567_0717304816_000rfs_shot_48.msa
#FORMAT      : EMSA/MAS spectral data file
#VERSION     : TC202v2.0 PIXL
#TITLE       : Novarupta (sol567) subset1
#DATE        : 02-11-2024      Date in the format DD-MMM-YYYY, for example 07-JUL-2010
#TIME        :             The time of day at which the spectrum was recorded, in 24-hour format
#OWNER       : PIXL Flight Model       (PIXL will use this to indicate which instrument took the data.)
#NPOINTS     : 4096     Number of data points in the spectrum (This can be zero for configuration only files)
#NCOLUMNS    : 2     Number of data columns in the spectrum (This can be zero for configuration only files)
#XUNITS      : eV
#YUNITS      : COUNTS
#DATATYPE    : YY
#XPERCHAN    : 7.862, 7.881   eV per channel (separate by commas if more than one detector)
#OFFSET      : 18.5, -22.4         eV of first channel  (separate by commas if more than one detector
#SIGNALTYPE  : XRF
#YP_TEMP     : -2.8
#LIVETIME    : 8.83166, 8.64771   seconds (separate by commas if more than one detector)
#REALTIME    : 10, 10.0   seconds (separate by commas if more than one detector)
#SPECTRUM    : start of spectrum data
0, 0
0, 0
0, 0
0, 0
0, 0
0, 0
0, 0
2, 2
4, 1
0, 2
4, 3
8, 11
12, 8
20, 30
35, 42
132, 129
466, 500
125, 115
33, 36
28, 24
71, 71
291, 325
107, 120
93, 85
215, 243
141, 113
80, 58
27, 26
8, 15
8, 17
26, 28
18, 17
17, 25
249, 244
325, 302
44, 42
56, 57
46, 56
13, 9
7, 10
27, 27
69, 70
27, 30
10, 14
11, 11
13, 7
13, 19
15, 10
19, 14
38, 42
16, 26
11, 15
19, 18
31, 36
37, 36
26, 27
46, 44
562, 600
1765, 1759
924, 791
81, 68
18, 18
15, 23
128, 130
256, 282
116, 131
21, 17
8, 9
13, 11
9, 7
6, 5
6, 3
4, 8
16, 2
5, 11
10, 10
5, 6
6, 7
8, 11
8, 10
6, 7
3, 11
5, 5
7, 6
4, 4
3, 3
6, 5
3, 7
4, 10
3, 2
3, 6
7, 6
3, 6
0, 6
4, 6
3, 7
4, 3
5, 5
4, 6
5, 2
2, 2
3, 4
4, 5
3, 1
4, 2
3, 5
0, 5
6, 5
5, 3
1, 6
2, 2
0, 0
1, 8
0, 1
1, 1
2, 2
3, 5
0, 1
1, 1
0, 3
1, 1
2, 1
3, 2
1, 2
1, 0
0, 4
0, 0
0, 2
4, 1
0, 0
0, 0
1, 0
0, 1
0, 0
0, 0
0, 0
1, 0
0, 1
2, 1
0, 0
1, 1
0, 0
1, 3
0, 1
0, 1
0, 0
1, 0
0, 1
1, 3
0, 0
0, 0
1, 0
0, 0
0, 2
1, 1
1, 0
1, 0
0, 0
1, 1
0, 1
0, 1
0, 0
0, 0
1, 1
1, 1
0, 2
0, 0
0, 1
0, 0
0, 0
0, 0
0, 0
0, 0
0, 0
0, 0
0, 0
1, 0
0, 0
0, 0
0, 0
0, 0
0, 1
0, 0
0, 0
0, 0
0, 0
0, 0
0, 0
0, 0
0, 0
0, 0
0, 0
0, 0
0, 0
0, 0
0, 0
0, 0
0, 0
0, 0
0, 0
0, 0
0, 0
0, 0
0, 0
0, 0
0, 0
0, 0
0, 0
0, 0
0, 0
0, 0
0, 0
0, 0
0, 0
0, 0
0, 0
0, 0
0, 0
0, 0
0, 0
0, 0
0, 0
0, 0
0, 0
0, 0
0, 0
0, 0
0, 0
0, 0
0, 0
0, 0
0, 0
0, 0
0, 0
0, 0
0, 0
0, 0
0, 0
0, 0
0, 0
0, 0
0, 0
0, 0
0, 0
0, 0
0, 0
0, 0
0, 0
0, 0
0, 0
0, 0
0, 0
0, 0
0, 0
0, 0
0, 0
0, 0
0, 0
0, 0
0, 0
0, 0
0, 0
0, 0
0, 0
0, 0
0, 0
0, 0
0, 0
0, 0
0, 0
0, 0
0, 0
0, 0
0, 0
0, 0
0, 0
0, 0
0, 0
0, 0
0, 0
0, 0
0, 0
0, 0
0, 0
0, 0
0, 0
0, 0
0, 0
0, 0
0, 0
0, 0
0, 0
0, 0
0, 0
#ENDOFDATA     end of spectrum data

File: ps__0567_0717304816_000rfs_shot_51.msa
#FORMAT      : EMSA/MAS spectral data file
#VERSION     : TC202v2.0 PIXL
#TITLE       : Novarupta (sol567) subset1
#DATE        : 02-11-2024      Date in the format DD-MMM-YYYY, for example 07-JUL-2010
#TIME        :             The time of day at which the spectrum was recorded, in 24-hour format
#OWNER       : PIXL Flight Model       (PIXL will use this to indicate which instrument took the data.)
#NPOINTS     : 4096     Number of data points in the spectrum (This can be zero for configuration only files)
#NCOLUMNS    : 2     Number of data columns in the spectrum (This can be zero for configuration only files)
#XUNITS      : eV
#YUNITS      : COUNTS
#DATATYPE    : YY
#XPERCHAN    : 7.862, 7.881   eV per channel (separate by commas if more than one detector)
#OFFSET      : 18.5, -22.4         eV of first channel  (separate by commas if more than one detector
#SIGNALTYPE  : XRF
#YP_TEMP     : -2.575
#LIVETIME    : 8.84283, 8.82895   seconds (separate by commas if more than one detector)
#REALTIME    : 10, 10.0   seconds (separate by commas if more than one detector)
#SPECTRUM    : start of spectrum data
0, 0
0, 0
0, 0
0, 0
0, 0
0, 0
0, 1
0, 0
1, 0
4, 3
7, 2
9, 6
8, 17
35, 20
35, 47
149, 130
472, 504
113, 102
30, 28
20, 26
64, 76
254, 311
110, 99
70, 89
230, 233
97, 115
73, 58
25, 32
11, 6
8, 8
29, 36
19, 11
21, 32
219, 275
362, 334
52, 57
48, 45
50, 47
7, 7
5, 14
15, 33
57, 50
28, 35
10, 12
12, 16
15, 14
11, 12
10, 13
17, 17
32, 24
18, 14
12, 11
13, 17
22, 38
40, 42
23, 27
42, 47
513, 601
1619, 1668
840, 770
87, 69
10, 18
15, 22
87, 115
251, 279
130, 124
23, 15
13, 8
10, 12
3, 8
9, 11
6, 11
6, 5
6, 14
9, 8
4, 11
5, 9
7, 6
16, 8
5, 13
9, 8
8, 1
5, 6
11, 6
3, 9
5, 9
5, 3
4, 9
9, 4
5, 2
2, 3
9, 1
7, 4
2, 2
4, 5
3, 1
2, 5
4, 3
3, 5
2, 2
2, 3
2, 1
4, 6
5, 4
5, 3
2, 4
3, 2
3, 2
5, 0
2, 3
5, 0
2, 2
2, 0
2, 2
1, 3
1, 4
4, 4
4, 0
1, 3
1, 2
0, 1
3, 1
0, 3
0, 0
2, 2
2, 1
1, 0
1, 1
3, 0
1, 0
0, 0
0, 0
1, 0
0, 0
0, 1
1, 1
0, 3
1, 0
0, 0
0, 1
0, 3
0, 0
0, 2
0, 0
1, 0
1, 2
0, 0
0, 1
1, 1
1, 0
0, 0
0, 0
0, 0
0, 0
0, 0
0, 1
0, 0
0, 0
0, 0
0, 0
0, 0
0, 0
0, 0
1, 0
0, 0
0, 1
2, 0
0, 1
0, 0
0, 0
0, 1
0, 0
0, 1
0, 0
0, 0
0, 0
0, 0
0, 0
1, 0
0, 0
1, 0
0, 1
0, 0
0, 1
0, 0
0, 0
0, 0
0, 0
0, 0
0, 0
0, 0
0, 0
0, 0
0, 0
0, 0
0, 0
0, 0
0, 0
0, 0
0, 0
0, 0
0, 0
0, 0
0, 0
0, 0
0, 0
0, 0
0, 0
0, 0
0, 0
0, 0
0, 1
0, 0
0, 0
0, 0
0, 0
0, 0
0, 0
0, 0
0, 0
0, 0
0, 0
0, 0
0, 0
0, 0
0, 0
0, 0
0, 0
0, 0
0, 0
0, 0
0, 0
0, 0
0, 0
0, 0
0, 0
0, 0
0, 0
0, 0
0, 0
0, 0
0, 0
0, 0
0, 0
0, 0
0, 0
0, 0
0, 0
0, 0
0, 0
0, 0
0, 0
0, 0
0, 0
0, 0
0, 0
0, 0
0, 0
0, 0
0, 0
0, 0
0, 0
0, 0
0, 0
0, 0
0, 0
0, 0
0, 0
0, 0
0, 0
0, 0
0, 0
0, 0
0, 0
0, 0
0, 0
0, 0
0, 0
0, 0
0, 0
0, 0
0, 0
0, 0
0, 0
0, 0
0, 0
0, 0
0, 0
0, 0
0, 0
0, 0
0, 0
0, 0
0, 0
#ENDOFDATA     end of spectrum data