Folder: data-repository/host_upload/02-11-2024/rqc/uplink1 (part 25)

File: ps__0567_0717304816_000rfs_shot_410.msa
#FORMAT      : EMSA/MAS spectral data file
#VERSION     : TC202v2.0 PIXL
#TITLE       : Novarupta (sol567) subset1
#DATE        : 02-11-2024      Date in the format DD-MMM-YYYY, for example 07-JUL-2010
#TIME        :             The time of day at which the spectrum was recorded, in 24-hour format
#OWNER       : PIXL Flight Model       (PIXL will use this to indicate which instrument took the data.)
#NPOINTS     : 4096     Number of data points in the spectrum (This can be zero for configuration only files)
#NCOLUMNS    : 2     Number of data columns in the spectrum (This can be zero for configuration only files)
#XUNITS      : eV
#YUNITS      : COUNTS
#DATATYPE    : YY
#XPERCHAN    : 7.862, 7.881   eV per channel (separate by commas if more than one detector)
#OFFSET      : 18.5, -22.4         eV of first channel  (separate by commas if more than one detector
#SIGNALTYPE  : XRF
#YP_TEMP     : 1.851
#LIVETIME    : 8.841, 8.82054   seconds (separate by commas if more than one detector)
#REALTIME    : 10, 10.0   seconds (separate by commas if more than one detector)
#SPECTRUM    : start of spectrum data
0, 0
0, 0
0, 0
0, 0
0, 0
0, 0
0, 0
1, 0
1, 4
4, 4
5, 1
3, 13
16, 12
17, 30
43, 56
117, 128
495, 549
137, 119
25, 25
25, 25
48, 57
307, 360
125, 117
70, 78
210, 256
124, 119
84, 95
38, 29
11, 17
6, 10
26, 22
7, 23
14, 22
220, 260
343, 386
52, 51
39, 50
44, 47
19, 8
9, 10
20, 29
58, 84
32, 43
15, 17
17, 20
21, 19
18, 16
14, 9
11, 12
25, 39
30, 19
14, 12
14, 17
27, 38
39, 51
22, 27
29, 32
336, 458
1503, 1819
1069, 1051
135, 85
18, 17
24, 28
86, 104
237, 271
156, 173
24, 18
11, 8
12, 16
11, 8
3, 5
7, 5
2, 6
2, 11
9, 5
6, 13
6, 6
8, 7
13, 8
13, 11
11, 5
6, 15
8, 2
4, 6
4, 4
7, 12
7, 7
6, 2
3, 10
8, 10
6, 3
5, 4
6, 10
2, 3
3, 3
2, 3
4, 7
6, 3
3, 0
3, 2
2, 7
3, 2
1, 5
1, 3
3, 6
3, 3
4, 1
3, 5
3, 5
4, 1
1, 1
0, 2
0, 1
3, 2
3, 5
3, 3
1, 4
1, 3
1, 1
1, 1
2, 1
0, 0
4, 2
1, 2
1, 1
1, 1
1, 0
0, 2
1, 0
0, 0
1, 0
1, 1
2, 2
1, 0
1, 0
1, 2
1, 1
2, 0
0, 1
0, 2
0, 1
0, 2
1, 0
2, 0
0, 0
1, 1
0, 0
0, 0
0, 0
1, 0
0, 0
0, 1
2, 0
0, 0
0, 0
1, 0
0, 1
0, 0
0, 0
0, 0
0, 0
0, 1
0, 1
0, 0
1, 0
0, 0
0, 0
0, 0
0, 0
0, 1
0, 0
0, 0
0, 0
0, 0
0, 0
0, 0
0, 0
0, 0
0, 0
0, 0
0, 0
0, 0
0, 0
0, 0
0, 0
0, 0
0, 0
0, 0
0, 0
0, 0
1, 0
0, 0
0, 0
0, 0
0, 0
0, 0
0, 0
0, 0
0, 0
0, 0
0, 0
0, 0
0, 0
0, 0
0, 0
0, 0
0, 0
0, 0
0, 0
0, 0
0, 0
0, 0
0, 0
0, 0
0, 0
0, 0
0, 0
0, 0
0, 0
0, 0
0, 0
0, 0
0, 0
0, 0
0, 0
0, 0
0, 0
0, 0
0, 0
0, 0
0, 0
0, 0
0, 0
0, 0
0, 0
0, 0
0, 0
0, 0
0, 0
0, 0
0, 0
0, 0
0, 0
0, 0
0, 0
0, 0
0, 0
0, 0
0, 0
0, 0
0, 0
0, 0
0, 0
0, 0
0, 0
0, 0
0, 0
0, 0
0, 0
0, 0
0, 0
0, 0
0, 0
0, 0
0, 0
0, 0
0, 0
0, 0
0, 0
0, 0
0, 0
0, 0
0, 0
0, 0
0, 0
0, 0
0, 0
0, 0
0, 0
0, 0
0, 0
0, 0
0, 0
0, 0
0, 0
0, 0
0, 0
0, 0
0, 0
0, 0
0, 0
0, 0
0, 0
0, 0
#ENDOFDATA     end of spectrum data

File: ps__0567_0717304816_000rfs_shot_411.msa
#FORMAT      : EMSA/MAS spectral data file
#VERSION     : TC202v2.0 PIXL
#TITLE       : Novarupta (sol567) subset1
#DATE        : 02-11-2024      Date in the format DD-MMM-YYYY, for example 07-JUL-2010
#TIME        :             The time of day at which the spectrum was recorded, in 24-hour format
#OWNER       : PIXL Flight Model       (PIXL will use this to indicate which instrument took the data.)
#NPOINTS     : 4096     Number of data points in the spectrum (This can be zero for configuration only files)
#NCOLUMNS    : 2     Number of data columns in the spectrum (This can be zero for configuration only files)
#XUNITS      : eV
#YUNITS      : COUNTS
#DATATYPE    : YY
#XPERCHAN    : 7.862, 7.881   eV per channel (separate by commas if more than one detector)
#OFFSET      : 18.5, -22.4         eV of first channel  (separate by commas if more than one detector
#SIGNALTYPE  : XRF
#YP_TEMP     : 1.818
#LIVETIME    : 8.83459, 8.81747   seconds (separate by commas if more than one detector)
#REALTIME    : 10, 10.0   seconds (separate by commas if more than one detector)
#SPECTRUM    : start of spectrum data
0, 0
0, 0
0, 0
0, 0
0, 0
0, 0
0, 0
1, 0
2, 4
4, 6
4, 3
5, 11
19, 11
18, 33
32, 53
106, 132
495, 520
116, 132
32, 37
24, 22
50, 64
305, 343
118, 115
66, 83
233, 255
101, 119
73, 84
32, 26
15, 12
8, 11
32, 28
22, 15
18, 20
213, 245
344, 357
54, 58
36, 41
40, 60
14, 21
7, 11
29, 21
58, 74
21, 34
15, 18
13, 10
20, 20
14, 9
10, 13
13, 10
27, 37
16, 29
9, 6
14, 12
32, 35
50, 45
24, 25
20, 35
371, 494
1571, 1788
1078, 1039
141, 103
20, 20
11, 31
85, 82
249, 296
179, 141
27, 21
10, 15
8, 12
12, 6
7, 6
9, 5
7, 4
6, 7
6, 5
10, 8
5, 4
8, 6
13, 11
13, 7
7, 5
3, 3
7, 2
3, 6
6, 1
6, 2
6, 10
8, 7
4, 3
5, 7
4, 5
3, 4
6, 7
1, 2
0, 8
3, 3
7, 1
6, 2
4, 4
4, 4
4, 7
5, 0
2, 1
3, 4
1, 3
2, 5
3, 3
1, 5
7, 3
4, 4
1, 2
2, 2
3, 2
2, 2
3, 1
2, 2
0, 6
4, 2
0, 1
2, 3
1, 2
2, 4
2, 3
1, 4
1, 3
1, 2
1, 1
1, 1
1, 0
1, 0
3, 1
1, 0
0, 0
2, 2
1, 0
0, 1
0, 0
1, 0
2, 1
0, 0
0, 0
1, 0
1, 0
0, 0
1, 0
0, 2
1, 1
0, 1
3, 0
0, 0
1, 0
0, 0
0, 1
0, 0
2, 0
0, 0
0, 0
0, 0
0, 0
0, 1
0, 0
0, 0
1, 0
0, 1
0, 0
0, 0
0, 0
0, 0
0, 0
0, 0
0, 0
0, 0
0, 0
0, 0
1, 0
0, 0
0, 0
0, 0
0, 0
0, 0
0, 0
0, 0
0, 1
0, 0
1, 0
0, 0
0, 0
0, 0
0, 0
0, 0
0, 0
0, 0
0, 0
0, 0
0, 0
0, 0
1, 0
0, 0
0, 0
0, 0
0, 0
0, 0
0, 0
1, 0
0, 0
0, 0
1, 0
0, 0
0, 0
0, 0
0, 1
0, 0
0, 0
0, 0
0, 0
0, 0
0, 0
0, 0
0, 0
0, 0
0, 0
0, 0
0, 0
0, 0
0, 0
0, 0
0, 0
0, 0
0, 0
0, 0
0, 0
0, 0
0, 0
0, 0
0, 0
0, 0
0, 0
0, 0
0, 0
0, 0
0, 0
0, 0
0, 0
0, 0
0, 0
0, 0
0, 0
0, 0
0, 0
0, 0
0, 0
0, 0
0, 0
0, 0
0, 0
0, 0
0, 0
0, 0
0, 0
0, 0
0, 0
0, 0
0, 0
0, 0
0, 0
0, 0
0, 0
0, 0
0, 0
0, 0
0, 0
0, 0
0, 0
0, 0
0, 0
0, 0
0, 0
0, 0
0, 0
0, 0
0, 0
0, 0
0, 0
0, 0
0, 0
0, 0
0, 0
0, 0
0, 0
0, 0
0, 0
0, 0
0, 0
0, 0
#ENDOFDATA     end of spectrum data

File: ps__0567_0717304816_000rfs_shot_412.msa
#FORMAT      : EMSA/MAS spectral data file
#VERSION     : TC202v2.0 PIXL
#TITLE       : Novarupta (sol567) subset1
#DATE        : 02-11-2024      Date in the format DD-MMM-YYYY, for example 07-JUL-2010
#TIME        :             The time of day at which the spectrum was recorded, in 24-hour format
#OWNER       : PIXL Flight Model       (PIXL will use this to indicate which instrument took the data.)
#NPOINTS     : 4096     Number of data points in the spectrum (This can be zero for configuration only files)
#NCOLUMNS    : 2     Number of data columns in the spectrum (This can be zero for configuration only files)
#XUNITS      : eV
#YUNITS      : COUNTS
#DATATYPE    : YY
#XPERCHAN    : 7.862, 7.881   eV per channel (separate by commas if more than one detector)
#OFFSET      : 18.5, -22.4         eV of first channel  (separate by commas if more than one detector
#SIGNALTYPE  : XRF
#YP_TEMP     : 1.915
#LIVETIME    : 8.82408, 8.81015   seconds (separate by commas if more than one detector)
#REALTIME    : 10, 10.0   seconds (separate by commas if more than one detector)
#SPECTRUM    : start of spectrum data
0, 0
0, 0
0, 0
0, 0
0, 0
0, 0
0, 0
0, 4
3, 3
4, 4
4, 2
7, 14
8, 16
23, 19
40, 65
97, 111
511, 543
123, 134
26, 38
25, 28
60, 69
293, 304
109, 115
71, 67
205, 256
110, 110
61, 75
29, 24
8, 12
5, 10
32, 24
13, 23
16, 29
194, 245
346, 326
66, 59
35, 45
40, 57
8, 18
8, 10
13, 19
56, 75
36, 24
17, 20
8, 9
22, 22
12, 18
4, 9
16, 21
38, 27
30, 27
15, 9
12, 13
31, 28
56, 48
16, 22
26, 45
363, 503
1604, 1795
1062, 1008
126, 106
16, 24
22, 17
81, 82
252, 270
176, 169
32, 15
3, 10
10, 8
10, 8
3, 7
6, 6
2, 3
10, 8
5, 8
9, 6
7, 4
3, 6
4, 7
5, 11
5, 6
5, 5
3, 4
9, 6
7, 4
3, 5
5, 3
5, 6
3, 5
1, 7
3, 2
5, 2
4, 5
5, 6
0, 4
2, 3
5, 2
2, 4
5, 3
7, 1
5, 1
3, 5
4, 5
4, 4
4, 4
2, 2
3, 1
1, 1
6, 3
2, 4
1, 5
2, 4
1, 2
0, 2
5, 2
2, 1
4, 1
2, 1
2, 0
1, 2
0, 1
4, 0
2, 2
3, 2
0, 3
0, 2
0, 3
0, 3
1, 2
1, 2
0, 0
0, 0
3, 0
1, 0
0, 0
2, 1
1, 0
0, 1
0, 2
1, 1
0, 0
2, 1
0, 1
1, 1
0, 0
1, 1
2, 0
0, 0
0, 1
0, 0
1, 1
2, 0
3, 0
0, 0
1, 1
1, 0
0, 0
0, 0
0, 0
0, 0
2, 0
0, 0
0, 0
0, 1
0, 0
0, 0
0, 0
0, 1
1, 0
0, 0
1, 0
2, 0
0, 0
0, 0
0, 0
0, 0
0, 0
0, 1
0, 0
0, 0
0, 0
0, 0
0, 0
1, 1
0, 0
0, 0
0, 1
0, 0
0, 0
0, 0
0, 0
0, 1
0, 0
0, 0
0, 0
0, 0
0, 0
0, 0
0, 0
0, 0
0, 0
0, 0
0, 0
0, 0
0, 0
0, 1
0, 0
0, 0
0, 0
0, 0
0, 0
0, 1
0, 0
0, 0
0, 0
0, 0
0, 0
0, 0
0, 0
0, 0
0, 0
0, 0
0, 0
0, 0
0, 0
0, 0
0, 0
0, 0
0, 0
0, 0
0, 0
0, 0
0, 0
0, 0
0, 0
0, 0
0, 0
0, 0
0, 0
0, 0
0, 0
0, 0
0, 0
0, 0
0, 0
0, 0
0, 0
0, 0
0, 0
0, 0
0, 0
0, 0
0, 0
0, 0
0, 0
0, 0
0, 0
0, 0
0, 0
0, 0
0, 0
0, 0
0, 0
0, 0
0, 0
0, 0
0, 0
0, 0
0, 0
0, 0
0, 0
0, 0
0, 0
0, 0
0, 0
0, 0
0, 0
0, 0
0, 0
0, 0
0, 0
0, 0
0, 0
0, 0
0, 0
0, 0
0, 0
0, 0
0, 0
0, 0
0, 0
0, 0
0, 0
0, 0
#ENDOFDATA     end of spectrum data

File: ps__0567_0717304816_000rfs_shot_415.msa
#FORMAT      : EMSA/MAS spectral data file
#VERSION     : TC202v2.0 PIXL
#TITLE       : Novarupta (sol567) subset1
#DATE        : 02-11-2024      Date in the format DD-MMM-YYYY, for example 07-JUL-2010
#TIME        :             The time of day at which the spectrum was recorded, in 24-hour format
#OWNER       : PIXL Flight Model       (PIXL will use this to indicate which instrument took the data.)
#NPOINTS     : 4096     Number of data points in the spectrum (This can be zero for configuration only files)
#NCOLUMNS    : 2     Number of data columns in the spectrum (This can be zero for configuration only files)
#XUNITS      : eV
#YUNITS      : COUNTS
#DATATYPE    : YY
#XPERCHAN    : 7.862, 7.881   eV per channel (separate by commas if more than one detector)
#OFFSET      : 18.5, -22.4         eV of first channel  (separate by commas if more than one detector
#SIGNALTYPE  : XRF
#YP_TEMP     : 1.658
#LIVETIME    : 8.83589, 8.81602   seconds (separate by commas if more than one detector)
#REALTIME    : 10, 10.0   seconds (separate by commas if more than one detector)
#SPECTRUM    : start of spectrum data
0, 0
0, 0
0, 0
0, 0
0, 0
0, 0
0, 0
0, 0
2, 4
1, 4
2, 3
13, 11
12, 9
15, 18
51, 45
107, 134
536, 556
108, 112
32, 31
34, 22
47, 52
285, 332
122, 111
69, 85
205, 249
114, 117
58, 71
27, 29
9, 10
12, 15
33, 26
22, 20
12, 27
203, 233
322, 351
60, 51
39, 44
53, 45
8, 13
6, 12
16, 24
69, 101
35, 48
9, 15
11, 23
14, 26
12, 14
10, 5
11, 7
24, 24
16, 28
7, 13
8, 13
27, 43
51, 55
25, 15
33, 33
343, 446
1572, 1764
1023, 1000
136, 120
15, 9
20, 19
86, 90
272, 288
149, 146
18, 21
7, 12
6, 12
7, 8
8, 6
4, 3
8, 7
8, 5
4, 8
10, 11
2, 6
4, 8
8, 9
10, 11
8, 15
6, 8
8, 7
6, 5
3, 3
3, 5
5, 3
5, 1
4, 8
2, 8
2, 5
4, 5
4, 4
3, 8
3, 5
4, 5
2, 3
1, 0
2, 7
4, 5
0, 3
3, 3
2, 8
2, 5
2, 1
0, 5
1, 0
2, 1
4, 2
2, 6
0, 1
1, 1
0, 2
3, 2
4, 5
1, 0
3, 1
0, 2
0, 4
1, 4
3, 3
2, 0
1, 0
0, 1
1, 0
4, 0
1, 5
2, 3
1, 0
1, 0
1, 0
1, 0
0, 1
1, 0
2, 1
0, 1
1, 1
2, 1
1, 1
0, 0
0, 1
1, 0
1, 0
1, 0
1, 0
0, 0
1, 2
0, 0
0, 0
1, 0
2, 0
0, 0
0, 0
0, 0
0, 0
1, 0
0, 0
1, 2
0, 0
0, 0
0, 0
0, 0
0, 0
0, 1
1, 0
0, 1
0, 0
0, 1
0, 0
0, 0
0, 0
1, 3
0, 0
0, 0
0, 0
0, 0
0, 0
0, 0
0, 0
1, 0
0, 1
0, 0
0, 0
0, 0
1, 0
1, 0
0, 0
0, 0
0, 0
0, 0
0, 0
0, 0
0, 0
0, 0
0, 0
0, 0
0, 0
0, 0
0, 0
0, 0
0, 0
0, 0
0, 0
0, 0
0, 0
0, 0
0, 0
0, 0
0, 0
0, 0
0, 0
0, 0
0, 0
0, 0
0, 0
0, 0
0, 0
0, 0
0, 0
0, 0
0, 0
0, 0
0, 0
0, 0
0, 0
0, 0
0, 0
0, 0
0, 0
0, 0
0, 0
0, 0
0, 0
0, 0
0, 0
0, 0
0, 0
0, 0
0, 0
0, 0
0, 0
0, 0
0, 0
0, 0
0, 0
0, 0
0, 0
0, 0
0, 0
0, 0
0, 0
0, 0
0, 0
0, 0
0, 0
0, 0
0, 0
0, 0
0, 0
0, 0
0, 0
0, 0
0, 0
0, 0
0, 0
0, 0
0, 0
0, 0
0, 0
0, 0
0, 0
0, 0
0, 0
0, 0
0, 0
0, 0
0, 0
0, 0
0, 0
0, 0
0, 0
0, 0
0, 0
0, 0
0, 0
0, 0
0, 0
0, 0
0, 0
0, 0
0, 0
0, 0
0, 0
0, 0
#ENDOFDATA     end of spectrum data

File: ps__0567_0717304816_000rfs_shot_417.msa
#FORMAT      : EMSA/MAS spectral data file
#VERSION     : TC202v2.0 PIXL
#TITLE       : Novarupta (sol567) subset1
#DATE        : 02-11-2024      Date in the format DD-MMM-YYYY, for example 07-JUL-2010
#TIME        :             The time of day at which the spectrum was recorded, in 24-hour format
#OWNER       : PIXL Flight Model       (PIXL will use this to indicate which instrument took the data.)
#NPOINTS     : 4096     Number of data points in the spectrum (This can be zero for configuration only files)
#NCOLUMNS    : 2     Number of data columns in the spectrum (This can be zero for configuration only files)
#XUNITS      : eV
#YUNITS      : COUNTS
#DATATYPE    : YY
#XPERCHAN    : 7.862, 7.881   eV per channel (separate by commas if more than one detector)
#OFFSET      : 18.5, -22.4         eV of first channel  (separate by commas if more than one detector
#SIGNALTYPE  : XRF
#YP_TEMP     : 1.851
#LIVETIME    : 8.83464, 8.80862   seconds (separate by commas if more than one detector)
#REALTIME    : 10, 10.0   seconds (separate by commas if more than one detector)
#SPECTRUM    : start of spectrum data
0, 0
0, 0
0, 0
0, 0
0, 0
0, 0
0, 0
1, 1
2, 4
5, 2
5, 3
8, 10
14, 5
21, 28
39, 50
96, 117
441, 613
108, 134
30, 32
22, 23
55, 75
300, 295
126, 115
65, 92
234, 256
122, 115
71, 66
28, 21
10, 11
9, 12
26, 33
20, 15
19, 18
212, 258
313, 366
53, 52
36, 44
47, 52
15, 14
10, 7
16, 23
58, 72
36, 40
11, 14
7, 12
15, 21
7, 15
9, 9
20, 13
36, 51
21, 20
11, 15
10, 9
31, 41
50, 44
17, 16
21, 31
334, 450
1495, 1909
1054, 1047
113, 120
18, 23
19, 26
83, 90
217, 279
127, 144
28, 16
15, 10
15, 12
6, 7
5, 5
9, 5
6, 4
5, 6
9, 11
3, 7
14, 12
10, 8
7, 10
11, 15
11, 8
3, 6
3, 7
8, 5
3, 5
3, 9
4, 3
7, 3
6, 6
5, 4
3, 7
2, 1
1, 7
3, 4
3, 3
5, 2
3, 4
4, 4
3, 6
2, 4
4, 3
1, 2
2, 3
3, 5
3, 3
3, 5
2, 2
1, 3
2, 4
3, 2
1, 2
1, 3
2, 3
1, 2
0, 5
4, 0
3, 6
2, 1
0, 3
4, 1
2, 1
2, 3
1, 1
3, 3
1, 1
0, 2
1, 2
1, 0
1, 0
0, 1
2, 0
1, 1
0, 0
2, 1
0, 3
2, 0
1, 0
0, 1
0, 0
0, 0
0, 0
1, 0
0, 0
0, 2
0, 1
0, 0
1, 0
1, 0
0, 1
1, 0
0, 0
1, 1
1, 1
0, 2
0, 0
0, 0
0, 0
1, 0
0, 0
0, 0
0, 0
0, 0
1, 1
0, 2
0, 1
0, 0
0, 0
0, 0
0, 0
1, 0
1, 0
0, 0
0, 0
0, 0
0, 0
0, 1
0, 0
0, 0
0, 0
1, 0
0, 0
0, 0
0, 0
1, 0
1, 0
0, 0
0, 0
0, 0
0, 0
0, 0
0, 1
0, 0
0, 0
0, 0
0, 0
0, 0
0, 0
0, 0
0, 0
0, 0
0, 0
0, 0
0, 0
0, 0
0, 0
0, 0
1, 0
0, 0
0, 0
0, 0
0, 0
0, 0
0, 0
0, 1
0, 0
0, 0
0, 0
0, 0
0, 0
0, 0
0, 0
0, 0
0, 0
0, 0
0, 0
0, 0
0, 0
0, 0
0, 0
0, 0
0, 0
0, 0
0, 0
0, 0
0, 0
0, 0
0, 0
0, 0
0, 0
0, 0
0, 0
0, 0
0, 0
0, 0
0, 0
0, 0
0, 0
0, 0
0, 0
0, 0
0, 0
0, 0
0, 0
0, 0
0, 0
0, 0
0, 0
0, 0
0, 0
0, 0
0, 0
0, 0
0, 0
0, 0
0, 0
0, 0
0, 0
0, 0
0, 0
0, 0
0, 0
0, 0
0, 0
0, 0
0, 0
0, 0
0, 0
0, 0
0, 0
0, 0
0, 0
0, 0
0, 0
0, 0
0, 0
0, 0
0, 0
0, 0
0, 0
0, 0
0, 0
0, 0
0, 0
0, 0
#ENDOFDATA     end of spectrum data

File: ps__0567_0717304816_000rfs_shot_420.msa
#FORMAT      : EMSA/MAS spectral data file
#VERSION     : TC202v2.0 PIXL
#TITLE       : Novarupta (sol567) subset1
#DATE        : 02-11-2024      Date in the format DD-MMM-YYYY, for example 07-JUL-2010
#TIME        :             The time of day at which the spectrum was recorded, in 24-hour format
#OWNER       : PIXL Flight Model       (PIXL will use this to indicate which instrument took the data.)
#NPOINTS     : 4096     Number of data points in the spectrum (This can be zero for configuration only files)
#NCOLUMNS    : 2     Number of data columns in the spectrum (This can be zero for configuration only files)
#XUNITS      : eV
#YUNITS      : COUNTS
#DATATYPE    : YY
#XPERCHAN    : 7.862, 7.881   eV per channel (separate by commas if more than one detector)
#OFFSET      : 18.5, -22.4         eV of first channel  (separate by commas if more than one detector
#SIGNALTYPE  : XRF
#YP_TEMP     : 1.947
#LIVETIME    : 8.82926, 8.80636   seconds (separate by commas if more than one detector)
#REALTIME    : 10, 10.0   seconds (separate by commas if more than one detector)
#SPECTRUM    : start of spectrum data
0, 0
0, 0
0, 0
0, 0
0, 0
0, 0
0, 0
1, 1
2, 4
3, 1
1, 1
6, 14
10, 16
21, 16
41, 44
106, 126
488, 538
119, 114
28, 39
17, 20
49, 61
317, 315
115, 117
54, 86
202, 211
105, 122
78, 93
26, 16
10, 16
8, 11
25, 33
18, 20
13, 19
201, 250
331, 329
56, 50
37, 45
46, 46
17, 14
6, 11
26, 29
56, 58
43, 31
18, 9
14, 20
14, 19
14, 21
8, 9
18, 15
25, 23
14, 16
12, 14
9, 11
29, 38
55, 51
22, 21
33, 39
370, 450
1554, 1888
1071, 1026
129, 108
14, 15
30, 28
90, 92
256, 279
143, 151
25, 18
10, 6
11, 11
9, 11
4, 5
4, 5
3, 5
4, 4
6, 5
7, 6
6, 7
5, 8
8, 12
12, 14
2, 10
1, 4
8, 3
3, 7
3, 3
4, 5
4, 3
8, 8
3, 0
6, 6
4, 2
2, 3
3, 4
8, 5
1, 1
7, 4
6, 2
4, 2
5, 7
7, 3
3, 4
1, 0
3, 4
4, 0
4, 5
3, 4
2, 3
2, 2
3, 2
4, 2
2, 1
2, 0
3, 4
0, 2
0, 1
3, 0
2, 4
3, 2
0, 5
5, 1
0, 0
1, 2
1, 1
0, 1
2, 0
1, 2
1, 1
1, 0
2, 0
0, 2
0, 0
1, 1
1, 1
0, 0
4, 0
0, 1
1, 1
0, 0
0, 0
0, 0
1, 2
4, 0
0, 1
0, 2
1, 0
2, 0
1, 1
1, 0
0, 1
1, 0
2, 1
1, 1
1, 0
1, 0
0, 0
0, 0
2, 0
0, 0
0, 1
0, 1
0, 0
0, 1
0, 0
0, 0
0, 0
0, 1
0, 0
1, 1
0, 1
0, 0
0, 0
0, 0
1, 0
1, 1
0, 1
0, 1
0, 0
0, 0
0, 0
0, 0
0, 0
0, 0
1, 0
0, 0
0, 0
0, 0
0, 0
0, 0
0, 0
0, 0
0, 0
0, 0
0, 0
0, 0
0, 0
0, 0
0, 0
0, 0
0, 0
0, 0
0, 0
0, 0
0, 0
0, 0
0, 0
0, 0
0, 0
0, 0
0, 1
0, 0
0, 0
0, 0
0, 0
0, 0
0, 0
0, 0
0, 0
0, 0
0, 0
0, 0
0, 1
0, 0
0, 0
0, 0
0, 0
0, 0
0, 0
0, 0
0, 0
0, 0
0, 0
0, 0
0, 0
0, 0
0, 0
0, 0
0, 0
0, 0
0, 0
0, 0
0, 0
0, 0
0, 0
0, 0
0, 0
0, 0
0, 0
0, 0
0, 0
0, 0
0, 0
0, 0
0, 0
0, 0
0, 0
0, 0
0, 0
0, 0
0, 0
0, 0
0, 0
0, 0
0, 0
0, 0
0, 0
0, 0
0, 0
0, 0
0, 0
0, 0
0, 0
0, 0
0, 0
0, 0
0, 0
0, 0
0, 0
0, 0
0, 0
0, 0
0, 0
0, 0
0, 0
0, 0
0, 0
0, 0
0, 0
0, 0
0, 0
0, 0
0, 0
0, 0
0, 0
0, 0
#ENDOFDATA     end of spectrum data

File: ps__0567_0717304816_000rfs_shot_424.msa
#FORMAT      : EMSA/MAS spectral data file
#VERSION     : TC202v2.0 PIXL
#TITLE       : Novarupta (sol567) subset1
#DATE        : 02-11-2024      Date in the format DD-MMM-YYYY, for example 07-JUL-2010
#TIME        :             The time of day at which the spectrum was recorded, in 24-hour format
#OWNER       : PIXL Flight Model       (PIXL will use this to indicate which instrument took the data.)
#NPOINTS     : 4096     Number of data points in the spectrum (This can be zero for configuration only files)
#NCOLUMNS    : 2     Number of data columns in the spectrum (This can be zero for configuration only files)
#XUNITS      : eV
#YUNITS      : COUNTS
#DATATYPE    : YY
#XPERCHAN    : 7.862, 7.881   eV per channel (separate by commas if more than one detector)
#OFFSET      : 18.5, -22.4         eV of first channel  (separate by commas if more than one detector
#SIGNALTYPE  : XRF
#YP_TEMP     : 1.69
#LIVETIME    : 8.85309, 8.8225   seconds (separate by commas if more than one detector)
#REALTIME    : 10, 10.0   seconds (separate by commas if more than one detector)
#SPECTRUM    : start of spectrum data
0, 0
0, 0
0, 0
0, 0
0, 0
0, 0
1, 0
0, 0
2, 1
5, 3
8, 3
7, 6
11, 14
23, 24
46, 44
110, 112
429, 533
128, 113
28, 36
26, 25
40, 65
293, 335
105, 130
64, 87
209, 247
108, 125
62, 70
27, 28
9, 8
14, 13
18, 24
16, 16
17, 22
192, 250
289, 370
61, 43
42, 47
59, 60
11, 17
5, 17
12, 27
51, 60
32, 39
15, 16
13, 17
19, 21
9, 7
14, 11
13, 16
24, 31
20, 22
15, 10
10, 16
29, 33
60, 54
19, 25
19, 40
298, 482
1525, 1870
1042, 1049
106, 119
14, 8
10, 29
81, 112
243, 309
143, 153
31, 18
9, 7
21, 12
7, 8
5, 7
2, 5
3, 9
1, 6
4, 5
5, 15
5, 7
6, 9
10, 13
16, 14
1, 6
7, 7
10, 1
5, 5
2, 8
5, 3
6, 4
4, 4
5, 4
4, 4
4, 7
5, 4
1, 3
4, 3
6, 6
3, 4
1, 2
1, 3
2, 3
5, 3
7, 6
1, 4
3, 1
1, 3
5, 2
2, 3
2, 3
0, 3
0, 3
4, 4
2, 4
5, 2
2, 2
3, 2
1, 2
1, 4
2, 5
1, 1
0, 1
1, 1
1, 0
2, 0
1, 1
0, 1
1, 2
1, 2
1, 0
1, 0
0, 1
0, 0
0, 1
0, 0
1, 2
3, 2
2, 0
0, 0
2, 0
2, 1
0, 2
2, 0
0, 0
0, 0
1, 1
1, 0
0, 0
1, 0
0, 0
0, 1
0, 0
0, 0
0, 0
0, 0
0, 1
1, 1
0, 0
1, 0
0, 1
1, 0
0, 0
0, 0
0, 0
1, 0
0, 0
1, 1
0, 0
0, 0
0, 0
0, 0
0, 0
0, 0
0, 0
0, 0
0, 2
0, 0
1, 0
0, 0
0, 0
0, 0
0, 0
0, 0
0, 0
0, 0
0, 0
0, 0
0, 0
0, 0
0, 0
0, 0
0, 0
0, 1
0, 0
0, 0
0, 0
0, 0
0, 1
0, 0
0, 0
0, 0
0, 0
0, 0
0, 0
0, 0
0, 0
0, 0
0, 0
0, 0
0, 0
0, 0
0, 0
0, 1
0, 0
0, 0
0, 0
0, 0
0, 0
0, 0
0, 0
0, 0
0, 1
0, 0
0, 0
0, 0
0, 0
0, 0
0, 0
0, 0
0, 0
0, 0
0, 0
0, 0
0, 0
0, 0
0, 0
0, 0
0, 0
0, 0
0, 0
0, 0
0, 0
0, 0
0, 0
0, 0
0, 0
0, 0
0, 0
0, 0
0, 0
0, 0
0, 0
0, 0
0, 0
0, 0
0, 0
0, 0
0, 0
0, 0
0, 0
0, 0
0, 0
0, 0
0, 0
0, 0
0, 0
0, 0
0, 0
0, 0
0, 0
0, 0
0, 0
0, 0
0, 0
0, 0
0, 0
0, 0
0, 0
0, 0
0, 0
0, 0
0, 0
0, 0
0, 0
0, 0
0, 0
0, 0
0, 0
0, 0
0, 0
0, 0
0, 0
0, 0
0, 0
0, 0
0, 0
0, 0
#ENDOFDATA     end of spectrum data

File: ps__0567_0717304816_000rfs_shot_426.msa
#FORMAT      : EMSA/MAS spectral data file
#VERSION     : TC202v2.0 PIXL
#TITLE       : Novarupta (sol567) subset1
#DATE        : 02-11-2024      Date in the format DD-MMM-YYYY, for example 07-JUL-2010
#TIME        :             The time of day at which the spectrum was recorded, in 24-hour format
#OWNER       : PIXL Flight Model       (PIXL will use this to indicate which instrument took the data.)
#NPOINTS     : 4096     Number of data points in the spectrum (This can be zero for configuration only files)
#NCOLUMNS    : 2     Number of data columns in the spectrum (This can be zero for configuration only files)
#XUNITS      : eV
#YUNITS      : COUNTS
#DATATYPE    : YY
#XPERCHAN    : 7.862, 7.881   eV per channel (separate by commas if more than one detector)
#OFFSET      : 18.5, -22.4         eV of first channel  (separate by commas if more than one detector
#SIGNALTYPE  : XRF
#YP_TEMP     : 1.851
#LIVETIME    : 8.84827, 8.81199   seconds (separate by commas if more than one detector)
#REALTIME    : 10, 10.0   seconds (separate by commas if more than one detector)
#SPECTRUM    : start of spectrum data
0, 0
0, 0
0, 0
0, 0
0, 0
0, 0
0, 0
0, 0
4, 7
2, 4
1, 3
8, 9
10, 20
18, 32
45, 48
108, 116
485, 570
108, 110
15, 33
19, 21
50, 76
291, 314
110, 146
73, 78
199, 241
110, 116
74, 83
31, 40
5, 13
9, 10
21, 35
16, 19
15, 21
183, 263
293, 367
41, 44
37, 52
40, 66
15, 10
4, 8
15, 27
60, 53
26, 38
10, 22
20, 17
23, 21
7, 19
9, 9
10, 12
30, 34
21, 24
12, 22
10, 11
28, 35
51, 41
23, 27
28, 36
305, 461
1466, 1829
1032, 1048
117, 100
10, 24
13, 19
77, 94
226, 287
169, 162
33, 26
6, 8
14, 17
6, 15
5, 5
5, 11
6, 5
1, 8
10, 6
7, 6
4, 3
7, 6
6, 10
11, 14
4, 7
3, 5
7, 6
9, 5
6, 3
11, 6
4, 11
4, 5
4, 4
2, 5
0, 5
6, 3
6, 7
4, 5
4, 8
3, 3
0, 5
2, 5
7, 2
3, 2
0, 6
1, 1
1, 2
0, 4
5, 1
3, 4
2, 2
5, 2
5, 2
0, 3
2, 4
1, 2
2, 2
2, 4
5, 0
3, 1
2, 8
2, 1
0, 5
1, 3
2, 3
2, 4
2, 0
1, 2
2, 1
1, 0
0, 1
1, 0
1, 1
2, 0
1, 2
0, 0
2, 2
1, 0
1, 1
0, 2
0, 0
1, 1
0, 1
1, 0
1, 1
0, 2
0, 1
0, 0
2, 0
0, 1
1, 0
1, 0
0, 0
1, 0
0, 3
1, 0
1, 1
0, 1
0, 0
0, 0
0, 0
0, 0
0, 0
1, 0
0, 1
0, 1
0, 0
0, 0
1, 0
0, 0
1, 0
0, 0
0, 2
0, 0
0, 0
1, 1
0, 0
0, 0
0, 0
0, 0
0, 1
0, 0
0, 1
0, 0
0, 0
0, 0
0, 0
0, 0
0, 0
0, 0
0, 0
0, 0
0, 0
0, 0
0, 0
0, 0
0, 0
0, 0
1, 0
0, 0
0, 0
0, 0
0, 0
0, 0
0, 0
0, 0
0, 0
0, 0
0, 0
0, 0
0, 0
0, 0
0, 0
0, 0
0, 0
0, 0
0, 0
0, 0
0, 0
0, 0
0, 0
0, 0
0, 0
0, 0
0, 0
0, 0
0, 0
0, 0
0, 0
0, 0
0, 0
0, 0
0, 0
0, 0
0, 0
0, 0
0, 0
0, 0
0, 0
0, 0
0, 0
0, 0
0, 0
0, 0
0, 0
0, 0
0, 0
0, 0
0, 0
0, 0
0, 0
0, 0
0, 0
0, 0
0, 0
0, 0
0, 0
0, 0
0, 0
0, 0
0, 0
0, 0
0, 0
0, 0
0, 0
0, 0
0, 0
0, 0
0, 0
0, 0
0, 0
0, 0
0, 0
0, 0
0, 0
0, 0
0, 0
0, 0
0, 0
0, 0
0, 0
0, 0
0, 0
0, 0
0, 0
0, 0
0, 0
0, 0
0, 0
0, 0
0, 0
0, 0
0, 0
0, 0
0, 0
0, 0
0, 0
0, 0
#ENDOFDATA     end of spectrum data

File: ps__0567_0717304816_000rfs_shot_428.msa
#FORMAT      : EMSA/MAS spectral data file
#VERSION     : TC202v2.0 PIXL
#TITLE       : Novarupta (sol567) subset1
#DATE        : 02-11-2024      Date in the format DD-MMM-YYYY, for example 07-JUL-2010
#TIME        :             The time of day at which the spectrum was recorded, in 24-hour format
#OWNER       : PIXL Flight Model       (PIXL will use this to indicate which instrument took the data.)
#NPOINTS     : 4096     Number of data points in the spectrum (This can be zero for configuration only files)
#NCOLUMNS    : 2     Number of data columns in the spectrum (This can be zero for configuration only files)
#XUNITS      : eV
#YUNITS      : COUNTS
#DATATYPE    : YY
#XPERCHAN    : 7.862, 7.881   eV per channel (separate by commas if more than one detector)
#OFFSET      : 18.5, -22.4         eV of first channel  (separate by commas if more than one detector
#SIGNALTYPE  : XRF
#YP_TEMP     : 1.69
#LIVETIME    : 8.8353, 8.8154   seconds (separate by commas if more than one detector)
#REALTIME    : 10, 10.0   seconds (separate by commas if more than one detector)
#SPECTRUM    : start of spectrum data
0, 0
0, 0
0, 0
0, 0
0, 0
0, 0
0, 0
1, 1
0, 4
2, 5
2, 2
6, 10
11, 14
16, 34
54, 50
100, 114
501, 511
99, 137
25, 34
30, 20
53, 54
278, 284
114, 112
72, 66
198, 215
107, 105
75, 60
33, 24
7, 7
6, 6
29, 25
20, 14
18, 22
172, 241
305, 308
43, 47
34, 37
48, 53
16, 12
6, 10
17, 31
55, 56
33, 41
10, 18
9, 14
11, 21
9, 13
10, 8
16, 13
19, 27
20, 40
11, 14
18, 16
36, 41
39, 52
28, 20
31, 45
312, 426
1546, 1844
1009, 1076
108, 120
10, 13
15, 18
87, 81
276, 286
151, 164
19, 20
4, 12
14, 13
12, 9
6, 7
3, 3
5, 6
8, 8
3, 3
7, 9
9, 7
6, 8
8, 18
14, 9
5, 6
7, 5
4, 9
5, 5
6, 3
5, 7
7, 6
2, 9
3, 2
4, 3
4, 1
6, 5
3, 3
2, 6
2, 5
10, 4
0, 3
5, 7
3, 5
5, 2
3, 1
6, 1
3, 4
2, 3
5, 3
2, 3
3, 4
0, 3
2, 4
0, 0
5, 1
5, 4
0, 1
1, 1
3, 4
3, 3
2, 2
3, 2
3, 4
0, 0
5, 1
0, 3
1, 2
0, 2
0, 1
0, 3
2, 2
3, 1
3, 2
0, 3
2, 1
1, 2
1, 1
1, 0
0, 1
1, 0
0, 1
2, 1
1, 1
2, 0
0, 0
1, 0
0, 3
1, 0
1, 0
4, 0
0, 0
1, 0
0, 0
1, 0
0, 0
0, 0
0, 0
0, 0
0, 0
0, 0
1, 0
2, 1
1, 1
0, 0
0, 0
0, 0
0, 0
1, 0
0, 1
0, 0
1, 0
0, 0
0, 0
1, 1
0, 1
1, 0
1, 0
0, 1
0, 0
0, 0
1, 1
0, 0
0, 0
0, 0
0, 0
1, 0
0, 0
0, 1
1, 0
0, 0
0, 0
0, 0
0, 1
0, 0
0, 0
1, 1
0, 0
0, 1
0, 0
0, 0
0, 0
0, 0
0, 0
0, 0
0, 0
0, 0
0, 0
0, 0
0, 0
0, 0
0, 0
0, 0
0, 0
0, 0
0, 0
0, 0
0, 0
0, 0
0, 0
0, 0
0, 0
0, 0
0, 0
0, 0
0, 0
0, 0
0, 0
0, 0
0, 0
0, 0
0, 0
0, 0
0, 0
0, 0
0, 0
0, 0
0, 0
0, 0
0, 0
0, 0
0, 0
0, 0
0, 0
0, 0
0, 0
0, 0
0, 0
0, 0
0, 0
0, 0
0, 0
0, 0
0, 0
0, 0
0, 0
0, 0
0, 0
0, 0
0, 0
0, 0
0, 0
0, 0
0, 0
0, 0
0, 0
0, 0
0, 0
0, 0
0, 0
0, 0
0, 0
0, 0
0, 0
0, 0
0, 0
0, 0
0, 0
0, 0
0, 0
0, 0
0, 0
0, 0
0, 0
0, 0
0, 0
0, 0
0, 0
0, 0
0, 0
0, 0
0, 0
0, 0
0, 0
0, 0
0, 0
0, 0
0, 0
0, 0
#ENDOFDATA     end of spectrum data