Folder: data-repository/host_upload/02-11-2024/rqc/uplink1 (part 28)

File: ps__0567_0717304816_000rfs_shot_475.msa
#FORMAT      : EMSA/MAS spectral data file
#VERSION     : TC202v2.0 PIXL
#TITLE       : Novarupta (sol567) subset1
#DATE        : 02-11-2024      Date in the format DD-MMM-YYYY, for example 07-JUL-2010
#TIME        :             The time of day at which the spectrum was recorded, in 24-hour format
#OWNER       : PIXL Flight Model       (PIXL will use this to indicate which instrument took the data.)
#NPOINTS     : 4096     Number of data points in the spectrum (This can be zero for configuration only files)
#NCOLUMNS    : 2     Number of data columns in the spectrum (This can be zero for configuration only files)
#XUNITS      : eV
#YUNITS      : COUNTS
#DATATYPE    : YY
#XPERCHAN    : 7.862, 7.881   eV per channel (separate by commas if more than one detector)
#OFFSET      : 18.5, -22.4         eV of first channel  (separate by commas if more than one detector
#SIGNALTYPE  : XRF
#YP_TEMP     : 2.267
#LIVETIME    : 8.82248, 8.82361   seconds (separate by commas if more than one detector)
#REALTIME    : 10, 10.0   seconds (separate by commas if more than one detector)
#SPECTRUM    : start of spectrum data
0, 0
0, 0
0, 0
0, 0
0, 0
0, 0
0, 0
1, 2
4, 3
1, 3
1, 5
13, 12
12, 5
24, 17
40, 35
109, 112
529, 507
118, 114
36, 31
24, 29
64, 55
313, 342
129, 126
60, 70
227, 236
112, 121
79, 75
23, 26
7, 14
9, 10
22, 33
15, 15
16, 16
215, 225
358, 313
53, 61
36, 44
64, 41
13, 9
13, 5
21, 24
57, 52
40, 39
18, 16
12, 18
15, 17
21, 13
12, 13
10, 18
25, 34
22, 26
22, 11
13, 18
35, 39
43, 45
19, 14
38, 41
409, 461
1662, 1714
1164, 1020
141, 102
17, 24
13, 19
81, 82
242, 271
156, 151
29, 18
8, 10
14, 16
12, 11
2, 7
6, 4
9, 8
2, 5
8, 7
5, 9
9, 10
3, 6
9, 12
12, 8
9, 11
3, 5
6, 5
3, 6
2, 5
2, 5
4, 4
8, 4
5, 4
1, 4
4, 3
5, 4
4, 2
5, 4
3, 4
5, 6
5, 1
2, 2
3, 7
2, 5
4, 2
3, 4
2, 2
3, 3
5, 0
5, 2
0, 3
4, 4
4, 4
2, 3
3, 6
2, 2
2, 3
6, 4
1, 2
2, 5
1, 2
5, 3
0, 1
1, 2
1, 1
2, 2
0, 1
3, 3
2, 1
0, 1
1, 1
1, 1
2, 5
1, 1
2, 1
2, 0
0, 4
1, 0
0, 0
0, 1
1, 3
0, 1
0, 0
0, 0
3, 0
0, 0
1, 0
1, 0
0, 0
0, 1
1, 2
1, 0
1, 0
3, 1
1, 0
0, 1
0, 2
1, 1
1, 0
0, 0
0, 0
0, 0
0, 0
1, 0
1, 0
0, 0
0, 0
0, 0
0, 0
0, 0
0, 0
0, 0
0, 1
0, 1
1, 0
0, 1
0, 0
1, 0
0, 0
0, 0
0, 0
0, 0
0, 0
1, 0
0, 0
0, 0
0, 0
1, 0
1, 1
0, 0
0, 0
0, 0
0, 0
0, 0
0, 0
1, 0
0, 0
0, 0
0, 0
0, 0
0, 0
0, 0
0, 0
0, 0
0, 0
0, 0
0, 0
0, 0
0, 0
1, 0
0, 0
0, 0
0, 0
0, 0
0, 0
0, 0
0, 0
0, 0
0, 0
0, 0
0, 0
0, 0
0, 0
0, 0
0, 0
0, 0
0, 0
0, 0
0, 0
0, 0
0, 0
0, 0
0, 0
0, 0
0, 0
0, 0
0, 0
0, 0
0, 0
0, 0
0, 0
0, 0
0, 0
0, 0
0, 0
0, 0
0, 0
0, 0
0, 0
0, 0
0, 0
0, 0
0, 0
0, 0
0, 0
0, 0
0, 0
0, 0
0, 0
0, 0
0, 0
0, 0
0, 0
0, 0
0, 0
0, 0
0, 0
0, 0
0, 0
0, 0
0, 0
0, 0
0, 0
0, 0
0, 0
0, 0
0, 0
0, 0
0, 0
0, 0
0, 0
0, 0
0, 0
0, 0
0, 0
0, 0
0, 0
0, 0
0, 0
0, 0
0, 0
0, 0
0, 0
0, 0
0, 0
0, 0
0, 0
0, 0
#ENDOFDATA     end of spectrum data

File: ps__0567_0717304816_000rfs_shot_476.msa
#FORMAT      : EMSA/MAS spectral data file
#VERSION     : TC202v2.0 PIXL
#TITLE       : Novarupta (sol567) subset1
#DATE        : 02-11-2024      Date in the format DD-MMM-YYYY, for example 07-JUL-2010
#TIME        :             The time of day at which the spectrum was recorded, in 24-hour format
#OWNER       : PIXL Flight Model       (PIXL will use this to indicate which instrument took the data.)
#NPOINTS     : 4096     Number of data points in the spectrum (This can be zero for configuration only files)
#NCOLUMNS    : 2     Number of data columns in the spectrum (This can be zero for configuration only files)
#XUNITS      : eV
#YUNITS      : COUNTS
#DATATYPE    : YY
#XPERCHAN    : 7.862, 7.881   eV per channel (separate by commas if more than one detector)
#OFFSET      : 18.5, -22.4         eV of first channel  (separate by commas if more than one detector
#SIGNALTYPE  : XRF
#YP_TEMP     : 1.915
#LIVETIME    : 8.82054, 8.8218   seconds (separate by commas if more than one detector)
#REALTIME    : 10, 10.0   seconds (separate by commas if more than one detector)
#SPECTRUM    : start of spectrum data
0, 0
0, 0
0, 0
0, 0
0, 0
0, 0
0, 0
2, 1
5, 4
1, 4
3, 2
10, 9
6, 12
18, 19
55, 55
106, 109
503, 541
122, 110
31, 29
28, 21
58, 50
300, 316
123, 111
81, 90
251, 248
140, 128
65, 71
26, 34
16, 5
6, 5
40, 28
17, 17
14, 23
160, 207
328, 357
66, 51
29, 44
54, 42
12, 14
2, 12
22, 18
67, 52
37, 40
13, 12
19, 16
19, 24
15, 6
12, 10
13, 10
33, 30
23, 26
12, 10
13, 16
22, 26
41, 43
28, 15
38, 23
378, 414
1645, 1767
1164, 1007
118, 106
19, 18
15, 27
78, 90
270, 257
168, 160
23, 17
4, 10
13, 13
8, 7
8, 4
7, 2
7, 8
5, 5
5, 11
6, 13
2, 8
5, 10
10, 9
9, 15
8, 6
3, 7
10, 5
5, 7
6, 4
1, 5
3, 3
8, 11
4, 5
4, 6
5, 4
5, 7
3, 2
1, 4
5, 7
2, 1
1, 6
5, 2
4, 6
4, 0
1, 2
2, 2
4, 3
0, 2
3, 2
4, 1
4, 1
1, 0
4, 1
6, 2
2, 2
0, 4
1, 2
3, 3
4, 2
2, 5
2, 3
2, 3
2, 2
1, 1
3, 0
2, 2
0, 2
2, 0
0, 1
1, 1
1, 2
0, 1
1, 2
1, 2
1, 2
2, 0
0, 0
2, 2
2, 1
1, 3
1, 1
0, 2
2, 0
0, 2
0, 1
2, 1
0, 0
0, 0
0, 0
2, 1
0, 0
0, 0
0, 0
1, 1
0, 0
0, 0
0, 3
0, 1
0, 0
0, 1
0, 0
0, 0
0, 1
0, 0
1, 0
0, 1
0, 1
0, 0
0, 0
0, 0
2, 0
0, 0
0, 0
0, 0
0, 1
0, 0
1, 0
0, 0
0, 0
0, 1
0, 0
0, 0
0, 0
0, 0
0, 0
0, 0
0, 0
1, 0
1, 0
0, 0
0, 0
0, 0
0, 0
0, 0
0, 0
1, 0
0, 0
1, 0
0, 1
0, 0
0, 0
0, 0
0, 0
0, 0
0, 0
0, 0
0, 0
0, 0
0, 0
0, 0
0, 0
0, 0
0, 0
0, 0
0, 0
0, 0
0, 0
0, 0
0, 0
0, 0
0, 0
0, 0
0, 0
0, 0
0, 0
0, 0
0, 0
0, 0
0, 0
0, 0
0, 0
0, 0
0, 0
0, 0
0, 0
0, 0
0, 0
0, 0
0, 0
0, 0
0, 0
0, 0
0, 0
0, 0
0, 0
0, 0
0, 0
0, 0
0, 0
0, 0
0, 0
0, 0
0, 0
0, 0
0, 0
0, 0
0, 0
0, 0
0, 0
0, 0
0, 0
0, 0
0, 0
0, 0
0, 0
0, 0
0, 0
0, 0
0, 0
0, 0
0, 0
0, 0
0, 0
0, 0
0, 0
0, 0
0, 0
0, 0
0, 0
0, 0
0, 0
0, 0
0, 0
0, 0
0, 0
0, 0
0, 0
0, 0
0, 0
0, 0
0, 0
0, 0
0, 0
0, 0
0, 0
0, 0
0, 0
0, 0
#ENDOFDATA     end of spectrum data

File: ps__0567_0717304816_000rfs_shot_478.msa
#FORMAT      : EMSA/MAS spectral data file
#VERSION     : TC202v2.0 PIXL
#TITLE       : Novarupta (sol567) subset1
#DATE        : 02-11-2024      Date in the format DD-MMM-YYYY, for example 07-JUL-2010
#TIME        :             The time of day at which the spectrum was recorded, in 24-hour format
#OWNER       : PIXL Flight Model       (PIXL will use this to indicate which instrument took the data.)
#NPOINTS     : 4096     Number of data points in the spectrum (This can be zero for configuration only files)
#NCOLUMNS    : 2     Number of data columns in the spectrum (This can be zero for configuration only files)
#XUNITS      : eV
#YUNITS      : COUNTS
#DATATYPE    : YY
#XPERCHAN    : 7.862, 7.881   eV per channel (separate by commas if more than one detector)
#OFFSET      : 18.5, -22.4         eV of first channel  (separate by commas if more than one detector
#SIGNALTYPE  : XRF
#YP_TEMP     : 2.075
#LIVETIME    : 8.83541, 8.82832   seconds (separate by commas if more than one detector)
#REALTIME    : 10, 10.0   seconds (separate by commas if more than one detector)
#SPECTRUM    : start of spectrum data
0, 0
0, 0
0, 0
0, 0
0, 0
0, 0
0, 1
1, 0
6, 3
2, 2
7, 5
8, 12
14, 11
18, 20
39, 62
89, 123
491, 558
145, 120
21, 38
18, 22
52, 49
310, 330
133, 124
72, 80
228, 207
114, 107
64, 65
32, 36
16, 12
7, 3
28, 33
16, 23
18, 21
227, 232
318, 348
56, 47
46, 35
57, 54
11, 12
9, 9
17, 18
56, 64
32, 29
15, 14
14, 7
11, 20
17, 18
16, 9
11, 9
27, 32
23, 21
9, 18
11, 11
35, 35
54, 45
24, 19
28, 31
323, 438
1558, 1707
1110, 967
138, 92
7, 19
28, 28
79, 96
244, 267
166, 139
22, 22
9, 6
11, 7
3, 7
10, 4
9, 5
5, 4
11, 9
9, 5
7, 8
5, 7
4, 8
12, 5
12, 14
7, 8
6, 5
2, 7
4, 3
1, 7
4, 4
5, 6
1, 12
1, 2
5, 6
7, 3
5, 4
8, 6
7, 3
6, 4
5, 2
4, 5
2, 2
8, 5
3, 2
4, 5
3, 3
2, 3
4, 2
2, 4
3, 1
1, 1
1, 0
2, 2
0, 3
2, 3
2, 2
2, 1
1, 4
2, 4
1, 4
3, 4
1, 1
2, 3
1, 1
3, 4
0, 3
1, 1
1, 2
3, 1
2, 1
1, 1
2, 2
0, 0
1, 2
2, 0
0, 2
1, 2
0, 1
1, 0
0, 1
1, 1
0, 2
0, 0
0, 0
2, 0
1, 2
2, 2
0, 0
1, 1
0, 1
1, 2
0, 1
0, 0
0, 0
1, 0
1, 0
1, 0
0, 1
0, 0
0, 0
0, 1
0, 0
0, 0
1, 0
1, 1
0, 0
0, 0
0, 0
0, 0
0, 0
0, 0
0, 0
0, 1
1, 0
0, 0
0, 0
0, 1
0, 1
1, 0
0, 0
0, 1
0, 0
0, 1
0, 0
0, 0
0, 0
0, 1
0, 0
0, 0
0, 0
0, 0
1, 1
1, 0
0, 0
0, 0
0, 0
0, 1
0, 0
0, 0
0, 0
0, 0
0, 0
0, 0
0, 0
0, 0
0, 0
0, 0
0, 0
0, 0
0, 0
0, 0
0, 0
0, 0
0, 0
0, 0
0, 0
0, 0
1, 0
0, 0
0, 0
0, 0
0, 0
0, 0
0, 0
0, 0
0, 0
0, 0
0, 0
0, 0
0, 0
0, 0
0, 0
0, 0
0, 0
0, 0
0, 0
0, 0
0, 0
0, 0
0, 0
0, 0
0, 0
0, 0
0, 0
0, 0
0, 0
0, 0
0, 0
0, 0
0, 0
0, 0
0, 0
0, 0
0, 0
0, 0
0, 0
0, 0
0, 0
0, 0
0, 0
0, 0
0, 0
0, 0
0, 0
0, 0
0, 0
0, 0
0, 0
0, 0
0, 0
0, 0
0, 0
0, 0
0, 0
0, 0
0, 0
0, 0
0, 0
0, 0
0, 0
0, 0
0, 0
0, 0
0, 0
0, 0
0, 0
0, 0
0, 0
0, 0
0, 0
0, 0
0, 0
0, 0
0, 0
0, 0
0, 0
0, 0
0, 0
#ENDOFDATA     end of spectrum data

File: ps__0567_0717304816_000rfs_shot_479.msa
#FORMAT      : EMSA/MAS spectral data file
#VERSION     : TC202v2.0 PIXL
#TITLE       : Novarupta (sol567) subset1
#DATE        : 02-11-2024      Date in the format DD-MMM-YYYY, for example 07-JUL-2010
#TIME        :             The time of day at which the spectrum was recorded, in 24-hour format
#OWNER       : PIXL Flight Model       (PIXL will use this to indicate which instrument took the data.)
#NPOINTS     : 4096     Number of data points in the spectrum (This can be zero for configuration only files)
#NCOLUMNS    : 2     Number of data columns in the spectrum (This can be zero for configuration only files)
#XUNITS      : eV
#YUNITS      : COUNTS
#DATATYPE    : YY
#XPERCHAN    : 7.862, 7.881   eV per channel (separate by commas if more than one detector)
#OFFSET      : 18.5, -22.4         eV of first channel  (separate by commas if more than one detector
#SIGNALTYPE  : XRF
#YP_TEMP     : 1.979
#LIVETIME    : 8.83478, 8.81701   seconds (separate by commas if more than one detector)
#REALTIME    : 10, 10.0   seconds (separate by commas if more than one detector)
#SPECTRUM    : start of spectrum data
0, 0
0, 0
0, 0
0, 0
0, 0
0, 0
0, 0
0, 1
1, 4
3, 4
5, 1
11, 7
11, 12
13, 17
47, 36
108, 128
475, 550
115, 92
26, 30
28, 13
50, 60
293, 280
129, 103
65, 73
221, 208
131, 102
86, 74
30, 27
9, 13
6, 9
25, 43
14, 22
22, 31
195, 210
334, 334
54, 46
48, 35
49, 42
15, 12
9, 11
22, 18
49, 72
45, 29
19, 12
22, 10
18, 13
11, 12
7, 11
16, 21
36, 33
15, 27
9, 11
17, 17
36, 39
52, 53
12, 28
28, 41
336, 475
1619, 1834
1141, 1025
146, 102
15, 15
14, 27
69, 119
251, 297
171, 149
22, 21
4, 8
9, 15
10, 5
7, 6
6, 13
7, 4
3, 1
10, 8
11, 7
9, 6
8, 7
9, 10
6, 10
3, 5
5, 8
2, 5
4, 4
6, 4
6, 5
8, 4
4, 9
5, 4
6, 8
4, 3
3, 7
2, 3
4, 3
3, 5
7, 3
4, 6
1, 6
5, 2
3, 2
4, 1
5, 1
2, 3
3, 5
2, 4
2, 2
3, 4
7, 4
2, 2
4, 2
3, 3
1, 1
1, 1
4, 1
2, 3
0, 3
4, 3
2, 3
3, 2
1, 1
0, 0
0, 3
3, 3
2, 2
2, 1
0, 0
1, 1
0, 1
0, 2
0, 0
1, 0
3, 0
0, 2
0, 0
1, 2
1, 0
1, 1
1, 0
1, 1
0, 0
1, 0
0, 1
3, 0
0, 0
1, 1
1, 0
0, 0
0, 0
1, 2
0, 0
0, 1
0, 2
2, 0
0, 0
0, 0
2, 0
0, 0
1, 0
0, 0
0, 0
0, 0
2, 1
1, 1
0, 1
0, 0
0, 0
0, 1
0, 0
0, 0
0, 0
0, 0
0, 0
0, 0
0, 0
0, 0
0, 0
0, 0
0, 0
1, 1
0, 0
0, 0
0, 0
0, 0
0, 0
1, 0
0, 0
0, 0
0, 0
0, 0
0, 0
0, 0
0, 0
0, 0
0, 0
0, 0
0, 0
0, 0
0, 0
0, 0
0, 0
0, 0
0, 0
0, 0
0, 0
0, 0
0, 0
0, 0
0, 0
0, 0
0, 0
0, 0
0, 0
0, 0
0, 0
0, 0
0, 0
1, 0
0, 0
0, 0
0, 0
0, 0
0, 0
0, 0
0, 0
0, 0
0, 0
0, 0
0, 0
0, 0
0, 0
0, 0
0, 0
0, 0
0, 0
0, 0
0, 0
1, 0
0, 0
0, 0
0, 0
0, 0
0, 0
0, 0
0, 0
0, 0
0, 0
0, 0
0, 0
0, 0
0, 0
0, 0
0, 0
0, 0
0, 0
0, 0
0, 0
0, 0
0, 0
0, 0
0, 0
0, 0
0, 0
0, 0
0, 0
0, 0
0, 0
0, 0
0, 0
0, 0
0, 0
0, 0
0, 0
0, 0
0, 0
0, 0
0, 0
0, 0
0, 0
0, 0
0, 0
0, 0
0, 0
0, 0
0, 0
0, 0
0, 0
0, 0
0, 0
0, 0
0, 0
0, 0
0, 0
0, 0
0, 0
#ENDOFDATA     end of spectrum data

File: ps__0567_0717304816_000rfs_shot_480.msa
#FORMAT      : EMSA/MAS spectral data file
#VERSION     : TC202v2.0 PIXL
#TITLE       : Novarupta (sol567) subset1
#DATE        : 02-11-2024      Date in the format DD-MMM-YYYY, for example 07-JUL-2010
#TIME        :             The time of day at which the spectrum was recorded, in 24-hour format
#OWNER       : PIXL Flight Model       (PIXL will use this to indicate which instrument took the data.)
#NPOINTS     : 4096     Number of data points in the spectrum (This can be zero for configuration only files)
#NCOLUMNS    : 2     Number of data columns in the spectrum (This can be zero for configuration only files)
#XUNITS      : eV
#YUNITS      : COUNTS
#DATATYPE    : YY
#XPERCHAN    : 7.862, 7.881   eV per channel (separate by commas if more than one detector)
#OFFSET      : 18.5, -22.4         eV of first channel  (separate by commas if more than one detector
#SIGNALTYPE  : XRF
#YP_TEMP     : 1.786
#LIVETIME    : 8.83656, 8.81046   seconds (separate by commas if more than one detector)
#REALTIME    : 10, 10.0   seconds (separate by commas if more than one detector)
#SPECTRUM    : start of spectrum data
0, 0
0, 0
0, 0
0, 0
0, 0
0, 0
0, 0
0, 0
2, 7
2, 4
3, 1
8, 12
22, 17
26, 16
48, 54
103, 124
492, 534
131, 109
20, 33
20, 16
48, 55
275, 306
129, 103
62, 78
220, 246
104, 110
83, 91
20, 28
15, 9
1, 9
20, 38
14, 22
16, 20
198, 249
305, 339
41, 51
39, 39
41, 65
8, 9
8, 8
31, 22
70, 70
45, 37
17, 17
13, 19
15, 21
14, 18
4, 11
15, 13
24, 30
20, 25
17, 15
13, 12
33, 49
48, 56
23, 12
25, 39
338, 477
1712, 1860
1081, 1037
152, 108
23, 18
19, 29
61, 112
244, 303
167, 135
33, 17
10, 4
8, 15
11, 4
9, 4
8, 9
2, 5
6, 9
2, 5
5, 7
5, 5
4, 8
8, 14
6, 10
4, 6
7, 3
8, 5
2, 2
10, 7
3, 8
7, 3
3, 7
9, 8
3, 1
4, 5
8, 4
8, 5
5, 7
3, 4
5, 2
2, 4
6, 3
3, 7
4, 2
4, 4
4, 3
5, 4
6, 1
1, 2
0, 0
1, 3
2, 2
2, 3
4, 1
1, 1
2, 1
2, 1
4, 4
3, 2
3, 1
4, 4
5, 2
1, 4
0, 1
2, 1
0, 3
2, 3
1, 2
2, 0
0, 1
1, 0
1, 2
2, 1
2, 1
0, 0
0, 0
0, 1
0, 0
0, 1
0, 1
2, 1
1, 2
0, 0
0, 0
2, 0
0, 1
0, 2
2, 1
0, 1
0, 0
0, 0
1, 1
1, 0
1, 1
2, 0
1, 0
1, 1
0, 0
1, 0
0, 0
0, 0
1, 0
0, 0
0, 0
0, 1
0, 0
0, 0
0, 0
1, 1
0, 1
0, 0
0, 0
0, 0
0, 0
0, 1
0, 0
2, 0
1, 0
0, 0
1, 0
0, 0
0, 0
0, 0
0, 0
0, 0
0, 0
0, 0
0, 0
0, 0
0, 0
0, 0
0, 0
0, 0
0, 0
0, 0
0, 1
0, 0
0, 0
1, 0
0, 0
0, 0
0, 0
0, 0
0, 0
0, 0
0, 0
0, 0
0, 0
0, 0
0, 0
0, 0
0, 0
0, 0
0, 0
0, 0
0, 0
0, 0
0, 0
0, 0
0, 0
0, 0
0, 0
0, 0
0, 0
0, 0
0, 0
0, 0
0, 0
0, 0
0, 0
0, 0
0, 0
0, 0
0, 0
0, 0
0, 0
0, 0
0, 0
0, 0
0, 0
0, 0
0, 0
0, 0
0, 0
0, 0
0, 0
0, 0
0, 0
0, 0
0, 0
0, 0
0, 0
0, 0
0, 0
0, 0
0, 0
0, 0
0, 0
0, 0
0, 0
0, 0
0, 0
0, 0
0, 0
0, 0
0, 0
0, 0
0, 0
0, 0
0, 0
0, 0
0, 0
0, 0
0, 0
0, 0
0, 0
0, 0
0, 0
0, 0
0, 0
0, 0
0, 0
0, 0
0, 0
0, 0
0, 0
0, 0
0, 0
0, 0
0, 0
0, 0
0, 0
0, 0
0, 0
0, 0
0, 0
0, 0
0, 0
#ENDOFDATA     end of spectrum data

File: ps__0567_0717304816_000rfs_shot_483.msa
#FORMAT      : EMSA/MAS spectral data file
#VERSION     : TC202v2.0 PIXL
#TITLE       : Novarupta (sol567) subset1
#DATE        : 02-11-2024      Date in the format DD-MMM-YYYY, for example 07-JUL-2010
#TIME        :             The time of day at which the spectrum was recorded, in 24-hour format
#OWNER       : PIXL Flight Model       (PIXL will use this to indicate which instrument took the data.)
#NPOINTS     : 4096     Number of data points in the spectrum (This can be zero for configuration only files)
#NCOLUMNS    : 2     Number of data columns in the spectrum (This can be zero for configuration only files)
#XUNITS      : eV
#YUNITS      : COUNTS
#DATATYPE    : YY
#XPERCHAN    : 7.862, 7.881   eV per channel (separate by commas if more than one detector)
#OFFSET      : 18.5, -22.4         eV of first channel  (separate by commas if more than one detector
#SIGNALTYPE  : XRF
#YP_TEMP     : 2.107
#LIVETIME    : 8.83311, 8.64796   seconds (separate by commas if more than one detector)
#REALTIME    : 10, 10.0   seconds (separate by commas if more than one detector)
#SPECTRUM    : start of spectrum data
0, 0
0, 0
0, 0
0, 0
0, 0
0, 0
0, 1
0, 1
3, 3
4, 6
7, 5
5, 6
9, 10
26, 29
40, 45
103, 113
478, 518
106, 125
24, 31
15, 16
59, 52
277, 336
122, 114
74, 81
210, 254
113, 130
63, 72
21, 28
14, 15
7, 5
28, 29
16, 20
21, 22
180, 206
287, 371
47, 55
32, 43
38, 56
10, 19
11, 10
16, 28
48, 65
44, 30
22, 17
16, 14
20, 17
14, 12
11, 8
13, 12
27, 35
28, 29
17, 11
5, 15
28, 34
49, 57
26, 24
23, 33
344, 505
1615, 1941
1051, 1002
128, 100
16, 13
31, 27
72, 115
253, 311
183, 164
21, 20
11, 6
12, 9
7, 13
7, 7
7, 5
5, 10
6, 5
2, 3
11, 9
6, 8
2, 8
7, 6
10, 13
3, 5
9, 8
6, 6
6, 11
4, 6
6, 5
5, 5
4, 8
7, 4
11, 7
4, 4
7, 6
6, 6
4, 2
2, 9
4, 3
4, 5
2, 7
5, 0
3, 2
0, 4
2, 4
2, 3
0, 4
2, 4
4, 3
1, 3
5, 2
2, 3
5, 2
2, 3
1, 5
3, 2
3, 1
3, 0
3, 7
4, 5
4, 5
1, 2
1, 1
1, 0
2, 1
0, 2
2, 4
2, 0
2, 0
2, 3
2, 1
0, 1
4, 0
1, 2
1, 0
0, 1
1, 1
0, 2
0, 0
0, 1
0, 2
1, 0
0, 0
1, 3
1, 1
0, 1
0, 0
0, 1
0, 0
0, 0
0, 0
1, 0
1, 0
1, 1
1, 0
1, 0
0, 1
2, 0
0, 0
0, 0
0, 0
1, 1
1, 0
0, 0
1, 0
0, 0
0, 0
0, 0
0, 1
1, 0
0, 0
0, 1
0, 0
0, 1
0, 0
0, 0
0, 0
0, 0
0, 0
0, 0
0, 0
1, 0
0, 0
0, 0
1, 0
0, 0
0, 1
0, 1
0, 0
0, 0
0, 0
0, 0
0, 0
0, 0
0, 0
0, 0
0, 0
0, 0
0, 0
0, 0
0, 0
0, 0
0, 0
0, 0
0, 0
0, 0
0, 0
0, 1
0, 0
0, 0
0, 0
0, 0
0, 0
1, 0
0, 0
0, 0
0, 0
0, 0
0, 0
0, 0
0, 0
0, 0
0, 0
0, 0
0, 0
0, 0
0, 0
0, 0
0, 0
0, 0
0, 0
0, 0
0, 0
0, 0
0, 0
0, 0
0, 0
0, 0
0, 0
0, 0
0, 0
0, 0
0, 0
0, 0
0, 0
0, 0
0, 0
0, 0
0, 0
0, 0
0, 0
0, 0
0, 0
0, 0
0, 0
0, 0
0, 0
0, 0
0, 0
0, 0
0, 0
0, 0
0, 0
0, 0
0, 0
0, 0
0, 0
0, 0
0, 0
0, 0
0, 0
0, 0
0, 0
0, 0
0, 0
0, 0
0, 0
0, 0
0, 0
0, 0
0, 0
0, 0
0, 0
0, 0
0, 0
0, 0
0, 0
0, 0
0, 0
0, 0
0, 0
0, 0
0, 0
0, 0
0, 0
0, 0
0, 0
#ENDOFDATA     end of spectrum data

File: ps__0567_0717304816_000rfs_shot_484.msa
#FORMAT      : EMSA/MAS spectral data file
#VERSION     : TC202v2.0 PIXL
#TITLE       : Novarupta (sol567) subset1
#DATE        : 02-11-2024      Date in the format DD-MMM-YYYY, for example 07-JUL-2010
#TIME        :             The time of day at which the spectrum was recorded, in 24-hour format
#OWNER       : PIXL Flight Model       (PIXL will use this to indicate which instrument took the data.)
#NPOINTS     : 4096     Number of data points in the spectrum (This can be zero for configuration only files)
#NCOLUMNS    : 2     Number of data columns in the spectrum (This can be zero for configuration only files)
#XUNITS      : eV
#YUNITS      : COUNTS
#DATATYPE    : YY
#XPERCHAN    : 7.862, 7.881   eV per channel (separate by commas if more than one detector)
#OFFSET      : 18.5, -22.4         eV of first channel  (separate by commas if more than one detector
#SIGNALTYPE  : XRF
#YP_TEMP     : 1.947
#LIVETIME    : 8.82431, 8.81337   seconds (separate by commas if more than one detector)
#REALTIME    : 10, 10.0   seconds (separate by commas if more than one detector)
#SPECTRUM    : start of spectrum data
0, 0
0, 0
0, 0
0, 0
0, 0
0, 0
0, 0
0, 1
4, 7
3, 5
3, 6
4, 12
17, 13
16, 26
48, 56
118, 109
445, 549
101, 128
17, 45
24, 14
49, 61
273, 326
113, 109
60, 89
231, 281
110, 118
51, 66
22, 35
8, 6
16, 11
29, 42
18, 18
20, 19
188, 250
298, 368
53, 48
35, 35
47, 53
13, 11
9, 14
15, 27
58, 61
37, 37
13, 12
11, 14
10, 21
13, 13
4, 9
13, 17
23, 36
25, 33
16, 11
15, 11
43, 31
56, 55
28, 27
16, 32
305, 488
1583, 1879
1054, 1075
136, 118
13, 14
26, 22
79, 96
244, 319
152, 167
24, 19
14, 9
17, 15
11, 12
8, 3
6, 7
3, 9
7, 10
11, 6
9, 6
4, 9
7, 13
12, 8
9, 11
4, 4
8, 7
5, 3
6, 7
7, 5
3, 7
9, 3
6, 7
8, 3
6, 6
3, 4
6, 7
2, 5
3, 6
3, 4
4, 3
3, 4
3, 3
1, 1
2, 2
3, 3
3, 4
4, 3
5, 1
3, 0
2, 1
6, 2
3, 3
4, 1
2, 4
2, 4
1, 4
3, 3
1, 3
0, 0
2, 4
4, 1
2, 1
1, 1
3, 1
4, 1
1, 1
2, 2
2, 0
2, 1
0, 2
0, 0
1, 5
1, 3
1, 0
0, 2
1, 1
1, 0
0, 1
0, 0
1, 0
0, 3
2, 1
0, 1
0, 0
0, 0
1, 0
0, 0
0, 1
0, 2
0, 1
1, 0
0, 0
0, 0
1, 0
0, 0
1, 0
1, 0
0, 0
0, 0
0, 0
0, 0
1, 0
0, 0
1, 0
0, 0
0, 0
1, 0
0, 0
0, 0
0, 0
0, 0
0, 0
0, 0
0, 1
0, 2
0, 0
0, 0
0, 0
0, 0
0, 0
0, 0
0, 1
0, 0
0, 1
0, 0
0, 0
0, 0
0, 1
0, 0
0, 0
0, 0
0, 0
0, 0
0, 0
1, 0
0, 0
0, 0
0, 1
0, 0
0, 0
1, 0
0, 0
0, 0
0, 0
1, 0
0, 0
0, 0
0, 0
0, 0
0, 0
0, 1
0, 0
0, 0
0, 0
0, 0
0, 0
0, 0
0, 1
0, 0
0, 0
0, 0
0, 0
0, 0
0, 0
0, 0
0, 0
0, 0
0, 0
0, 0
0, 0
0, 0
0, 0
0, 0
0, 0
0, 0
0, 0
0, 0
0, 0
0, 0
0, 0
0, 0
0, 0
0, 0
0, 0
0, 0
0, 0
0, 0
0, 0
0, 0
0, 0
0, 0
0, 0
0, 0
0, 0
0, 0
0, 0
0, 0
0, 0
0, 0
0, 0
0, 0
0, 0
0, 0
0, 0
0, 0
0, 0
0, 0
0, 0
0, 0
0, 0
0, 0
0, 0
0, 0
0, 0
0, 0
0, 0
0, 0
0, 0
0, 0
0, 0
0, 0
0, 0
0, 0
0, 0
0, 0
0, 0
0, 0
0, 0
0, 0
0, 0
0, 0
0, 0
0, 0
0, 0
0, 0
0, 0
0, 0
0, 0
#ENDOFDATA     end of spectrum data

File: ps__0567_0717304816_000rfs_shot_485.msa
#FORMAT      : EMSA/MAS spectral data file
#VERSION     : TC202v2.0 PIXL
#TITLE       : Novarupta (sol567) subset1
#DATE        : 02-11-2024      Date in the format DD-MMM-YYYY, for example 07-JUL-2010
#TIME        :             The time of day at which the spectrum was recorded, in 24-hour format
#OWNER       : PIXL Flight Model       (PIXL will use this to indicate which instrument took the data.)
#NPOINTS     : 4096     Number of data points in the spectrum (This can be zero for configuration only files)
#NCOLUMNS    : 2     Number of data columns in the spectrum (This can be zero for configuration only files)
#XUNITS      : eV
#YUNITS      : COUNTS
#DATATYPE    : YY
#XPERCHAN    : 7.862, 7.881   eV per channel (separate by commas if more than one detector)
#OFFSET      : 18.5, -22.4         eV of first channel  (separate by commas if more than one detector
#SIGNALTYPE  : XRF
#YP_TEMP     : 2.267
#LIVETIME    : 8.83497, 8.80462   seconds (separate by commas if more than one detector)
#REALTIME    : 10, 10.0   seconds (separate by commas if more than one detector)
#SPECTRUM    : start of spectrum data
0, 0
0, 0
0, 0
0, 0
0, 0
0, 0
0, 0
0, 0
1, 5
3, 3
5, 3
11, 10
17, 17
21, 28
38, 39
100, 146
429, 576
106, 112
25, 45
30, 29
50, 58
306, 341
115, 114
50, 81
209, 269
123, 143
61, 70
26, 35
12, 9
10, 8
20, 30
25, 16
19, 19
179, 259
278, 351
58, 64
39, 60
55, 55
13, 14
5, 15
16, 19
66, 63
30, 29
14, 17
12, 18
18, 19
12, 9
16, 15
11, 20
31, 23
24, 25
10, 13
4, 15
34, 40
43, 72
30, 21
20, 32
316, 492
1541, 1865
1009, 1137
108, 122
20, 16
16, 19
71, 111
241, 298
149, 146
22, 21
12, 9
10, 8
9, 7
9, 13
5, 7
7, 6
7, 6
6, 6
7, 6
6, 9
9, 8
11, 14
12, 10
5, 8
5, 6
5, 3
5, 5
4, 9
6, 5
5, 8
11, 5
3, 4
3, 6
3, 4
3, 4
4, 2
4, 6
2, 6
6, 3
2, 3
5, 4
1, 4
2, 4
3, 2
1, 0
0, 2
1, 3
2, 3
2, 5
3, 1
3, 2
1, 4
3, 3
1, 4
3, 3
1, 4
1, 4
0, 2
1, 5
2, 3
1, 5
3, 1
0, 0
2, 2
0, 1
1, 1
4, 3
3, 2
0, 0
0, 3
1, 3
1, 1
2, 1
2, 3
1, 1
0, 0
1, 2
0, 2
1, 2
0, 2
1, 1
2, 3
0, 2
0, 1
2, 0
1, 1
0, 1
0, 1
2, 0
0, 2
1, 1
0, 0
1, 1
0, 2
1, 0
0, 1
0, 0
0, 1
0, 1
0, 1
0, 2
0, 0
1, 3
0, 0
0, 0
0, 0
0, 0
0, 0
0, 0
1, 0
0, 3
0, 1
1, 1
0, 2
0, 2
0, 1
1, 0
0, 0
0, 1
0, 0
0, 0
0, 0
0, 0
0, 0
1, 0
1, 0
0, 0
0, 0
0, 0
0, 1
0, 0
0, 0
0, 0
0, 0
1, 0
0, 0
0, 0
0, 0
1, 0
0, 0
0, 0
0, 0
1, 0
0, 1
0, 0
0, 0
0, 0
0, 0
0, 0
0, 0
1, 0
0, 0
0, 0
0, 0
0, 0
0, 0
0, 0
0, 0
0, 0
0, 0
0, 0
0, 0
0, 0
0, 0
0, 0
0, 0
0, 0
0, 0
0, 0
0, 0
0, 0
0, 0
0, 0
0, 0
0, 0
0, 0
0, 0
0, 0
0, 0
0, 0
0, 0
0, 0
0, 0
0, 0
0, 0
0, 0
0, 0
0, 0
0, 0
0, 0
0, 0
0, 0
0, 0
0, 0
0, 0
0, 0
0, 0
0, 0
0, 0
0, 0
0, 0
0, 0
0, 0
0, 0
0, 0
0, 0
0, 0
0, 0
0, 0
0, 0
0, 0
0, 0
0, 0
0, 0
0, 0
0, 0
0, 0
0, 0
0, 0
0, 0
0, 0
0, 0
0, 0
0, 0
0, 0
0, 0
0, 0
0, 0
0, 0
0, 0
0, 0
0, 0
0, 0
0, 0
0, 0
0, 0
0, 0
#ENDOFDATA     end of spectrum data

File: ps__0567_0717304816_000rfs_shot_486.msa
#FORMAT      : EMSA/MAS spectral data file
#VERSION     : TC202v2.0 PIXL
#TITLE       : Novarupta (sol567) subset1
#DATE        : 02-11-2024      Date in the format DD-MMM-YYYY, for example 07-JUL-2010
#TIME        :             The time of day at which the spectrum was recorded, in 24-hour format
#OWNER       : PIXL Flight Model       (PIXL will use this to indicate which instrument took the data.)
#NPOINTS     : 4096     Number of data points in the spectrum (This can be zero for configuration only files)
#NCOLUMNS    : 2     Number of data columns in the spectrum (This can be zero for configuration only files)
#XUNITS      : eV
#YUNITS      : COUNTS
#DATATYPE    : YY
#XPERCHAN    : 7.862, 7.881   eV per channel (separate by commas if more than one detector)
#OFFSET      : 18.5, -22.4         eV of first channel  (separate by commas if more than one detector
#SIGNALTYPE  : XRF
#YP_TEMP     : 1.786
#LIVETIME    : 8.82652, 8.80953   seconds (separate by commas if more than one detector)
#REALTIME    : 10, 10.0   seconds (separate by commas if more than one detector)
#SPECTRUM    : start of spectrum data
0, 0
0, 0
0, 0
0, 0
0, 0
0, 0
0, 0
0, 1
2, 5
0, 5
4, 5
13, 14
10, 17
24, 22
36, 46
89, 125
478, 503
115, 139
30, 36
26, 35
60, 71
280, 353
113, 128
64, 98
199, 249
107, 119
62, 68
26, 30
7, 7
12, 9
23, 27
8, 13
10, 29
203, 272
310, 403
56, 66
32, 57
44, 64
10, 10
8, 10
20, 35
70, 77
36, 34
11, 13
15, 10
19, 23
12, 17
11, 6
10, 10
32, 31
20, 34
16, 16
11, 15
24, 30
38, 52
19, 16
22, 50
321, 480
1535, 1878
1049, 1049
103, 105
14, 18
14, 32
62, 113
248, 303
159, 163
20, 13
8, 15
10, 7
6, 11
5, 6
2, 4
4, 13
8, 9
14, 10
9, 12
0, 14
9, 8
5, 11
7, 12
11, 5
8, 9
10, 7
6, 8
2, 8
2, 9
3, 4
4, 7
5, 1
6, 4
1, 7
6, 6
5, 4
5, 8
4, 3
7, 7
4, 3
4, 2
7, 2
2, 2
2, 5
6, 2
5, 4
2, 4
0, 1
1, 3
3, 2
3, 5
4, 3
1, 0
3, 2
1, 0
1, 1
1, 3
2, 2
4, 2
2, 3
1, 2
1, 3
3, 6
1, 3
1, 4
1, 1
0, 3
1, 2
0, 1
0, 1
0, 1
1, 0
1, 3
3, 3
1, 1
1, 2
1, 0
0, 1
3, 0
0, 3
1, 0
0, 0
1, 0
0, 0
0, 0
0, 0
0, 2
0, 1
0, 0
2, 0
0, 0
1, 0
0, 1
1, 1
0, 0
0, 0
0, 0
0, 1
0, 0
1, 1
0, 0
1, 0
0, 0
0, 0
1, 0
0, 0
0, 0
1, 0
0, 0
0, 0
0, 0
0, 0
0, 0
0, 1
0, 0
0, 0
0, 0
0, 0
0, 1
0, 0
0, 1
0, 0
0, 0
0, 0
1, 0
1, 0
0, 0
0, 0
0, 0
0, 0
0, 0
1, 0
0, 0
0, 1
0, 1
0, 0
0, 0
0, 0
0, 0
0, 0
0, 0
0, 0
0, 0
0, 0
0, 0
0, 0
0, 0
0, 0
0, 0
0, 0
0, 0
0, 0
0, 0
0, 0
0, 0
0, 0
0, 0
0, 0
0, 0
0, 0
1, 0
0, 0
0, 0
0, 0
0, 0
0, 0
0, 0
0, 0
0, 0
0, 0
0, 0
0, 0
0, 0
0, 0
0, 0
0, 0
0, 0
0, 0
0, 0
0, 0
0, 0
0, 0
0, 0
0, 0
0, 0
0, 0
0, 0
0, 0
0, 0
0, 0
0, 0
0, 0
0, 0
0, 0
0, 0
0, 0
0, 0
0, 0
0, 0
0, 0
0, 0
0, 0
0, 0
0, 0
0, 0
0, 0
0, 0
0, 0
0, 0
0, 0
0, 0
0, 0
0, 0
0, 0
0, 0
0, 0
0, 0
0, 0
0, 0
0, 0
0, 0
0, 0
0, 0
0, 0
0, 0
0, 0
0, 0
0, 0
0, 0
0, 0
0, 0
0, 0
0, 0
0, 0
0, 0
0, 0
0, 0
#ENDOFDATA     end of spectrum data