Folder: data-repository/host_upload/02-11-2024/rqc/uplink1 (part 16)

File: ps__0567_0717304816_000rfs_shot_262.msa
#FORMAT      : EMSA/MAS spectral data file
#VERSION     : TC202v2.0 PIXL
#TITLE       : Novarupta (sol567) subset1
#DATE        : 02-11-2024      Date in the format DD-MMM-YYYY, for example 07-JUL-2010
#TIME        :             The time of day at which the spectrum was recorded, in 24-hour format
#OWNER       : PIXL Flight Model       (PIXL will use this to indicate which instrument took the data.)
#NPOINTS     : 4096     Number of data points in the spectrum (This can be zero for configuration only files)
#NCOLUMNS    : 2     Number of data columns in the spectrum (This can be zero for configuration only files)
#XUNITS      : eV
#YUNITS      : COUNTS
#DATATYPE    : YY
#XPERCHAN    : 7.862, 7.881   eV per channel (separate by commas if more than one detector)
#OFFSET      : 18.5, -22.4         eV of first channel  (separate by commas if more than one detector
#SIGNALTYPE  : XRF
#YP_TEMP     : 1.209
#LIVETIME    : 8.83874, 8.81379   seconds (separate by commas if more than one detector)
#REALTIME    : 10, 10.0   seconds (separate by commas if more than one detector)
#SPECTRUM    : start of spectrum data
0, 0
0, 0
0, 0
0, 0
0, 0
0, 0
0, 0
1, 1
3, 1
2, 3
3, 4
9, 10
13, 11
27, 31
34, 45
107, 130
462, 545
119, 139
22, 31
25, 17
47, 75
262, 290
94, 114
82, 72
216, 251
126, 124
57, 66
33, 27
6, 11
10, 4
25, 28
6, 11
21, 11
210, 286
303, 364
55, 49
39, 61
47, 53
12, 14
6, 8
22, 32
54, 64
38, 33
19, 21
20, 17
17, 28
16, 15
15, 8
16, 15
30, 50
22, 28
14, 10
8, 14
18, 44
36, 59
27, 24
29, 42
334, 480
1558, 1911
1033, 987
142, 89
21, 23
15, 23
86, 93
248, 309
152, 146
20, 31
4, 14
13, 13
6, 7
4, 8
9, 4
4, 8
4, 4
5, 8
5, 5
7, 7
5, 5
10, 9
13, 10
12, 11
1, 2
6, 7
6, 5
4, 6
4, 4
3, 8
5, 1
4, 3
3, 6
2, 3
5, 2
5, 3
6, 1
6, 5
2, 6
4, 7
4, 1
1, 2
4, 3
8, 5
4, 2
4, 5
3, 2
3, 3
2, 1
2, 3
2, 3
1, 1
4, 2
2, 1
1, 6
0, 3
0, 2
2, 3
4, 6
3, 1
2, 2
2, 0
1, 0
0, 2
3, 3
1, 2
5, 0
0, 0
1, 3
3, 0
1, 1
1, 3
0, 1
0, 1
0, 0
1, 1
0, 0
1, 0
2, 0
0, 2
1, 0
0, 0
1, 0
0, 0
0, 0
1, 1
1, 2
0, 1
1, 1
0, 1
0, 0
1, 1
0, 0
0, 1
1, 0
1, 4
2, 0
0, 0
0, 1
0, 0
0, 2
0, 0
0, 0
0, 0
0, 4
1, 1
0, 0
1, 0
2, 0
0, 0
0, 0
0, 1
1, 1
0, 0
0, 1
0, 0
0, 2
0, 0
0, 0
0, 0
0, 2
0, 0
0, 0
0, 0
0, 0
1, 0
0, 1
0, 0
1, 1
0, 0
0, 0
0, 0
0, 0
0, 0
0, 0
0, 0
0, 0
0, 0
0, 0
0, 0
0, 0
0, 0
0, 0
0, 0
0, 0
0, 0
0, 0
0, 0
0, 0
0, 0
0, 1
0, 0
0, 0
0, 0
0, 0
0, 0
0, 0
0, 0
0, 0
0, 0
0, 0
0, 0
0, 0
0, 0
0, 0
0, 0
0, 0
0, 0
0, 0
0, 0
0, 0
0, 0
0, 0
0, 0
0, 0
0, 0
0, 0
0, 0
0, 0
0, 0
0, 0
0, 0
0, 0
0, 0
0, 0
0, 0
0, 0
0, 0
0, 0
0, 0
0, 0
0, 0
0, 0
0, 0
0, 0
0, 0
0, 0
0, 0
0, 0
0, 0
0, 0
0, 0
0, 0
0, 0
0, 0
0, 0
0, 0
0, 0
0, 0
0, 0
0, 0
0, 0
0, 0
0, 0
0, 0
0, 0
0, 0
0, 0
0, 0
0, 0
0, 0
0, 0
0, 0
0, 0
0, 0
0, 0
0, 0
0, 0
0, 0
0, 0
0, 0
0, 0
0, 0
0, 0
0, 0
0, 0
0, 0
#ENDOFDATA     end of spectrum data

File: ps__0567_0717304816_000rfs_shot_263.msa
#FORMAT      : EMSA/MAS spectral data file
#VERSION     : TC202v2.0 PIXL
#TITLE       : Novarupta (sol567) subset1
#DATE        : 02-11-2024      Date in the format DD-MMM-YYYY, for example 07-JUL-2010
#TIME        :             The time of day at which the spectrum was recorded, in 24-hour format
#OWNER       : PIXL Flight Model       (PIXL will use this to indicate which instrument took the data.)
#NPOINTS     : 4096     Number of data points in the spectrum (This can be zero for configuration only files)
#NCOLUMNS    : 2     Number of data columns in the spectrum (This can be zero for configuration only files)
#XUNITS      : eV
#YUNITS      : COUNTS
#DATATYPE    : YY
#XPERCHAN    : 7.862, 7.881   eV per channel (separate by commas if more than one detector)
#OFFSET      : 18.5, -22.4         eV of first channel  (separate by commas if more than one detector
#SIGNALTYPE  : XRF
#YP_TEMP     : 1.209
#LIVETIME    : 8.85198, 8.80913   seconds (separate by commas if more than one detector)
#REALTIME    : 10, 10.0   seconds (separate by commas if more than one detector)
#SPECTRUM    : start of spectrum data
0, 0
0, 0
0, 0
0, 0
0, 0
0, 0
0, 0
1, 1
1, 8
1, 4
2, 8
10, 13
11, 21
18, 23
46, 40
109, 138
480, 570
116, 111
28, 34
29, 24
47, 67
251, 322
104, 117
81, 59
205, 239
97, 109
69, 74
30, 35
9, 5
1, 7
11, 25
7, 18
20, 19
226, 255
273, 348
61, 69
39, 49
45, 53
4, 12
7, 7
27, 28
53, 70
34, 22
11, 18
9, 19
21, 20
17, 15
7, 12
13, 20
26, 29
32, 15
0, 15
13, 8
37, 33
45, 48
26, 20
30, 48
354, 492
1483, 1942
1066, 1078
114, 107
13, 16
18, 23
73, 94
255, 293
135, 164
22, 30
9, 12
19, 10
9, 11
6, 9
7, 7
5, 11
9, 4
2, 15
9, 7
5, 6
5, 4
9, 13
10, 11
7, 9
6, 5
3, 8
1, 5
11, 7
1, 5
4, 6
6, 4
3, 2
2, 10
6, 1
5, 5
4, 4
1, 2
4, 3
3, 3
7, 3
2, 3
3, 4
2, 3
3, 2
1, 5
2, 1
1, 2
5, 2
2, 4
0, 2
1, 2
2, 3
1, 4
2, 0
1, 1
2, 4
3, 3
0, 5
3, 2
7, 4
3, 5
2, 1
1, 1
3, 2
1, 2
1, 1
1, 2
0, 5
0, 1
0, 2
2, 1
0, 1
2, 1
2, 1
0, 1
1, 0
1, 3
0, 1
2, 2
0, 0
0, 0
1, 1
0, 0
0, 2
2, 0
0, 0
1, 0
2, 1
0, 1
0, 0
1, 1
0, 0
1, 1
0, 0
0, 0
0, 2
0, 0
0, 1
0, 0
0, 1
0, 0
1, 0
0, 0
0, 0
0, 0
0, 0
0, 0
0, 0
0, 1
0, 1
0, 1
0, 0
0, 0
0, 0
1, 0
0, 0
0, 1
0, 0
1, 0
0, 0
0, 0
1, 1
0, 1
0, 0
0, 0
0, 0
0, 1
0, 0
0, 0
0, 0
0, 0
0, 0
0, 0
0, 0
0, 0
1, 0
0, 0
0, 0
0, 0
0, 0
0, 0
0, 0
0, 0
1, 1
0, 0
0, 0
0, 0
0, 0
0, 0
0, 0
0, 0
0, 0
0, 0
0, 0
0, 0
0, 0
0, 1
0, 0
0, 0
0, 0
0, 0
0, 0
0, 0
0, 0
0, 0
0, 0
0, 0
0, 0
0, 0
0, 0
0, 0
0, 0
0, 0
0, 0
0, 0
0, 0
0, 0
0, 0
0, 0
0, 0
0, 0
0, 0
0, 0
0, 0
0, 0
0, 0
0, 0
0, 0
0, 0
0, 0
0, 0
0, 0
0, 0
0, 0
0, 0
0, 0
0, 0
0, 0
0, 0
0, 0
0, 0
0, 0
0, 0
0, 0
0, 0
0, 0
0, 0
0, 0
0, 0
0, 0
0, 0
0, 0
0, 0
0, 0
0, 0
0, 0
0, 0
0, 0
0, 0
0, 0
0, 0
0, 0
0, 0
0, 0
0, 0
0, 0
0, 0
0, 0
0, 0
0, 0
0, 0
0, 0
0, 0
0, 0
0, 0
0, 0
0, 0
#ENDOFDATA     end of spectrum data

File: ps__0567_0717304816_000rfs_shot_264.msa
#FORMAT      : EMSA/MAS spectral data file
#VERSION     : TC202v2.0 PIXL
#TITLE       : Novarupta (sol567) subset1
#DATE        : 02-11-2024      Date in the format DD-MMM-YYYY, for example 07-JUL-2010
#TIME        :             The time of day at which the spectrum was recorded, in 24-hour format
#OWNER       : PIXL Flight Model       (PIXL will use this to indicate which instrument took the data.)
#NPOINTS     : 4096     Number of data points in the spectrum (This can be zero for configuration only files)
#NCOLUMNS    : 2     Number of data columns in the spectrum (This can be zero for configuration only files)
#XUNITS      : eV
#YUNITS      : COUNTS
#DATATYPE    : YY
#XPERCHAN    : 7.862, 7.881   eV per channel (separate by commas if more than one detector)
#OFFSET      : 18.5, -22.4         eV of first channel  (separate by commas if more than one detector
#SIGNALTYPE  : XRF
#YP_TEMP     : 1.337
#LIVETIME    : 8.8477, 8.64094   seconds (separate by commas if more than one detector)
#REALTIME    : 10, 10.0   seconds (separate by commas if more than one detector)
#SPECTRUM    : start of spectrum data
0, 0
0, 0
0, 0
0, 0
0, 0
0, 0
0, 0
0, 0
4, 2
2, 4
0, 2
14, 7
11, 11
19, 31
35, 51
105, 136
439, 582
106, 124
27, 34
19, 28
54, 74
264, 345
114, 120
66, 76
198, 268
109, 126
74, 71
27, 35
4, 6
5, 7
19, 29
17, 20
6, 19
168, 263
315, 378
43, 68
43, 48
49, 68
12, 10
12, 5
15, 33
45, 65
27, 43
14, 18
11, 11
23, 30
12, 15
14, 17
13, 14
26, 30
18, 28
10, 14
13, 16
27, 42
39, 46
27, 30
30, 48
339, 484
1530, 1883
983, 1018
122, 96
18, 16
16, 24
74, 117
231, 255
139, 143
23, 20
9, 12
13, 15
9, 5
6, 8
7, 4
3, 8
7, 6
6, 7
3, 9
4, 13
10, 8
8, 16
10, 11
8, 9
5, 10
6, 3
6, 9
7, 5
4, 6
4, 3
5, 9
4, 6
3, 4
1, 5
3, 5
3, 8
3, 2
6, 6
4, 2
5, 7
5, 3
3, 4
5, 3
3, 4
2, 4
4, 2
3, 3
2, 2
2, 4
4, 4
2, 5
3, 5
3, 5
1, 1
3, 2
5, 3
2, 2
1, 2
4, 2
1, 4
3, 1
0, 3
4, 1
3, 1
1, 5
1, 4
0, 0
0, 2
2, 3
1, 0
1, 1
0, 2
0, 1
2, 1
0, 1
0, 2
1, 0
0, 1
0, 1
1, 0
0, 0
0, 1
0, 1
1, 1
0, 0
0, 2
1, 1
0, 0
0, 0
0, 2
0, 0
0, 0
0, 1
1, 0
2, 0
0, 0
0, 0
0, 0
0, 0
0, 0
0, 0
0, 0
0, 2
1, 2
0, 0
0, 0
0, 0
0, 1
0, 0
0, 0
0, 0
0, 0
0, 0
0, 0
1, 0
0, 0
0, 0
0, 0
1, 0
0, 0
0, 0
0, 0
0, 0
0, 0
0, 0
0, 0
0, 0
1, 0
0, 1
0, 0
0, 0
0, 0
0, 0
0, 0
0, 0
0, 0
0, 0
0, 0
0, 0
0, 0
0, 0
0, 0
0, 0
0, 0
0, 0
0, 0
0, 0
0, 0
0, 0
0, 0
0, 0
0, 0
0, 0
0, 0
1, 0
0, 0
0, 0
0, 0
0, 0
0, 0
0, 0
0, 0
0, 0
0, 0
0, 0
0, 0
0, 0
0, 0
0, 0
0, 0
0, 0
0, 0
0, 0
0, 0
0, 0
0, 0
0, 0
0, 0
0, 0
0, 0
0, 0
0, 0
0, 0
0, 0
0, 0
0, 0
0, 0
0, 0
0, 0
0, 0
0, 0
0, 0
0, 0
0, 0
0, 0
0, 0
0, 0
0, 0
0, 0
0, 0
0, 0
0, 0
0, 0
0, 0
0, 0
0, 0
0, 0
0, 0
0, 0
0, 0
0, 0
0, 0
0, 0
0, 0
0, 0
0, 0
0, 0
0, 0
0, 0
0, 0
0, 0
0, 0
0, 0
0, 0
0, 0
0, 0
0, 0
0, 0
0, 0
0, 0
0, 0
0, 0
0, 0
0, 0
0, 0
0, 0
0, 0
#ENDOFDATA     end of spectrum data

File: ps__0567_0717304816_000rfs_shot_266.msa
#FORMAT      : EMSA/MAS spectral data file
#VERSION     : TC202v2.0 PIXL
#TITLE       : Novarupta (sol567) subset1
#DATE        : 02-11-2024      Date in the format DD-MMM-YYYY, for example 07-JUL-2010
#TIME        :             The time of day at which the spectrum was recorded, in 24-hour format
#OWNER       : PIXL Flight Model       (PIXL will use this to indicate which instrument took the data.)
#NPOINTS     : 4096     Number of data points in the spectrum (This can be zero for configuration only files)
#NCOLUMNS    : 2     Number of data columns in the spectrum (This can be zero for configuration only files)
#XUNITS      : eV
#YUNITS      : COUNTS
#DATATYPE    : YY
#XPERCHAN    : 7.862, 7.881   eV per channel (separate by commas if more than one detector)
#OFFSET      : 18.5, -22.4         eV of first channel  (separate by commas if more than one detector
#SIGNALTYPE  : XRF
#YP_TEMP     : 1.177
#LIVETIME    : 8.83862, 8.80876   seconds (separate by commas if more than one detector)
#REALTIME    : 10, 10.0   seconds (separate by commas if more than one detector)
#SPECTRUM    : start of spectrum data
0, 0
0, 0
0, 0
0, 0
0, 0
0, 0
0, 0
0, 0
3, 4
5, 7
0, 6
11, 16
14, 10
25, 30
43, 57
106, 122
463, 578
116, 123
27, 27
21, 26
66, 76
305, 338
111, 128
64, 66
203, 266
92, 93
66, 74
32, 33
8, 14
6, 12
25, 28
15, 23
14, 24
192, 284
331, 376
52, 69
32, 50
44, 47
11, 10
9, 10
14, 26
59, 54
30, 37
10, 19
11, 17
22, 22
12, 19
12, 14
12, 17
21, 28
10, 31
7, 9
9, 12
21, 49
50, 56
26, 23
25, 30
350, 484
1520, 1859
953, 1024
104, 90
17, 11
19, 24
71, 110
197, 300
140, 146
19, 13
4, 5
12, 15
9, 6
1, 7
4, 10
7, 2
4, 7
3, 12
12, 8
3, 7
5, 7
13, 5
11, 14
10, 5
6, 17
1, 8
8, 0
7, 9
6, 8
4, 4
9, 5
8, 3
8, 6
4, 1
6, 5
8, 6
6, 3
2, 3
3, 4
2, 5
4, 1
1, 4
4, 0
5, 1
3, 4
2, 2
5, 2
3, 2
2, 5
2, 3
2, 3
3, 1
3, 3
1, 2
4, 2
1, 2
0, 3
3, 2
2, 1
2, 4
2, 3
1, 0
1, 4
4, 3
1, 2
1, 1
0, 1
3, 1
1, 0
1, 1
0, 3
0, 1
1, 0
0, 1
2, 1
1, 0
0, 1
0, 0
1, 2
0, 0
0, 1
1, 0
0, 1
0, 0
1, 1
2, 2
0, 0
0, 0
0, 0
0, 0
0, 0
2, 2
0, 0
0, 0
1, 0
0, 0
0, 0
0, 2
1, 0
0, 0
0, 0
0, 0
0, 0
1, 0
0, 1
0, 1
0, 0
0, 0
1, 0
1, 0
0, 0
0, 0
0, 1
0, 0
0, 0
0, 0
0, 0
0, 0
0, 0
0, 0
0, 0
1, 1
0, 0
0, 0
0, 0
0, 0
0, 0
0, 0
0, 0
0, 0
0, 1
1, 0
0, 0
0, 0
0, 0
0, 0
0, 0
0, 0
0, 0
0, 0
0, 0
0, 0
0, 1
0, 0
0, 0
0, 0
0, 0
0, 1
0, 0
0, 0
0, 0
0, 0
0, 0
0, 0
0, 0
0, 0
0, 0
0, 0
0, 0
0, 0
0, 0
0, 0
0, 0
0, 0
0, 0
0, 0
0, 0
0, 0
0, 0
0, 0
0, 0
0, 0
0, 0
0, 0
0, 0
0, 0
0, 0
0, 0
0, 0
0, 0
0, 0
0, 0
0, 0
0, 0
0, 0
0, 0
0, 0
0, 0
0, 0
0, 0
0, 0
0, 0
0, 0
0, 0
0, 0
0, 0
0, 0
0, 0
0, 0
0, 0
0, 0
0, 0
0, 0
0, 0
0, 0
0, 0
0, 0
0, 0
0, 0
0, 0
0, 0
0, 0
0, 0
0, 0
0, 0
0, 0
0, 0
0, 0
0, 0
0, 0
0, 0
0, 0
0, 0
0, 0
0, 0
0, 0
0, 0
0, 0
0, 0
0, 0
0, 0
0, 0
0, 0
0, 0
0, 0
0, 0
0, 0
#ENDOFDATA     end of spectrum data

File: ps__0567_0717304816_000rfs_shot_267.msa
#FORMAT      : EMSA/MAS spectral data file
#VERSION     : TC202v2.0 PIXL
#TITLE       : Novarupta (sol567) subset1
#DATE        : 02-11-2024      Date in the format DD-MMM-YYYY, for example 07-JUL-2010
#TIME        :             The time of day at which the spectrum was recorded, in 24-hour format
#OWNER       : PIXL Flight Model       (PIXL will use this to indicate which instrument took the data.)
#NPOINTS     : 4096     Number of data points in the spectrum (This can be zero for configuration only files)
#NCOLUMNS    : 2     Number of data columns in the spectrum (This can be zero for configuration only files)
#XUNITS      : eV
#YUNITS      : COUNTS
#DATATYPE    : YY
#XPERCHAN    : 7.862, 7.881   eV per channel (separate by commas if more than one detector)
#OFFSET      : 18.5, -22.4         eV of first channel  (separate by commas if more than one detector
#SIGNALTYPE  : XRF
#YP_TEMP     : 1.369
#LIVETIME    : 8.82957, 8.81605   seconds (separate by commas if more than one detector)
#REALTIME    : 10, 10.0   seconds (separate by commas if more than one detector)
#SPECTRUM    : start of spectrum data
0, 0
0, 0
0, 0
0, 0
0, 0
0, 0
0, 0
0, 0
5, 5
2, 1
1, 4
8, 15
13, 5
24, 33
39, 47
85, 133
465, 580
131, 113
31, 42
22, 30
64, 61
309, 397
132, 130
72, 74
204, 269
117, 128
54, 65
32, 42
13, 7
7, 10
24, 34
10, 23
23, 23
200, 253
295, 373
48, 60
52, 61
66, 62
19, 19
9, 10
15, 25
55, 68
29, 40
17, 16
13, 7
15, 20
14, 14
11, 20
13, 16
30, 32
21, 26
15, 13
13, 19
31, 36
44, 36
20, 24
25, 40
331, 480
1489, 1878
1089, 1090
125, 94
12, 15
26, 26
78, 103
253, 301
151, 133
39, 23
11, 7
11, 8
6, 11
2, 5
6, 8
10, 8
4, 10
7, 8
8, 2
5, 10
7, 14
11, 14
6, 7
8, 15
5, 5
6, 2
3, 8
3, 6
3, 5
2, 7
2, 3
6, 3
7, 3
4, 2
5, 5
3, 11
2, 6
6, 2
2, 4
1, 4
3, 2
3, 15
1, 1
0, 0
4, 2
4, 7
3, 5
2, 2
3, 2
3, 4
0, 0
4, 4
1, 3
1, 5
3, 0
0, 4
7, 3
1, 2
3, 1
3, 4
1, 2
3, 1
0, 2
3, 3
1, 4
2, 5
1, 1
3, 0
0, 2
1, 0
1, 0
0, 3
0, 1
2, 1
1, 0
1, 0
0, 0
1, 0
1, 1
0, 1
0, 1
1, 0
0, 0
0, 0
0, 1
1, 0
0, 2
2, 0
1, 0
1, 1
0, 1
0, 0
0, 0
0, 0
0, 2
0, 0
0, 0
0, 0
0, 1
1, 0
0, 0
0, 1
1, 0
0, 0
0, 0
0, 0
0, 2
0, 1
0, 1
0, 0
0, 0
0, 1
1, 0
0, 0
0, 1
1, 0
1, 0
0, 0
0, 0
0, 0
0, 0
0, 0
0, 0
0, 0
0, 2
0, 1
0, 1
0, 0
0, 0
0, 0
0, 0
0, 0
0, 0
0, 0
0, 0
0, 0
0, 0
0, 0
0, 0
0, 0
0, 0
0, 0
0, 0
0, 0
0, 0
0, 0
0, 0
0, 0
0, 0
0, 0
0, 0
0, 0
0, 0
0, 0
0, 0
0, 0
0, 0
0, 0
0, 0
0, 0
0, 0
0, 0
0, 0
0, 0
0, 0
0, 0
0, 0
0, 0
0, 0
0, 0
0, 0
0, 0
0, 0
0, 0
0, 0
0, 0
0, 0
0, 0
0, 0
0, 0
0, 0
0, 0
0, 0
0, 0
0, 0
0, 0
0, 0
0, 0
0, 0
0, 0
0, 0
0, 0
0, 0
0, 0
0, 0
0, 0
0, 0
0, 0
0, 0
0, 0
0, 0
0, 0
0, 0
0, 0
0, 0
0, 0
0, 0
0, 0
0, 0
0, 0
0, 0
0, 0
0, 0
0, 0
0, 0
0, 0
0, 0
0, 0
0, 0
0, 0
0, 0
0, 0
0, 0
0, 0
0, 0
0, 0
0, 0
0, 0
0, 0
0, 0
0, 0
0, 0
0, 0
0, 0
0, 0
0, 0
0, 0
#ENDOFDATA     end of spectrum data

File: ps__0567_0717304816_000rfs_shot_268.msa
#FORMAT      : EMSA/MAS spectral data file
#VERSION     : TC202v2.0 PIXL
#TITLE       : Novarupta (sol567) subset1
#DATE        : 02-11-2024      Date in the format DD-MMM-YYYY, for example 07-JUL-2010
#TIME        :             The time of day at which the spectrum was recorded, in 24-hour format
#OWNER       : PIXL Flight Model       (PIXL will use this to indicate which instrument took the data.)
#NPOINTS     : 4096     Number of data points in the spectrum (This can be zero for configuration only files)
#NCOLUMNS    : 2     Number of data columns in the spectrum (This can be zero for configuration only files)
#XUNITS      : eV
#YUNITS      : COUNTS
#DATATYPE    : YY
#XPERCHAN    : 7.862, 7.881   eV per channel (separate by commas if more than one detector)
#OFFSET      : 18.5, -22.4         eV of first channel  (separate by commas if more than one detector
#SIGNALTYPE  : XRF
#YP_TEMP     : 1.113
#LIVETIME    : 8.83878, 8.80836   seconds (separate by commas if more than one detector)
#REALTIME    : 10, 10.0   seconds (separate by commas if more than one detector)
#SPECTRUM    : start of spectrum data
0, 0
0, 0
0, 0
0, 0
0, 0
0, 0
0, 0
1, 0
4, 3
2, 8
0, 3
5, 8
12, 12
21, 25
33, 51
89, 112
496, 560
128, 153
40, 31
22, 17
67, 67
313, 386
111, 138
79, 91
230, 225
128, 114
68, 69
28, 26
17, 6
9, 11
29, 41
21, 22
21, 23
205, 242
338, 382
59, 53
49, 45
37, 50
11, 17
9, 12
20, 17
62, 71
30, 40
17, 15
18, 11
24, 19
17, 14
16, 10
6, 19
24, 33
27, 15
9, 14
13, 21
34, 50
53, 50
30, 24
28, 33
322, 484
1578, 1710
1078, 1023
128, 87
14, 17
28, 25
73, 114
260, 272
162, 136
19, 12
7, 7
9, 17
14, 10
5, 5
7, 3
8, 1
4, 5
4, 11
9, 11
8, 6
5, 4
9, 12
10, 8
9, 7
3, 6
6, 6
5, 8
2, 9
7, 2
6, 6
2, 7
6, 4
4, 6
3, 1
9, 3
4, 7
7, 3
3, 5
2, 4
2, 1
7, 7
1, 3
4, 2
2, 2
4, 4
4, 3
6, 4
0, 2
0, 3
3, 1
3, 2
1, 1
3, 3
3, 4
1, 0
0, 2
4, 4
1, 1
1, 2
4, 4
0, 6
0, 0
1, 0
1, 5
1, 4
2, 0
1, 2
2, 0
0, 1
3, 1
0, 1
2, 0
0, 1
0, 1
0, 0
0, 1
0, 0
1, 0
3, 2
0, 0
0, 1
1, 1
0, 0
0, 0
2, 1
2, 0
1, 0
0, 1
0, 1
2, 0
0, 2
1, 3
0, 0
0, 3
0, 0
0, 1
0, 1
1, 0
0, 2
0, 0
0, 2
0, 0
0, 0
0, 0
2, 0
1, 0
0, 0
0, 1
0, 0
0, 0
0, 0
0, 1
2, 0
1, 0
1, 0
0, 0
0, 0
0, 0
0, 0
0, 0
0, 0
0, 0
1, 0
0, 0
0, 0
0, 0
0, 0
0, 0
1, 0
0, 0
0, 0
0, 0
0, 0
0, 0
0, 0
0, 0
0, 0
0, 0
0, 0
0, 0
0, 0
0, 0
0, 0
0, 0
0, 0
0, 0
1, 0
0, 1
0, 0
0, 0
0, 0
0, 0
0, 0
0, 0
0, 0
0, 0
0, 0
0, 0
0, 0
0, 0
0, 0
0, 0
0, 0
0, 0
0, 0
0, 0
0, 0
0, 0
0, 0
0, 0
0, 0
0, 0
0, 0
0, 0
0, 0
0, 0
0, 0
0, 0
0, 0
0, 0
0, 0
0, 0
0, 0
0, 0
0, 0
0, 0
0, 0
0, 0
0, 0
0, 0
0, 0
0, 0
0, 0
0, 0
0, 0
0, 0
0, 0
0, 0
0, 0
0, 0
0, 0
0, 0
0, 0
0, 0
0, 0
0, 0
0, 0
0, 0
0, 0
0, 0
0, 0
0, 0
0, 0
0, 0
0, 0
0, 0
0, 0
0, 0
0, 0
0, 0
0, 0
0, 0
0, 0
0, 0
0, 0
0, 0
0, 0
0, 0
0, 0
0, 0
0, 0
0, 0
0, 0
0, 0
0, 0
0, 0
0, 0
#ENDOFDATA     end of spectrum data

File: ps__0567_0717304816_000rfs_shot_270.msa
#FORMAT      : EMSA/MAS spectral data file
#VERSION     : TC202v2.0 PIXL
#TITLE       : Novarupta (sol567) subset1
#DATE        : 02-11-2024      Date in the format DD-MMM-YYYY, for example 07-JUL-2010
#TIME        :             The time of day at which the spectrum was recorded, in 24-hour format
#OWNER       : PIXL Flight Model       (PIXL will use this to indicate which instrument took the data.)
#NPOINTS     : 4096     Number of data points in the spectrum (This can be zero for configuration only files)
#NCOLUMNS    : 2     Number of data columns in the spectrum (This can be zero for configuration only files)
#XUNITS      : eV
#YUNITS      : COUNTS
#DATATYPE    : YY
#XPERCHAN    : 7.862, 7.881   eV per channel (separate by commas if more than one detector)
#OFFSET      : 18.5, -22.4         eV of first channel  (separate by commas if more than one detector
#SIGNALTYPE  : XRF
#YP_TEMP     : 1.113
#LIVETIME    : 8.83495, 8.81174   seconds (separate by commas if more than one detector)
#REALTIME    : 10, 10.0   seconds (separate by commas if more than one detector)
#SPECTRUM    : start of spectrum data
0, 0
0, 0
0, 0
0, 0
0, 0
0, 0
0, 0
2, 1
2, 4
5, 2
5, 2
5, 8
14, 19
26, 29
36, 49
102, 125
528, 541
140, 130
36, 35
16, 24
52, 54
316, 353
131, 122
77, 73
200, 223
92, 116
69, 72
19, 34
7, 10
9, 8
28, 34
16, 23
22, 18
222, 236
344, 400
74, 57
54, 46
38, 53
15, 10
6, 7
15, 23
54, 75
35, 28
9, 23
20, 14
15, 25
13, 17
8, 14
15, 14
25, 29
21, 31
13, 11
15, 12
37, 54
47, 61
23, 20
25, 38
339, 519
1619, 1744
1034, 965
104, 94
25, 14
11, 22
76, 94
254, 281
160, 141
31, 15
7, 14
11, 17
10, 8
8, 8
3, 3
7, 4
7, 5
4, 7
8, 7
3, 7
8, 6
14, 9
17, 12
10, 12
1, 6
2, 5
7, 4
4, 8
6, 6
7, 4
8, 4
13, 4
5, 5
5, 7
6, 12
4, 6
1, 5
2, 6
5, 4
2, 9
2, 2
7, 7
4, 4
3, 3
1, 3
3, 5
1, 3
1, 3
2, 4
0, 0
2, 4
5, 3
1, 3
0, 1
1, 2
0, 1
0, 4
2, 0
3, 3
1, 6
2, 3
2, 2
3, 2
1, 1
2, 4
3, 3
2, 0
0, 1
2, 0
1, 1
0, 4
2, 2
1, 3
0, 1
0, 1
1, 0
1, 0
0, 1
0, 2
2, 2
0, 0
0, 1
1, 1
0, 0
0, 2
1, 2
0, 1
0, 0
2, 1
0, 1
1, 0
0, 1
0, 0
1, 0
0, 0
0, 0
0, 0
0, 1
2, 1
0, 1
2, 1
0, 0
0, 0
0, 0
0, 0
0, 0
0, 1
0, 1
0, 1
1, 0
0, 0
0, 0
0, 1
0, 0
0, 1
1, 0
0, 0
0, 0
0, 0
0, 0
0, 0
0, 0
0, 0
0, 0
0, 0
0, 0
0, 0
1, 0
0, 0
0, 0
0, 0
0, 0
0, 0
0, 0
0, 0
1, 0
0, 0
0, 0
0, 0
0, 0
0, 0
0, 0
0, 0
0, 0
0, 0
0, 0
0, 0
0, 0
0, 0
0, 0
0, 0
0, 0
0, 0
0, 0
0, 0
0, 0
0, 0
0, 0
0, 0
0, 0
0, 0
0, 0
0, 0
0, 0
0, 0
0, 0
0, 0
0, 0
0, 0
0, 0
0, 0
0, 0
0, 0
0, 0
0, 0
0, 0
0, 0
0, 0
0, 0
0, 0
0, 0
0, 0
0, 0
0, 0
0, 0
0, 0
0, 0
0, 0
0, 0
0, 0
0, 0
0, 0
0, 0
0, 0
0, 0
0, 0
0, 0
0, 0
0, 0
0, 0
0, 0
0, 0
0, 0
0, 0
0, 0
0, 0
0, 0
0, 0
0, 0
0, 0
0, 0
0, 0
0, 0
0, 0
0, 0
0, 0
0, 0
0, 0
0, 0
0, 0
0, 0
0, 0
0, 0
0, 0
0, 0
0, 0
0, 0
0, 0
0, 0
0, 0
0, 0
0, 0
0, 0
0, 0
0, 0
0, 0
0, 0
#ENDOFDATA     end of spectrum data

File: ps__0567_0717304816_000rfs_shot_271.msa
#FORMAT      : EMSA/MAS spectral data file
#VERSION     : TC202v2.0 PIXL
#TITLE       : Novarupta (sol567) subset1
#DATE        : 02-11-2024      Date in the format DD-MMM-YYYY, for example 07-JUL-2010
#TIME        :             The time of day at which the spectrum was recorded, in 24-hour format
#OWNER       : PIXL Flight Model       (PIXL will use this to indicate which instrument took the data.)
#NPOINTS     : 4096     Number of data points in the spectrum (This can be zero for configuration only files)
#NCOLUMNS    : 2     Number of data columns in the spectrum (This can be zero for configuration only files)
#XUNITS      : eV
#YUNITS      : COUNTS
#DATATYPE    : YY
#XPERCHAN    : 7.862, 7.881   eV per channel (separate by commas if more than one detector)
#OFFSET      : 18.5, -22.4         eV of first channel  (separate by commas if more than one detector
#SIGNALTYPE  : XRF
#YP_TEMP     : 1.498
#LIVETIME    : 8.81799, 8.81152   seconds (separate by commas if more than one detector)
#REALTIME    : 10, 10.0   seconds (separate by commas if more than one detector)
#SPECTRUM    : start of spectrum data
0, 0
0, 0
0, 0
0, 0
0, 0
0, 0
0, 1
0, 1
2, 1
3, 1
1, 6
11, 11
8, 13
19, 28
46, 53
131, 131
503, 556
120, 110
28, 36
25, 14
64, 75
291, 343
135, 139
75, 88
188, 263
118, 124
66, 74
27, 33
3, 12
7, 11
30, 29
23, 23
14, 17
209, 233
301, 369
57, 66
44, 45
57, 59
12, 10
5, 14
18, 29
53, 70
40, 40
15, 18
11, 11
19, 13
15, 18
9, 19
11, 17
29, 34
21, 19
17, 14
15, 18
31, 40
46, 49
20, 31
30, 32
350, 504
1607, 1862
997, 996
108, 109
17, 22
17, 28
90, 124
240, 265
163, 174
22, 14
7, 14
12, 16
10, 5
4, 6
5, 6
5, 6
7, 11
5, 5
13, 7
6, 5
7, 7
11, 10
11, 13
3, 9
7, 6
2, 8
6, 7
5, 3
4, 6
8, 7
2, 3
3, 3
6, 3
5, 1
6, 5
8, 2
5, 3
2, 5
2, 4
3, 3
7, 5
0, 5
4, 2
2, 2
2, 3
1, 0
4, 6
5, 3
3, 5
4, 4
4, 4
7, 1
2, 3
1, 0
4, 2
0, 2
3, 0
1, 0
3, 4
3, 5
0, 1
0, 4
2, 2
0, 1
2, 1
1, 2
0, 0
0, 1
1, 4
3, 1
0, 1
1, 0
1, 3
0, 0
1, 0
2, 0
1, 1
1, 3
1, 1
1, 1
0, 2
2, 0
3, 0
2, 2
0, 2
0, 0
0, 0
0, 0
0, 0
0, 1
1, 0
0, 0
0, 0
0, 1
1, 1
0, 4
2, 0
0, 0
0, 0
0, 0
2, 0
0, 0
0, 0
1, 0
0, 0
0, 0
0, 0
2, 0
0, 1
0, 0
0, 0
0, 1
0, 1
0, 1
0, 0
2, 0
1, 0
0, 0
0, 0
0, 0
0, 0
0, 1
0, 0
0, 0
0, 1
0, 0
0, 0
0, 0
0, 0
0, 0
0, 0
0, 0
0, 0
0, 0
0, 0
0, 0
1, 0
0, 0
0, 0
0, 0
1, 0
0, 0
0, 0
0, 0
0, 0
0, 0
0, 0
0, 0
0, 0
0, 0
0, 0
0, 1
0, 0
0, 0
0, 0
0, 0
0, 0
0, 0
0, 0
0, 0
0, 0
0, 0
0, 0
0, 0
0, 0
0, 0
0, 0
0, 0
0, 0
0, 0
0, 0
0, 0
0, 0
0, 0
0, 0
0, 0
0, 0
0, 0
0, 0
0, 0
0, 0
0, 0
0, 0
0, 0
0, 0
0, 0
0, 0
0, 0
0, 0
0, 0
0, 0
0, 0
0, 0
0, 0
0, 0
0, 0
0, 0
0, 0
0, 0
0, 0
0, 0
0, 0
0, 0
0, 0
0, 0
0, 0
0, 0
0, 0
0, 0
0, 0
0, 0
0, 0
0, 0
0, 0
0, 0
0, 0
0, 0
0, 0
0, 0
0, 0
0, 0
0, 0
0, 0
0, 0
0, 0
0, 0
0, 0
0, 0
0, 0
0, 0
0, 0
0, 0
0, 0
0, 0
0, 0
0, 0
0, 0
#ENDOFDATA     end of spectrum data

File: ps__0567_0717304816_000rfs_shot_273.msa
#FORMAT      : EMSA/MAS spectral data file
#VERSION     : TC202v2.0 PIXL
#TITLE       : Novarupta (sol567) subset1
#DATE        : 02-11-2024      Date in the format DD-MMM-YYYY, for example 07-JUL-2010
#TIME        :             The time of day at which the spectrum was recorded, in 24-hour format
#OWNER       : PIXL Flight Model       (PIXL will use this to indicate which instrument took the data.)
#NPOINTS     : 4096     Number of data points in the spectrum (This can be zero for configuration only files)
#NCOLUMNS    : 2     Number of data columns in the spectrum (This can be zero for configuration only files)
#XUNITS      : eV
#YUNITS      : COUNTS
#DATATYPE    : YY
#XPERCHAN    : 7.862, 7.881   eV per channel (separate by commas if more than one detector)
#OFFSET      : 18.5, -22.4         eV of first channel  (separate by commas if more than one detector
#SIGNALTYPE  : XRF
#YP_TEMP     : 1.337
#LIVETIME    : 8.82988, 8.81469   seconds (separate by commas if more than one detector)
#REALTIME    : 10, 10.0   seconds (separate by commas if more than one detector)
#SPECTRUM    : start of spectrum data
0, 0
0, 0
0, 0
0, 0
0, 0
0, 0
0, 0
0, 0
1, 4
3, 4
1, 2
10, 11
18, 14
21, 24
41, 35
97, 103
494, 530
128, 122
21, 40
31, 23
60, 62
294, 350
115, 126
81, 78
252, 224
108, 113
71, 65
26, 31
10, 12
6, 11
42, 42
18, 19
17, 28
198, 254
354, 360
53, 56
44, 48
53, 66
19, 16
12, 9
20, 21
77, 88
42, 29
16, 16
11, 12
14, 24
6, 4
7, 7
15, 21
34, 23
19, 22
8, 11
13, 16
29, 36
55, 42
18, 16
29, 31
413, 488
1575, 1827
1092, 986
126, 122
14, 11
14, 20
73, 111
227, 312
143, 147
18, 21
3, 11
10, 16
12, 13
7, 4
5, 9
10, 4
4, 6
7, 10
5, 14
4, 4
12, 7
5, 12
11, 13
4, 9
4, 7
5, 5
3, 6
10, 9
6, 6
4, 6
4, 6
6, 5
6, 8
11, 5
2, 6
1, 7
7, 3
4, 9
5, 7
5, 8
0, 5
4, 6
4, 2
2, 3
5, 4
2, 1
3, 0
2, 5
5, 1
2, 4
3, 5
2, 3
5, 2
1, 2
1, 6
6, 3
2, 3
0, 3
5, 2
4, 4
5, 2
1, 3
1, 0
1, 1
1, 2
0, 2
1, 1
5, 1
1, 0
2, 2
1, 0
3, 1
2, 0
2, 1
0, 3
0, 1
2, 2
3, 0
1, 0
0, 2
2, 1
1, 1
1, 1
2, 2
1, 1
0, 0
1, 1
1, 0
1, 1
1, 0
1, 0
0, 0
0, 0
0, 0
0, 0
0, 0
1, 2
2, 0
1, 2
0, 0
0, 0
1, 0
1, 0
0, 0
0, 0
0, 0
0, 0
0, 0
1, 0
1, 0
0, 0
0, 0
1, 1
0, 0
0, 0
0, 0
0, 0
0, 0
0, 0
0, 0
1, 0
0, 0
1, 0
0, 0
0, 0
0, 0
0, 0
0, 0
1, 1
0, 0
0, 0
0, 0
0, 0
0, 0
0, 0
0, 0
0, 0
0, 0
0, 0
0, 0
0, 1
0, 0
0, 0
0, 0
1, 0
0, 0
0, 0
0, 0
0, 0
0, 0
0, 0
0, 0
0, 0
0, 0
0, 0
0, 0
0, 0
0, 0
0, 1
0, 0
0, 0
0, 0
0, 0
0, 0
0, 0
0, 0
0, 0
0, 0
0, 0
0, 0
0, 0
0, 0
0, 0
0, 0
0, 0
0, 0
0, 0
0, 0
0, 0
0, 0
0, 0
0, 0
0, 0
0, 0
0, 0
0, 0
0, 0
0, 0
0, 0
0, 0
0, 0
0, 0
0, 0
0, 0
0, 0
0, 0
0, 0
0, 0
0, 0
0, 0
0, 0
0, 0
0, 0
0, 0
0, 0
0, 0
0, 0
0, 0
0, 0
0, 0
0, 0
0, 0
0, 0
0, 0
0, 0
0, 0
0, 0
0, 0
0, 0
0, 0
0, 0
0, 0
0, 0
0, 0
0, 0
0, 0
0, 0
0, 0
0, 0
0, 0
0, 0
0, 0
0, 0
0, 0
0, 0
0, 0
0, 0
#ENDOFDATA     end of spectrum data