Folder: data-repository/host_upload/02-11-2024/rqc/uplink1 (part 7)

File: ps__0567_0717304816_000rfs_shot_103.msa
#FORMAT      : EMSA/MAS spectral data file
#VERSION     : TC202v2.0 PIXL
#TITLE       : Novarupta (sol567) subset1
#DATE        : 02-11-2024      Date in the format DD-MMM-YYYY, for example 07-JUL-2010
#TIME        :             The time of day at which the spectrum was recorded, in 24-hour format
#OWNER       : PIXL Flight Model       (PIXL will use this to indicate which instrument took the data.)
#NPOINTS     : 4096     Number of data points in the spectrum (This can be zero for configuration only files)
#NCOLUMNS    : 2     Number of data columns in the spectrum (This can be zero for configuration only files)
#XUNITS      : eV
#YUNITS      : COUNTS
#DATATYPE    : YY
#XPERCHAN    : 7.862, 7.881   eV per channel (separate by commas if more than one detector)
#OFFSET      : 18.5, -22.4         eV of first channel  (separate by commas if more than one detector
#SIGNALTYPE  : XRF
#YP_TEMP     : -1.004
#LIVETIME    : 8.83974, 8.63652   seconds (separate by commas if more than one detector)
#REALTIME    : 10, 10.0   seconds (separate by commas if more than one detector)
#SPECTRUM    : start of spectrum data
0, 0
0, 0
0, 0
0, 0
0, 0
0, 0
0, 0
0, 0
4, 8
4, 4
7, 3
6, 7
10, 12
22, 13
42, 41
125, 127
516, 553
107, 123
43, 36
13, 23
53, 57
268, 326
103, 120
65, 75
192, 245
126, 123
70, 71
26, 34
12, 10
8, 11
26, 22
19, 20
11, 27
193, 241
308, 286
51, 54
46, 40
36, 64
12, 13
11, 5
22, 26
61, 61
42, 42
11, 12
16, 14
10, 18
4, 16
13, 2
14, 12
20, 41
18, 19
13, 16
23, 16
30, 36
46, 47
25, 20
31, 36
380, 625
1649, 1829
951, 824
105, 83
8, 17
20, 31
71, 102
255, 250
158, 137
14, 16
5, 11
8, 10
8, 10
7, 2
6, 6
5, 9
4, 3
12, 15
10, 8
6, 4
6, 7
6, 11
11, 10
6, 6
6, 10
5, 5
4, 3
7, 5
3, 8
9, 5
4, 4
6, 6
2, 3
2, 2
3, 2
4, 7
4, 5
6, 6
2, 8
4, 4
8, 1
5, 2
2, 3
5, 5
3, 2
5, 2
2, 2
2, 4
2, 5
1, 1
0, 4
2, 2
4, 2
2, 1
3, 4
2, 3
1, 5
0, 2
5, 3
7, 4
3, 1
1, 0
1, 3
2, 1
2, 0
2, 1
1, 1
1, 2
2, 0
0, 0
0, 0
0, 1
0, 0
1, 1
1, 2
2, 2
0, 1
0, 1
3, 2
2, 1
0, 3
0, 1
1, 0
0, 2
2, 0
1, 0
1, 2
1, 2
0, 0
0, 0
0, 0
0, 0
1, 0
2, 0
0, 1
0, 0
0, 0
0, 0
0, 0
1, 0
0, 0
0, 0
0, 0
1, 2
0, 0
0, 0
0, 0
0, 0
0, 1
0, 0
1, 0
1, 0
0, 1
0, 0
0, 1
0, 0
0, 0
0, 1
0, 0
0, 1
0, 0
0, 0
0, 1
0, 0
0, 0
0, 0
0, 0
0, 0
0, 0
0, 0
0, 0
0, 0
0, 0
0, 0
0, 0
0, 0
0, 0
0, 0
0, 0
0, 0
0, 0
0, 0
0, 0
0, 0
0, 0
0, 0
0, 0
0, 0
0, 0
0, 0
0, 0
0, 0
1, 0
0, 0
0, 0
0, 0
0, 0
0, 0
0, 0
0, 0
0, 0
0, 0
0, 0
0, 0
0, 0
0, 0
0, 0
0, 0
0, 0
0, 0
0, 0
0, 0
0, 0
0, 0
0, 0
0, 0
0, 0
0, 0
0, 0
0, 0
0, 0
0, 0
0, 0
0, 0
0, 0
0, 0
0, 0
0, 0
0, 0
0, 0
0, 0
0, 0
0, 0
0, 0
0, 0
0, 0
0, 0
0, 0
0, 0
0, 0
0, 0
0, 0
0, 0
0, 0
0, 0
0, 0
0, 0
0, 0
0, 0
0, 0
0, 0
0, 0
0, 0
0, 0
0, 0
0, 0
0, 0
0, 0
0, 0
0, 0
0, 0
0, 0
0, 0
0, 0
0, 0
0, 0
0, 0
0, 0
0, 0
0, 0
0, 0
0, 0
0, 0
0, 0
0, 0
0, 0
0, 0
#ENDOFDATA     end of spectrum data

File: ps__0567_0717304816_000rfs_shot_104.msa
#FORMAT      : EMSA/MAS spectral data file
#VERSION     : TC202v2.0 PIXL
#TITLE       : Novarupta (sol567) subset1
#DATE        : 02-11-2024      Date in the format DD-MMM-YYYY, for example 07-JUL-2010
#TIME        :             The time of day at which the spectrum was recorded, in 24-hour format
#OWNER       : PIXL Flight Model       (PIXL will use this to indicate which instrument took the data.)
#NPOINTS     : 4096     Number of data points in the spectrum (This can be zero for configuration only files)
#NCOLUMNS    : 2     Number of data columns in the spectrum (This can be zero for configuration only files)
#XUNITS      : eV
#YUNITS      : COUNTS
#DATATYPE    : YY
#XPERCHAN    : 7.862, 7.881   eV per channel (separate by commas if more than one detector)
#OFFSET      : 18.5, -22.4         eV of first channel  (separate by commas if more than one detector
#SIGNALTYPE  : XRF
#YP_TEMP     : -0.94
#LIVETIME    : 8.84433, 8.82757   seconds (separate by commas if more than one detector)
#REALTIME    : 10, 10.0   seconds (separate by commas if more than one detector)
#SPECTRUM    : start of spectrum data
0, 0
0, 0
0, 0
0, 0
0, 0
0, 0
0, 0
0, 1
2, 3
1, 5
2, 5
10, 3
15, 13
16, 28
36, 45
96, 122
475, 488
100, 118
22, 21
36, 25
48, 55
243, 304
109, 108
78, 91
211, 244
99, 118
59, 75
24, 33
9, 8
10, 10
21, 28
15, 11
25, 30
191, 211
315, 333
48, 41
52, 56
55, 41
9, 13
8, 11
20, 25
56, 65
30, 33
13, 12
9, 17
16, 26
12, 16
13, 15
16, 21
17, 23
24, 24
10, 19
13, 15
28, 35
35, 50
16, 22
35, 44
408, 535
1590, 1814
939, 932
104, 81
13, 16
26, 23
97, 108
263, 287
144, 138
16, 15
7, 9
11, 10
8, 8
9, 5
4, 3
7, 7
11, 5
6, 6
9, 6
7, 8
6, 10
14, 10
12, 9
8, 7
4, 9
2, 6
3, 8
4, 5
4, 11
5, 4
4, 4
7, 7
7, 1
4, 4
7, 0
5, 4
2, 3
4, 3
2, 2
5, 4
2, 3
2, 4
1, 3
2, 4
1, 2
1, 2
2, 7
3, 6
4, 2
2, 4
4, 2
6, 2
1, 4
1, 0
0, 4
2, 0
1, 2
2, 0
5, 3
2, 5
3, 4
2, 0
0, 1
0, 0
2, 1
2, 2
1, 1
4, 1
2, 3
2, 1
0, 1
1, 0
1, 1
0, 2
2, 1
0, 0
1, 0
1, 0
0, 2
1, 0
1, 1
0, 1
1, 1
0, 1
0, 1
0, 1
0, 0
1, 0
0, 0
0, 0
0, 0
0, 1
0, 0
0, 1
0, 0
0, 0
1, 1
1, 0
0, 1
2, 1
0, 0
0, 0
0, 0
0, 0
1, 1
0, 0
0, 0
0, 0
0, 2
0, 0
0, 0
0, 0
0, 0
0, 0
0, 0
0, 0
0, 0
0, 0
0, 0
0, 0
0, 0
0, 0
0, 0
0, 1
1, 0
0, 0
0, 0
0, 0
0, 0
0, 0
0, 0
0, 0
0, 0
0, 0
0, 0
0, 1
0, 0
0, 0
0, 0
1, 0
0, 0
0, 1
0, 0
0, 0
0, 0
0, 0
0, 0
0, 0
0, 0
0, 0
0, 0
0, 0
0, 0
0, 0
0, 0
0, 0
0, 0
0, 0
0, 0
0, 0
0, 1
0, 0
0, 0
0, 0
0, 0
0, 0
0, 0
0, 0
0, 0
0, 0
0, 0
0, 0
0, 0
0, 0
0, 0
0, 0
0, 0
0, 0
0, 0
0, 0
0, 0
0, 0
0, 0
0, 0
0, 0
0, 0
0, 0
0, 0
0, 0
0, 0
0, 0
0, 0
0, 0
0, 0
0, 0
0, 0
0, 0
0, 0
0, 0
0, 0
0, 0
0, 0
0, 0
0, 0
0, 0
0, 0
0, 0
0, 0
0, 0
0, 0
0, 0
0, 0
0, 0
0, 0
0, 0
0, 0
0, 0
0, 0
0, 0
0, 0
0, 0
0, 0
0, 0
0, 0
0, 0
0, 0
0, 0
0, 0
0, 0
0, 0
0, 0
0, 0
0, 0
0, 0
0, 0
0, 0
0, 0
#ENDOFDATA     end of spectrum data

File: ps__0567_0717304816_000rfs_shot_106.msa
#FORMAT      : EMSA/MAS spectral data file
#VERSION     : TC202v2.0 PIXL
#TITLE       : Novarupta (sol567) subset1
#DATE        : 02-11-2024      Date in the format DD-MMM-YYYY, for example 07-JUL-2010
#TIME        :             The time of day at which the spectrum was recorded, in 24-hour format
#OWNER       : PIXL Flight Model       (PIXL will use this to indicate which instrument took the data.)
#NPOINTS     : 4096     Number of data points in the spectrum (This can be zero for configuration only files)
#NCOLUMNS    : 2     Number of data columns in the spectrum (This can be zero for configuration only files)
#XUNITS      : eV
#YUNITS      : COUNTS
#DATATYPE    : YY
#XPERCHAN    : 7.862, 7.881   eV per channel (separate by commas if more than one detector)
#OFFSET      : 18.5, -22.4         eV of first channel  (separate by commas if more than one detector
#SIGNALTYPE  : XRF
#YP_TEMP     : -0.876
#LIVETIME    : 8.83312, 8.81987   seconds (separate by commas if more than one detector)
#REALTIME    : 10, 10.0   seconds (separate by commas if more than one detector)
#SPECTRUM    : start of spectrum data
0, 0
0, 0
0, 0
0, 0
0, 0
0, 0
0, 0
1, 0
1, 5
4, 2
2, 1
14, 10
10, 14
20, 28
43, 42
120, 134
423, 498
124, 113
34, 25
16, 25
49, 59
259, 242
115, 121
72, 81
224, 244
118, 112
72, 79
24, 26
11, 12
11, 13
17, 23
17, 16
26, 18
211, 265
306, 299
50, 40
40, 40
34, 53
17, 7
15, 10
12, 24
56, 56
38, 36
13, 10
11, 17
21, 18
14, 13
18, 12
13, 13
23, 24
27, 19
11, 18
10, 21
32, 30
52, 60
26, 21
35, 39
425, 499
1522, 1795
1016, 900
128, 76
22, 12
22, 25
98, 122
248, 294
139, 152
20, 24
3, 10
10, 11
6, 3
5, 8
1, 5
5, 6
3, 11
2, 7
8, 5
4, 7
6, 9
9, 12
4, 11
5, 10
4, 4
6, 5
5, 7
5, 8
4, 8
4, 5
4, 6
6, 1
4, 7
3, 3
5, 9
5, 3
4, 4
2, 4
2, 1
1, 5
7, 4
2, 3
1, 3
3, 1
1, 3
6, 1
3, 2
3, 2
3, 0
2, 1
1, 5
6, 1
2, 1
0, 0
1, 5
1, 1
0, 2
3, 1
1, 7
4, 3
5, 1
1, 1
3, 1
2, 1
3, 2
1, 3
3, 0
0, 2
0, 0
0, 1
1, 0
0, 2
1, 1
0, 4
0, 2
2, 1
0, 1
0, 2
0, 2
0, 3
0, 1
0, 1
0, 0
1, 1
0, 1
0, 1
0, 0
0, 0
1, 0
1, 1
0, 0
1, 1
1, 0
0, 0
0, 0
0, 1
1, 0
1, 1
0, 0
0, 1
0, 0
1, 0
0, 0
0, 1
0, 1
1, 0
0, 1
1, 0
0, 0
0, 0
0, 0
0, 0
0, 0
0, 1
0, 0
1, 0
0, 0
0, 0
0, 0
0, 0
1, 0
0, 1
0, 1
0, 0
1, 0
0, 0
0, 0
0, 0
0, 0
0, 0
1, 0
0, 0
0, 1
0, 0
0, 0
0, 0
0, 0
0, 0
0, 0
1, 0
0, 0
0, 0
0, 0
0, 0
0, 1
0, 0
0, 0
0, 0
0, 0
0, 0
0, 0
0, 0
0, 0
0, 0
0, 0
0, 0
0, 0
0, 0
0, 0
0, 0
0, 0
0, 0
0, 0
0, 0
0, 0
0, 0
0, 0
0, 0
1, 0
0, 0
0, 0
0, 0
0, 0
0, 0
0, 0
0, 0
0, 0
0, 0
0, 0
0, 0
0, 0
0, 0
0, 0
0, 0
0, 0
0, 0
0, 0
0, 0
0, 0
0, 0
0, 0
0, 0
0, 0
0, 0
0, 0
0, 0
0, 0
0, 0
0, 0
0, 0
0, 0
0, 0
0, 0
0, 0
0, 0
0, 0
0, 0
0, 0
0, 0
0, 0
0, 0
0, 0
0, 0
0, 0
0, 0
0, 0
0, 0
0, 0
0, 0
0, 0
0, 0
0, 0
0, 0
0, 0
0, 0
0, 0
0, 0
0, 0
0, 0
0, 0
0, 0
0, 0
0, 0
0, 0
0, 0
0, 0
0, 0
#ENDOFDATA     end of spectrum data

File: ps__0567_0717304816_000rfs_shot_107.msa
#FORMAT      : EMSA/MAS spectral data file
#VERSION     : TC202v2.0 PIXL
#TITLE       : Novarupta (sol567) subset1
#DATE        : 02-11-2024      Date in the format DD-MMM-YYYY, for example 07-JUL-2010
#TIME        :             The time of day at which the spectrum was recorded, in 24-hour format
#OWNER       : PIXL Flight Model       (PIXL will use this to indicate which instrument took the data.)
#NPOINTS     : 4096     Number of data points in the spectrum (This can be zero for configuration only files)
#NCOLUMNS    : 2     Number of data columns in the spectrum (This can be zero for configuration only files)
#XUNITS      : eV
#YUNITS      : COUNTS
#DATATYPE    : YY
#XPERCHAN    : 7.862, 7.881   eV per channel (separate by commas if more than one detector)
#OFFSET      : 18.5, -22.4         eV of first channel  (separate by commas if more than one detector
#SIGNALTYPE  : XRF
#YP_TEMP     : -0.683
#LIVETIME    : 8.836, 8.83232   seconds (separate by commas if more than one detector)
#REALTIME    : 10, 10.0   seconds (separate by commas if more than one detector)
#SPECTRUM    : start of spectrum data
0, 0
0, 0
0, 0
0, 0
0, 0
0, 0
0, 0
0, 0
3, 1
2, 2
3, 2
9, 7
11, 12
20, 23
50, 53
110, 150
474, 521
125, 101
34, 37
24, 24
76, 64
290, 351
124, 119
78, 72
230, 230
97, 117
77, 67
38, 23
9, 8
7, 12
22, 36
12, 14
16, 20
173, 213
324, 298
40, 48
30, 43
46, 36
7, 10
5, 7
17, 31
60, 76
37, 35
17, 12
9, 17
20, 23
10, 18
17, 9
20, 15
32, 26
23, 20
10, 7
9, 16
31, 40
36, 41
20, 23
37, 42
439, 509
1634, 1788
963, 911
103, 83
15, 13
22, 25
98, 122
257, 282
133, 119
22, 16
11, 7
18, 14
8, 6
4, 8
4, 9
3, 5
5, 5
10, 9
7, 11
3, 4
7, 8
6, 18
9, 11
5, 7
8, 3
6, 3
6, 7
3, 6
4, 2
5, 4
2, 6
2, 3
4, 2
7, 7
5, 7
3, 4
6, 4
3, 5
2, 3
3, 5
3, 2
3, 6
0, 1
1, 4
2, 1
3, 1
3, 6
3, 1
2, 2
3, 1
4, 5
1, 2
3, 4
1, 3
2, 2
3, 3
3, 2
0, 2
1, 2
4, 3
1, 0
1, 2
0, 1
0, 1
2, 0
2, 1
4, 3
0, 1
2, 0
1, 2
3, 0
1, 0
1, 3
1, 0
0, 0
1, 0
1, 0
0, 2
1, 0
2, 2
0, 1
1, 0
1, 0
0, 1
0, 1
0, 1
1, 1
2, 0
1, 1
0, 0
1, 1
1, 1
0, 0
1, 0
0, 1
0, 0
0, 1
1, 0
0, 2
0, 1
0, 0
0, 0
1, 0
0, 1
0, 0
0, 0
0, 0
0, 0
2, 1
0, 0
0, 0
1, 0
0, 0
0, 1
0, 0
0, 0
1, 1
0, 0
0, 1
0, 0
0, 0
0, 1
0, 0
0, 0
0, 0
1, 1
0, 0
0, 1
0, 0
0, 0
0, 0
0, 0
0, 1
0, 0
0, 0
0, 0
0, 0
0, 0
0, 0
0, 0
0, 0
0, 1
0, 0
1, 0
0, 0
0, 0
0, 0
0, 0
0, 0
0, 0
0, 0
0, 0
0, 0
0, 0
0, 0
0, 0
0, 0
0, 0
0, 0
0, 0
0, 0
0, 0
0, 0
0, 0
0, 0
0, 0
0, 0
0, 0
0, 0
0, 0
0, 0
0, 0
0, 0
0, 0
0, 0
0, 0
0, 0
0, 0
0, 0
0, 0
0, 0
0, 0
0, 0
0, 0
0, 0
0, 0
0, 0
0, 0
0, 0
0, 0
0, 0
0, 0
0, 0
0, 0
0, 0
0, 0
0, 0
0, 0
0, 0
0, 0
0, 0
0, 0
0, 0
0, 0
0, 0
0, 0
0, 0
0, 0
0, 0
0, 0
0, 0
0, 0
0, 0
0, 0
0, 0
0, 0
0, 0
0, 0
0, 0
0, 0
0, 0
0, 0
0, 0
0, 0
0, 0
0, 0
0, 0
0, 0
0, 0
0, 0
0, 0
0, 0
0, 0
0, 0
0, 0
0, 0
0, 0
#ENDOFDATA     end of spectrum data

File: ps__0567_0717304816_000rfs_shot_108.msa
#FORMAT      : EMSA/MAS spectral data file
#VERSION     : TC202v2.0 PIXL
#TITLE       : Novarupta (sol567) subset1
#DATE        : 02-11-2024      Date in the format DD-MMM-YYYY, for example 07-JUL-2010
#TIME        :             The time of day at which the spectrum was recorded, in 24-hour format
#OWNER       : PIXL Flight Model       (PIXL will use this to indicate which instrument took the data.)
#NPOINTS     : 4096     Number of data points in the spectrum (This can be zero for configuration only files)
#NCOLUMNS    : 2     Number of data columns in the spectrum (This can be zero for configuration only files)
#XUNITS      : eV
#YUNITS      : COUNTS
#DATATYPE    : YY
#XPERCHAN    : 7.862, 7.881   eV per channel (separate by commas if more than one detector)
#OFFSET      : 18.5, -22.4         eV of first channel  (separate by commas if more than one detector
#SIGNALTYPE  : XRF
#YP_TEMP     : -0.555
#LIVETIME    : 8.82644, 8.83153   seconds (separate by commas if more than one detector)
#REALTIME    : 10, 10.0   seconds (separate by commas if more than one detector)
#SPECTRUM    : start of spectrum data
0, 0
0, 0
0, 0
0, 0
0, 0
0, 0
0, 0
1, 0
3, 4
1, 1
3, 0
10, 5
13, 11
19, 21
35, 49
114, 119
483, 512
101, 115
30, 30
24, 23
62, 65
285, 307
104, 124
78, 66
224, 220
112, 108
76, 72
24, 23
6, 9
11, 14
24, 27
19, 23
18, 16
200, 232
281, 298
43, 40
47, 37
40, 47
19, 11
2, 11
21, 24
59, 72
34, 35
20, 20
20, 17
18, 21
15, 16
7, 9
13, 18
26, 25
21, 23
10, 12
15, 23
23, 49
50, 41
22, 18
34, 41
436, 544
1625, 1774
985, 916
107, 84
16, 21
13, 19
104, 127
260, 259
145, 110
17, 18
6, 6
11, 19
9, 13
5, 6
6, 7
3, 3
7, 9
8, 6
6, 9
4, 6
8, 11
15, 15
8, 15
5, 10
3, 5
10, 6
0, 5
4, 6
7, 11
3, 9
12, 7
5, 8
4, 6
5, 6
2, 7
4, 8
3, 5
5, 1
1, 7
2, 6
5, 4
2, 1
3, 3
0, 2
4, 0
0, 2
4, 6
1, 2
2, 3
2, 2
3, 4
1, 1
0, 2
1, 3
1, 4
2, 1
0, 1
3, 1
4, 4
0, 3
1, 0
0, 1
1, 2
1, 1
3, 5
2, 1
2, 1
1, 6
1, 0
2, 1
2, 1
3, 1
2, 0
1, 2
1, 0
0, 2
1, 0
1, 0
1, 2
0, 0
0, 1
1, 0
2, 0
0, 2
0, 3
0, 1
0, 1
1, 1
2, 0
0, 0
1, 0
0, 1
0, 0
0, 1
0, 0
0, 0
0, 0
0, 0
0, 1
0, 1
0, 0
1, 0
0, 1
0, 0
0, 0
0, 0
0, 0
0, 0
1, 0
0, 1
0, 1
0, 0
2, 0
0, 0
0, 0
0, 0
0, 0
0, 0
0, 0
0, 0
0, 0
1, 0
0, 0
1, 0
0, 0
1, 0
0, 0
0, 0
0, 0
0, 0
0, 0
1, 0
0, 0
0, 0
0, 0
0, 0
0, 0
0, 0
0, 0
0, 0
0, 0
0, 0
0, 0
0, 0
0, 0
0, 0
0, 0
0, 0
0, 0
0, 0
0, 0
0, 0
0, 0
0, 1
0, 0
0, 0
0, 0
0, 0
0, 0
0, 0
0, 0
0, 0
0, 0
0, 0
0, 0
0, 0
0, 0
0, 0
0, 0
0, 0
0, 0
0, 0
0, 0
0, 0
0, 0
0, 0
0, 0
0, 0
0, 0
0, 0
0, 0
0, 0
0, 0
0, 0
0, 0
0, 0
0, 0
0, 0
0, 0
0, 0
0, 0
0, 0
0, 0
0, 0
0, 0
0, 0
0, 0
0, 0
0, 0
0, 0
0, 0
0, 0
0, 0
0, 0
0, 0
0, 0
0, 0
0, 0
0, 0
0, 0
0, 0
0, 0
0, 0
0, 0
0, 0
0, 0
0, 0
0, 0
0, 0
0, 0
0, 0
0, 0
0, 0
0, 0
0, 0
0, 0
0, 0
0, 0
0, 0
0, 0
0, 0
0, 0
0, 0
0, 0
0, 0
0, 0
0, 0
#ENDOFDATA     end of spectrum data

File: ps__0567_0717304816_000rfs_shot_109.msa
#FORMAT      : EMSA/MAS spectral data file
#VERSION     : TC202v2.0 PIXL
#TITLE       : Novarupta (sol567) subset1
#DATE        : 02-11-2024      Date in the format DD-MMM-YYYY, for example 07-JUL-2010
#TIME        :             The time of day at which the spectrum was recorded, in 24-hour format
#OWNER       : PIXL Flight Model       (PIXL will use this to indicate which instrument took the data.)
#NPOINTS     : 4096     Number of data points in the spectrum (This can be zero for configuration only files)
#NCOLUMNS    : 2     Number of data columns in the spectrum (This can be zero for configuration only files)
#XUNITS      : eV
#YUNITS      : COUNTS
#DATATYPE    : YY
#XPERCHAN    : 7.862, 7.881   eV per channel (separate by commas if more than one detector)
#OFFSET      : 18.5, -22.4         eV of first channel  (separate by commas if more than one detector
#SIGNALTYPE  : XRF
#YP_TEMP     : -0.779
#LIVETIME    : 8.83552, 8.82876   seconds (separate by commas if more than one detector)
#REALTIME    : 10, 10.0   seconds (separate by commas if more than one detector)
#SPECTRUM    : start of spectrum data
0, 0
0, 0
0, 0
0, 0
0, 0
0, 0
0, 0
1, 0
2, 3
5, 3
4, 2
11, 9
11, 14
23, 30
46, 36
112, 126
474, 483
110, 108
27, 24
17, 11
56, 55
307, 318
112, 116
78, 72
253, 225
109, 110
62, 67
25, 29
11, 13
8, 6
23, 27
17, 16
17, 19
220, 234
315, 283
49, 50
43, 46
56, 49
15, 22
3, 7
23, 21
66, 56
41, 32
22, 16
14, 11
15, 19
16, 17
13, 11
15, 7
21, 25
14, 25
15, 13
4, 14
33, 34
43, 43
18, 15
33, 45
390, 499
1639, 1741
1017, 902
116, 83
21, 20
25, 18
108, 131
236, 257
141, 132
16, 19
15, 13
18, 20
8, 8
4, 6
6, 10
5, 8
3, 6
10, 11
8, 8
8, 6
5, 6
16, 10
13, 14
4, 8
3, 4
5, 3
8, 8
5, 4
4, 7
7, 4
3, 4
5, 9
1, 4
5, 5
1, 7
3, 2
6, 4
3, 3
3, 3
3, 2
2, 0
3, 2
6, 2
0, 1
1, 4
3, 4
1, 2
1, 2
2, 5
1, 3
1, 3
2, 3
2, 3
0, 2
2, 3
2, 1
1, 1
1, 1
2, 3
5, 3
1, 2
3, 1
2, 3
0, 1
0, 0
1, 1
1, 3
0, 1
0, 1
1, 1
3, 1
4, 1
2, 0
1, 1
0, 1
1, 2
1, 0
0, 0
0, 0
0, 1
0, 1
1, 0
0, 0
0, 0
0, 0
2, 0
0, 0
0, 0
0, 0
2, 0
1, 1
0, 0
1, 0
0, 1
0, 1
0, 0
0, 1
1, 0
1, 1
0, 0
1, 0
0, 0
0, 0
0, 0
2, 0
1, 0
0, 0
0, 0
0, 1
0, 1
0, 0
1, 1
0, 0
1, 1
0, 1
1, 0
0, 2
0, 0
0, 1
0, 0
1, 0
0, 0
0, 0
0, 0
0, 0
1, 0
0, 0
0, 0
0, 0
0, 0
0, 0
0, 0
0, 1
0, 0
0, 0
0, 0
0, 1
0, 0
0, 0
0, 0
1, 0
0, 0
0, 0
0, 0
0, 0
0, 0
0, 0
0, 0
0, 0
0, 0
0, 0
0, 0
0, 0
0, 0
0, 0
0, 0
0, 0
0, 0
0, 0
0, 0
0, 0
0, 1
0, 0
0, 0
0, 0
0, 0
0, 0
0, 0
0, 0
0, 0
0, 0
0, 0
0, 0
0, 0
0, 0
0, 0
0, 0
0, 0
0, 0
0, 0
0, 0
0, 0
0, 0
0, 0
0, 0
0, 0
0, 0
0, 0
0, 0
0, 0
0, 0
0, 0
0, 0
0, 0
0, 0
0, 0
0, 0
0, 0
0, 0
0, 0
0, 0
0, 0
0, 0
0, 0
0, 0
0, 0
0, 0
0, 0
0, 0
0, 0
0, 0
0, 0
0, 0
0, 0
0, 0
0, 0
0, 0
0, 0
0, 0
0, 0
0, 0
0, 0
0, 0
0, 0
0, 0
0, 0
0, 0
0, 0
0, 0
0, 0
0, 0
0, 0
0, 0
0, 0
0, 0
0, 0
0, 0
#ENDOFDATA     end of spectrum data

File: ps__0567_0717304816_000rfs_shot_110.msa
#FORMAT      : EMSA/MAS spectral data file
#VERSION     : TC202v2.0 PIXL
#TITLE       : Novarupta (sol567) subset1
#DATE        : 02-11-2024      Date in the format DD-MMM-YYYY, for example 07-JUL-2010
#TIME        :             The time of day at which the spectrum was recorded, in 24-hour format
#OWNER       : PIXL Flight Model       (PIXL will use this to indicate which instrument took the data.)
#NPOINTS     : 4096     Number of data points in the spectrum (This can be zero for configuration only files)
#NCOLUMNS    : 2     Number of data columns in the spectrum (This can be zero for configuration only files)
#XUNITS      : eV
#YUNITS      : COUNTS
#DATATYPE    : YY
#XPERCHAN    : 7.862, 7.881   eV per channel (separate by commas if more than one detector)
#OFFSET      : 18.5, -22.4         eV of first channel  (separate by commas if more than one detector
#SIGNALTYPE  : XRF
#YP_TEMP     : -0.651
#LIVETIME    : 8.84086, 8.82779   seconds (separate by commas if more than one detector)
#REALTIME    : 10, 10.0   seconds (separate by commas if more than one detector)
#SPECTRUM    : start of spectrum data
0, 0
0, 0
0, 0
0, 0
0, 0
0, 0
0, 0
1, 0
0, 3
5, 3
6, 5
12, 11
11, 15
27, 21
36, 45
101, 129
501, 516
124, 103
36, 25
20, 23
57, 74
272, 312
123, 111
79, 70
234, 219
111, 116
74, 74
39, 38
12, 10
17, 6
32, 26
20, 9
26, 20
209, 233
341, 304
59, 48
43, 41
54, 45
12, 13
11, 13
18, 20
65, 54
34, 25
10, 14
7, 17
18, 28
13, 11
8, 11
8, 17
32, 34
21, 21
10, 12
12, 19
34, 39
46, 36
25, 23
46, 43
437, 459
1676, 1714
970, 901
86, 91
24, 17
17, 31
107, 101
226, 271
146, 128
17, 15
9, 10
17, 10
9, 4
5, 6
5, 9
1, 4
5, 6
8, 7
9, 4
8, 13
6, 12
15, 4
9, 12
8, 9
9, 7
7, 7
2, 10
5, 6
4, 6
12, 8
5, 5
6, 4
5, 4
8, 5
4, 7
6, 2
3, 3
3, 5
2, 4
0, 1
0, 3
3, 5
0, 2
0, 2
6, 1
4, 1
2, 3
2, 0
2, 1
5, 1
0, 1
4, 2
2, 2
4, 1
1, 1
1, 1
2, 2
0, 1
1, 3
1, 2
3, 4
2, 1
0, 1
0, 0
2, 2
2, 3
1, 0
1, 1
1, 2
0, 0
0, 0
3, 1
2, 0
1, 0
0, 1
0, 0
0, 3
1, 2
0, 1
0, 0
1, 0
0, 1
2, 0
1, 1
0, 0
2, 0
2, 0
0, 1
0, 0
0, 1
1, 1
1, 0
0, 0
1, 0
0, 0
1, 1
1, 1
0, 0
2, 1
0, 1
0, 0
0, 0
0, 0
0, 1
0, 0
0, 0
0, 1
0, 0
0, 0
1, 0
1, 0
0, 0
0, 0
0, 1
0, 0
1, 1
0, 0
0, 0
0, 0
0, 0
0, 0
0, 0
0, 0
0, 0
0, 0
0, 0
0, 1
1, 0
0, 0
0, 0
0, 0
0, 1
0, 0
0, 0
0, 0
0, 0
0, 0
0, 0
0, 0
0, 0
0, 0
0, 0
0, 0
0, 0
0, 0
0, 0
0, 0
0, 0
0, 0
0, 0
0, 0
0, 0
0, 0
0, 0
0, 0
0, 0
0, 0
0, 0
0, 0
0, 0
0, 0
0, 0
0, 0
0, 0
0, 0
0, 0
0, 0
0, 0
0, 0
0, 0
0, 0
0, 0
0, 0
0, 0
0, 0
0, 0
0, 0
0, 0
0, 0
0, 0
0, 0
0, 0
0, 0
0, 0
0, 0
0, 0
0, 0
0, 0
0, 0
0, 0
0, 0
0, 0
0, 0
0, 0
0, 0
0, 0
0, 0
0, 0
0, 0
0, 0
0, 0
0, 0
0, 0
0, 0
0, 0
0, 0
0, 0
0, 0
0, 0
0, 0
0, 0
0, 0
0, 0
0, 0
0, 0
0, 0
0, 0
0, 0
0, 0
0, 0
0, 0
0, 0
0, 0
0, 0
0, 0
0, 0
0, 0
0, 0
0, 0
0, 0
0, 0
0, 0
0, 0
0, 0
0, 0
0, 0
0, 0
#ENDOFDATA     end of spectrum data

File: ps__0567_0717304816_000rfs_shot_114.msa
#FORMAT      : EMSA/MAS spectral data file
#VERSION     : TC202v2.0 PIXL
#TITLE       : Novarupta (sol567) subset1
#DATE        : 02-11-2024      Date in the format DD-MMM-YYYY, for example 07-JUL-2010
#TIME        :             The time of day at which the spectrum was recorded, in 24-hour format
#OWNER       : PIXL Flight Model       (PIXL will use this to indicate which instrument took the data.)
#NPOINTS     : 4096     Number of data points in the spectrum (This can be zero for configuration only files)
#NCOLUMNS    : 2     Number of data columns in the spectrum (This can be zero for configuration only files)
#XUNITS      : eV
#YUNITS      : COUNTS
#DATATYPE    : YY
#XPERCHAN    : 7.862, 7.881   eV per channel (separate by commas if more than one detector)
#OFFSET      : 18.5, -22.4         eV of first channel  (separate by commas if more than one detector
#SIGNALTYPE  : XRF
#YP_TEMP     : -0.362
#LIVETIME    : 8.83828, 8.83293   seconds (separate by commas if more than one detector)
#REALTIME    : 10, 10.0   seconds (separate by commas if more than one detector)
#SPECTRUM    : start of spectrum data
0, 0
0, 0
0, 0
0, 0
0, 0
0, 0
0, 0
0, 1
3, 2
1, 1
4, 6
11, 8
7, 11
25, 21
41, 50
129, 122
475, 490
122, 95
27, 35
20, 32
54, 64
293, 312
122, 127
85, 68
190, 212
108, 114
69, 61
33, 29
8, 7
9, 6
32, 23
11, 24
27, 28
221, 259
311, 324
51, 30
46, 54
45, 60
6, 7
13, 8
30, 22
50, 46
26, 33
19, 16
10, 10
14, 20
15, 13
13, 15
6, 10
24, 26
18, 24
18, 8
12, 18
38, 36
38, 44
23, 22
38, 38
428, 518
1573, 1746
945, 888
108, 98
20, 13
25, 30
88, 88
241, 265
171, 128
25, 11
9, 8
6, 19
5, 7
10, 3
6, 8
5, 8
5, 8
6, 8
9, 3
5, 8
6, 6
10, 11
7, 9
5, 7
5, 1
9, 4
4, 7
6, 5
7, 4
6, 7
4, 9
7, 4
11, 4
7, 6
3, 5
3, 2
4, 3
6, 5
7, 6
2, 2
4, 2
1, 3
4, 3
3, 5
4, 4
2, 3
3, 3
3, 4
6, 2
2, 2
0, 4
3, 3
3, 1
2, 1
0, 0
3, 2
2, 3
3, 1
4, 3
4, 2
1, 1
3, 0
2, 1
1, 0
1, 0
3, 1
0, 0
2, 2
0, 0
2, 0
1, 2
0, 2
1, 0
1, 2
0, 0
2, 1
0, 0
0, 1
0, 1
1, 0
1, 2
0, 0
1, 0
1, 0
1, 1
0, 0
1, 1
0, 1
0, 0
0, 1
0, 0
1, 1
0, 0
0, 0
0, 0
0, 0
0, 0
0, 1
1, 0
0, 0
0, 0
0, 0
0, 0
0, 0
0, 0
1, 1
0, 0
1, 0
0, 0
0, 1
0, 0
0, 0
0, 1
1, 1
1, 0
1, 0
1, 0
0, 0
0, 0
0, 0
0, 0
0, 0
0, 0
0, 1
0, 1
0, 0
0, 0
1, 0
0, 0
0, 0
0, 0
0, 0
0, 1
0, 0
0, 0
0, 0
0, 0
0, 0
0, 0
0, 0
0, 0
1, 0
0, 0
0, 0
1, 0
0, 0
0, 0
0, 0
1, 0
0, 0
0, 0
0, 0
0, 0
0, 0
0, 0
0, 0
0, 0
0, 0
0, 0
0, 0
0, 0
0, 0
0, 0
0, 0
0, 0
0, 0
0, 0
0, 0
0, 0
0, 0
0, 0
0, 0
0, 0
0, 0
0, 0
0, 0
0, 0
0, 0
0, 0
0, 0
0, 0
0, 0
0, 0
0, 0
0, 0
0, 0
0, 0
0, 0
0, 0
0, 0
0, 0
0, 0
0, 0
0, 0
0, 0
0, 0
0, 0
0, 0
0, 0
0, 0
0, 0
0, 0
0, 0
0, 0
0, 0
0, 0
0, 0
0, 0
0, 0
0, 0
0, 0
0, 0
0, 0
0, 0
0, 0
0, 0
0, 0
0, 0
0, 0
0, 0
0, 0
0, 0
0, 0
0, 0
0, 0
0, 0
0, 0
0, 0
0, 0
0, 0
0, 0
0, 0
0, 0
0, 0
0, 0
0, 0
0, 0
#ENDOFDATA     end of spectrum data

File: ps__0567_0717304816_000rfs_shot_115.msa
#FORMAT      : EMSA/MAS spectral data file
#VERSION     : TC202v2.0 PIXL
#TITLE       : Novarupta (sol567) subset1
#DATE        : 02-11-2024      Date in the format DD-MMM-YYYY, for example 07-JUL-2010
#TIME        :             The time of day at which the spectrum was recorded, in 24-hour format
#OWNER       : PIXL Flight Model       (PIXL will use this to indicate which instrument took the data.)
#NPOINTS     : 4096     Number of data points in the spectrum (This can be zero for configuration only files)
#NCOLUMNS    : 2     Number of data columns in the spectrum (This can be zero for configuration only files)
#XUNITS      : eV
#YUNITS      : COUNTS
#DATATYPE    : YY
#XPERCHAN    : 7.862, 7.881   eV per channel (separate by commas if more than one detector)
#OFFSET      : 18.5, -22.4         eV of first channel  (separate by commas if more than one detector
#SIGNALTYPE  : XRF
#YP_TEMP     : -0.619
#LIVETIME    : 8.84554, 8.83766   seconds (separate by commas if more than one detector)
#REALTIME    : 10, 10.0   seconds (separate by commas if more than one detector)
#SPECTRUM    : start of spectrum data
0, 0
0, 0
0, 0
0, 0
0, 0
0, 0
0, 0
0, 1
4, 4
2, 2
4, 3
10, 7
7, 9
23, 14
45, 53
99, 127
481, 502
117, 111
28, 28
22, 22
51, 51
295, 300
117, 110
61, 95
218, 243
103, 102
71, 74
33, 33
7, 5
5, 3
24, 24
7, 17
25, 15
213, 262
344, 319
52, 45
36, 56
67, 51
10, 8
8, 4
19, 27
75, 54
38, 40
10, 16
17, 10
11, 20
17, 13
14, 12
11, 13
33, 31
35, 22
10, 11
12, 18
39, 34
44, 40
21, 27
35, 39
421, 493
1610, 1685
1000, 890
91, 93
22, 11
21, 25
98, 112
237, 311
148, 139
24, 17
9, 14
11, 9
9, 6
4, 7
8, 4
2, 4
7, 7
9, 3
6, 7
10, 6
7, 4
7, 8
9, 7
6, 5
7, 8
4, 2
1, 2
4, 7
5, 4
3, 4
2, 7
5, 4
5, 5
3, 6
4, 5
5, 2
0, 3
2, 4
3, 1
2, 4
4, 6
1, 3
2, 3
3, 2
2, 1
5, 4
1, 3
4, 5
2, 2
1, 3
3, 1
4, 5
1, 4
3, 3
1, 2
2, 0
0, 2
1, 2
1, 5
2, 2
2, 2
0, 3
0, 1
2, 3
2, 0
0, 2
1, 2
0, 1
1, 1
1, 0
0, 1
1, 2
1, 0
0, 4
2, 1
2, 1
0, 0
0, 0
1, 2
0, 1
0, 0
1, 0
2, 1
0, 0
0, 1
1, 0
0, 0
1, 1
2, 0
0, 0
0, 0
0, 0
0, 1
0, 1
0, 0
1, 0
0, 0
1, 0
0, 0
1, 1
0, 1
0, 1
0, 1
0, 0
0, 1
1, 0
0, 0
0, 0
0, 0
0, 0
0, 0
0, 1
0, 0
0, 0
2, 0
0, 0
1, 0
0, 0
0, 1
0, 1
0, 0
0, 0
0, 0
0, 0
0, 0
0, 0
0, 0
0, 0
0, 0
1, 1
0, 0
0, 0
0, 0
0, 0
0, 0
0, 0
0, 0
0, 0
0, 1
0, 0
0, 0
0, 0
1, 0
0, 0
0, 0
0, 0
0, 0
0, 0
0, 0
0, 1
0, 0
0, 0
0, 0
0, 0
0, 0
0, 0
0, 0
0, 0
0, 0
0, 0
0, 0
0, 0
0, 0
0, 0
0, 0
0, 0
0, 0
0, 0
0, 0
0, 0
0, 0
0, 0
0, 0
0, 0
0, 0
0, 0
0, 0
0, 0
0, 0
0, 0
0, 0
0, 0
0, 0
0, 0
0, 0
0, 0
0, 0
0, 0
0, 0
0, 0
0, 0
0, 0
0, 0
0, 0
0, 0
0, 0
0, 0
0, 0
0, 0
0, 0
0, 0
0, 0
0, 0
0, 0
0, 0
0, 0
0, 0
0, 0
0, 0
0, 0
0, 0
0, 0
0, 0
0, 0
0, 0
0, 0
0, 0
0, 0
0, 0
0, 0
0, 0
0, 0
0, 0
0, 0
0, 0
0, 0
0, 0
0, 0
0, 0
0, 0
0, 0
0, 0
0, 0
0, 0
0, 0
0, 0
0, 0
#ENDOFDATA     end of spectrum data