Folder: data-repository/host_upload/02-11-2024/rqc/uplink1 (part 12)

File: ps__0567_0717304816_000rfs_shot_184.msa
#FORMAT      : EMSA/MAS spectral data file
#VERSION     : TC202v2.0 PIXL
#TITLE       : Novarupta (sol567) subset1
#DATE        : 02-11-2024      Date in the format DD-MMM-YYYY, for example 07-JUL-2010
#TIME        :             The time of day at which the spectrum was recorded, in 24-hour format
#OWNER       : PIXL Flight Model       (PIXL will use this to indicate which instrument took the data.)
#NPOINTS     : 4096     Number of data points in the spectrum (This can be zero for configuration only files)
#NCOLUMNS    : 2     Number of data columns in the spectrum (This can be zero for configuration only files)
#XUNITS      : eV
#YUNITS      : COUNTS
#DATATYPE    : YY
#XPERCHAN    : 7.862, 7.881   eV per channel (separate by commas if more than one detector)
#OFFSET      : 18.5, -22.4         eV of first channel  (separate by commas if more than one detector
#SIGNALTYPE  : XRF
#YP_TEMP     : 0.504
#LIVETIME    : 8.84049, 8.82557   seconds (separate by commas if more than one detector)
#REALTIME    : 10, 10.0   seconds (separate by commas if more than one detector)
#SPECTRUM    : start of spectrum data
0, 0
0, 0
0, 0
0, 0
0, 0
0, 0
0, 0
2, 1
2, 5
2, 3
2, 3
9, 12
8, 10
23, 25
31, 45
101, 141
475, 531
100, 113
31, 35
21, 30
53, 71
317, 361
130, 130
69, 83
267, 258
118, 128
57, 74
26, 28
5, 8
14, 7
16, 31
13, 23
24, 13
216, 254
310, 344
45, 62
33, 33
44, 52
12, 17
7, 9
16, 21
46, 69
33, 39
13, 15
13, 16
22, 20
14, 18
13, 17
15, 24
21, 24
24, 24
15, 12
9, 10
30, 37
59, 55
24, 21
38, 41
358, 442
1490, 1791
904, 998
122, 98
17, 24
17, 21
75, 117
253, 291
173, 139
18, 10
5, 5
7, 12
6, 8
3, 3
5, 6
6, 4
4, 4
9, 7
8, 9
8, 2
9, 6
7, 15
8, 8
6, 7
5, 10
4, 6
10, 8
3, 6
6, 8
1, 4
7, 2
5, 5
5, 4
8, 4
5, 8
5, 4
3, 3
5, 7
5, 2
3, 1
1, 1
1, 4
2, 4
1, 4
0, 1
1, 1
2, 3
3, 2
6, 5
0, 6
2, 2
2, 4
3, 3
1, 1
0, 2
1, 0
1, 1
1, 3
2, 2
0, 3
0, 5
1, 0
1, 1
2, 5
1, 1
3, 1
4, 4
1, 3
0, 5
2, 0
0, 1
0, 0
0, 1
0, 1
1, 1
0, 1
2, 1
2, 0
1, 0
0, 1
2, 0
2, 2
0, 0
1, 0
0, 1
0, 2
1, 1
0, 1
1, 0
1, 0
0, 0
2, 0
2, 1
0, 0
0, 1
1, 1
0, 0
0, 0
0, 0
0, 0
0, 2
0, 0
0, 0
0, 0
1, 1
0, 0
1, 0
1, 1
0, 1
0, 0
0, 0
1, 1
0, 0
0, 0
0, 0
2, 1
1, 1
0, 0
1, 0
0, 0
0, 0
0, 0
0, 0
0, 0
0, 0
0, 0
0, 1
0, 0
0, 0
0, 0
0, 0
0, 0
0, 0
0, 0
0, 0
0, 0
0, 0
0, 0
0, 0
0, 0
0, 0
0, 0
0, 0
0, 0
0, 0
0, 0
0, 0
0, 0
0, 0
0, 0
0, 0
0, 0
0, 0
0, 0
0, 0
0, 0
0, 0
0, 0
0, 0
0, 0
0, 0
0, 0
0, 0
0, 0
0, 0
0, 0
0, 1
0, 0
0, 0
0, 0
0, 0
0, 0
0, 0
0, 0
0, 0
0, 0
0, 0
0, 0
0, 0
0, 0
0, 0
0, 0
0, 0
0, 0
0, 0
0, 0
0, 0
0, 0
0, 0
0, 0
0, 0
0, 0
0, 0
0, 0
0, 0
0, 0
0, 0
0, 0
0, 0
0, 0
0, 0
0, 0
0, 0
0, 0
0, 0
0, 0
0, 0
0, 0
0, 0
0, 0
0, 0
0, 0
0, 0
0, 0
0, 0
0, 0
0, 0
0, 0
0, 0
0, 0
0, 0
0, 0
0, 0
0, 0
0, 0
0, 0
0, 0
0, 0
0, 0
0, 0
0, 0
0, 0
0, 0
0, 0
0, 0
0, 0
0, 0
#ENDOFDATA     end of spectrum data

File: ps__0567_0717304816_000rfs_shot_185.msa
#FORMAT      : EMSA/MAS spectral data file
#VERSION     : TC202v2.0 PIXL
#TITLE       : Novarupta (sol567) subset1
#DATE        : 02-11-2024      Date in the format DD-MMM-YYYY, for example 07-JUL-2010
#TIME        :             The time of day at which the spectrum was recorded, in 24-hour format
#OWNER       : PIXL Flight Model       (PIXL will use this to indicate which instrument took the data.)
#NPOINTS     : 4096     Number of data points in the spectrum (This can be zero for configuration only files)
#NCOLUMNS    : 2     Number of data columns in the spectrum (This can be zero for configuration only files)
#XUNITS      : eV
#YUNITS      : COUNTS
#DATATYPE    : YY
#XPERCHAN    : 7.862, 7.881   eV per channel (separate by commas if more than one detector)
#OFFSET      : 18.5, -22.4         eV of first channel  (separate by commas if more than one detector
#SIGNALTYPE  : XRF
#YP_TEMP     : 0.439
#LIVETIME    : 8.83094, 8.64512   seconds (separate by commas if more than one detector)
#REALTIME    : 10, 10.0   seconds (separate by commas if more than one detector)
#SPECTRUM    : start of spectrum data
0, 0
0, 0
0, 0
0, 0
0, 0
0, 0
0, 0
2, 1
6, 4
4, 4
1, 3
6, 14
11, 5
16, 34
41, 41
90, 131
487, 540
120, 108
35, 34
25, 29
75, 63
277, 370
119, 145
66, 98
220, 254
140, 111
65, 61
23, 34
5, 1
7, 13
30, 28
21, 21
15, 19
245, 265
323, 348
47, 64
40, 53
55, 49
8, 16
7, 7
22, 31
57, 76
29, 33
15, 10
9, 18
18, 21
11, 15
4, 17
9, 13
23, 31
25, 22
17, 12
7, 11
32, 44
37, 39
19, 20
24, 37
364, 487
1580, 1799
1027, 973
99, 101
17, 22
27, 29
77, 103
244, 299
170, 167
24, 26
5, 9
9, 7
11, 9
8, 4
6, 13
3, 5
5, 7
7, 2
11, 11
6, 9
7, 5
8, 12
14, 18
3, 6
8, 8
8, 5
5, 7
3, 6
8, 9
5, 8
11, 6
3, 5
3, 4
4, 2
6, 6
3, 1
3, 4
3, 4
4, 5
0, 4
3, 5
2, 2
4, 3
1, 1
3, 4
2, 1
2, 4
2, 2
2, 0
0, 4
0, 4
4, 3
1, 5
4, 2
2, 2
1, 1
4, 0
3, 1
1, 2
4, 2
3, 4
1, 3
0, 1
3, 1
2, 1
3, 2
0, 1
0, 3
1, 0
0, 1
1, 0
0, 0
2, 0
1, 2
0, 1
1, 0
3, 1
0, 1
1, 0
1, 0
1, 0
2, 1
0, 0
2, 1
1, 1
1, 0
1, 3
1, 0
0, 1
1, 0
1, 0
0, 2
0, 1
0, 0
0, 0
0, 0
0, 0
0, 0
0, 1
0, 0
0, 1
0, 0
1, 1
0, 0
0, 0
0, 0
0, 0
0, 0
0, 1
2, 0
1, 0
0, 1
0, 1
0, 0
0, 0
0, 0
1, 1
0, 0
0, 0
0, 0
1, 0
0, 0
0, 0
0, 0
0, 0
0, 1
0, 0
0, 0
0, 0
0, 0
0, 0
0, 0
0, 0
0, 0
0, 0
0, 0
0, 0
1, 0
0, 0
0, 0
0, 0
0, 0
1, 0
0, 0
0, 0
0, 0
0, 0
0, 0
0, 0
0, 0
0, 0
0, 0
0, 0
0, 0
0, 0
0, 0
0, 0
0, 0
0, 0
0, 0
0, 0
0, 0
0, 0
0, 0
0, 0
0, 0
0, 0
0, 0
0, 0
0, 0
0, 0
0, 0
0, 0
0, 0
0, 0
0, 0
0, 0
0, 0
0, 0
0, 0
0, 0
0, 0
0, 0
0, 0
0, 0
0, 0
0, 0
0, 0
0, 0
0, 0
0, 0
0, 0
0, 0
0, 0
0, 0
0, 0
0, 0
0, 0
0, 0
0, 0
0, 0
0, 0
0, 0
0, 0
0, 0
0, 0
0, 0
0, 0
0, 0
0, 0
0, 0
0, 0
0, 0
0, 0
0, 0
0, 0
0, 0
0, 0
0, 0
0, 0
0, 0
0, 0
0, 0
0, 0
0, 0
0, 0
0, 0
0, 0
0, 0
0, 0
0, 0
0, 0
0, 0
0, 0
0, 0
0, 0
0, 0
#ENDOFDATA     end of spectrum data

File: ps__0567_0717304816_000rfs_shot_186.msa
#FORMAT      : EMSA/MAS spectral data file
#VERSION     : TC202v2.0 PIXL
#TITLE       : Novarupta (sol567) subset1
#DATE        : 02-11-2024      Date in the format DD-MMM-YYYY, for example 07-JUL-2010
#TIME        :             The time of day at which the spectrum was recorded, in 24-hour format
#OWNER       : PIXL Flight Model       (PIXL will use this to indicate which instrument took the data.)
#NPOINTS     : 4096     Number of data points in the spectrum (This can be zero for configuration only files)
#NCOLUMNS    : 2     Number of data columns in the spectrum (This can be zero for configuration only files)
#XUNITS      : eV
#YUNITS      : COUNTS
#DATATYPE    : YY
#XPERCHAN    : 7.862, 7.881   eV per channel (separate by commas if more than one detector)
#OFFSET      : 18.5, -22.4         eV of first channel  (separate by commas if more than one detector
#SIGNALTYPE  : XRF
#YP_TEMP     : 0.6
#LIVETIME    : 8.85298, 8.81936   seconds (separate by commas if more than one detector)
#REALTIME    : 10, 10.0   seconds (separate by commas if more than one detector)
#SPECTRUM    : start of spectrum data
0, 0
0, 0
0, 0
0, 0
0, 0
0, 0
0, 0
1, 1
1, 4
2, 0
4, 4
10, 10
16, 8
22, 21
47, 57
92, 127
482, 554
113, 136
25, 35
17, 16
50, 65
316, 359
130, 145
74, 72
183, 233
137, 114
88, 80
28, 23
5, 11
6, 13
32, 33
18, 29
22, 25
205, 243
333, 362
48, 57
41, 50
47, 51
4, 10
10, 11
21, 21
52, 86
32, 28
16, 14
14, 18
15, 21
16, 9
14, 17
14, 8
16, 33
16, 20
13, 15
10, 11
35, 44
44, 50
26, 27
20, 31
355, 488
1552, 1798
975, 991
110, 86
26, 15
18, 24
104, 95
231, 270
139, 137
23, 16
10, 16
12, 14
8, 7
7, 6
3, 6
3, 9
6, 6
14, 3
5, 6
7, 6
7, 8
8, 14
12, 8
8, 6
7, 7
4, 5
4, 5
5, 4
4, 6
4, 4
7, 9
4, 5
6, 4
10, 12
3, 3
3, 6
3, 4
4, 3
2, 3
3, 1
4, 4
2, 4
5, 1
2, 2
3, 6
3, 1
1, 3
5, 3
4, 1
2, 2
1, 4
2, 7
3, 4
4, 0
0, 2
0, 1
2, 4
1, 0
2, 1
4, 2
2, 1
1, 0
2, 1
2, 1
2, 1
4, 3
2, 1
1, 1
1, 1
0, 5
1, 1
1, 1
2, 0
1, 0
1, 0
1, 0
0, 2
1, 0
0, 0
1, 1
0, 2
1, 1
0, 0
0, 0
1, 1
0, 0
0, 0
0, 0
1, 1
1, 1
0, 2
1, 0
0, 0
0, 0
0, 1
1, 1
1, 0
0, 0
0, 0
0, 0
0, 0
1, 0
0, 1
0, 0
0, 0
1, 0
0, 0
0, 1
0, 0
0, 0
0, 0
0, 0
0, 0
0, 0
0, 0
0, 0
0, 0
0, 1
0, 0
0, 0
0, 0
0, 0
0, 0
1, 0
0, 0
1, 0
0, 0
0, 0
0, 2
0, 0
0, 0
0, 0
0, 0
0, 0
0, 0
0, 0
0, 0
0, 0
0, 0
0, 0
0, 0
0, 0
0, 0
0, 0
0, 0
1, 0
0, 0
0, 0
0, 0
0, 0
0, 0
0, 0
0, 0
0, 0
0, 0
0, 0
0, 0
0, 0
0, 0
0, 0
0, 0
0, 1
0, 0
0, 0
0, 0
0, 0
0, 0
0, 0
0, 0
0, 0
0, 0
0, 0
0, 0
0, 0
0, 0
0, 0
0, 0
0, 0
0, 0
0, 0
0, 0
0, 0
0, 0
0, 0
0, 0
0, 0
0, 0
0, 0
0, 0
0, 0
0, 0
0, 0
0, 0
0, 0
0, 0
0, 0
0, 0
0, 0
0, 0
0, 0
0, 0
0, 0
0, 0
0, 0
0, 0
0, 0
0, 0
0, 0
0, 0
0, 0
0, 0
0, 0
0, 0
0, 0
0, 0
0, 0
0, 0
0, 0
0, 0
0, 0
0, 0
0, 0
0, 0
0, 0
0, 0
0, 0
0, 0
0, 0
0, 0
0, 0
0, 0
0, 0
0, 0
0, 0
0, 0
0, 0
0, 0
#ENDOFDATA     end of spectrum data

File: ps__0567_0717304816_000rfs_shot_187.msa
#FORMAT      : EMSA/MAS spectral data file
#VERSION     : TC202v2.0 PIXL
#TITLE       : Novarupta (sol567) subset1
#DATE        : 02-11-2024      Date in the format DD-MMM-YYYY, for example 07-JUL-2010
#TIME        :             The time of day at which the spectrum was recorded, in 24-hour format
#OWNER       : PIXL Flight Model       (PIXL will use this to indicate which instrument took the data.)
#NPOINTS     : 4096     Number of data points in the spectrum (This can be zero for configuration only files)
#NCOLUMNS    : 2     Number of data columns in the spectrum (This can be zero for configuration only files)
#XUNITS      : eV
#YUNITS      : COUNTS
#DATATYPE    : YY
#XPERCHAN    : 7.862, 7.881   eV per channel (separate by commas if more than one detector)
#OFFSET      : 18.5, -22.4         eV of first channel  (separate by commas if more than one detector
#SIGNALTYPE  : XRF
#YP_TEMP     : 0.632
#LIVETIME    : 8.84246, 8.82508   seconds (separate by commas if more than one detector)
#REALTIME    : 10, 10.0   seconds (separate by commas if more than one detector)
#SPECTRUM    : start of spectrum data
0, 0
0, 0
0, 0
0, 0
0, 0
0, 0
0, 0
0, 0
4, 0
1, 3
6, 6
8, 6
9, 19
28, 27
35, 49
85, 122
493, 543
123, 127
34, 28
26, 25
73, 59
328, 325
120, 124
72, 81
183, 228
120, 118
66, 67
35, 33
9, 10
11, 9
39, 32
18, 13
20, 20
200, 236
318, 319
43, 41
35, 52
55, 52
13, 12
10, 9
22, 25
53, 59
29, 35
10, 16
11, 22
22, 23
16, 11
16, 11
16, 20
25, 27
21, 30
9, 13
13, 8
32, 35
40, 34
16, 21
23, 38
382, 467
1501, 1779
970, 993
114, 96
13, 15
16, 20
72, 95
236, 260
139, 153
17, 23
9, 8
23, 10
3, 6
9, 2
6, 4
5, 4
9, 10
8, 13
8, 11
3, 10
7, 10
4, 15
9, 12
5, 8
1, 6
3, 3
3, 11
6, 8
7, 5
4, 2
7, 3
2, 7
4, 11
7, 4
3, 0
4, 5
8, 4
2, 6
1, 4
3, 5
3, 3
5, 1
5, 5
4, 5
3, 3
3, 3
2, 2
1, 3
3, 1
3, 7
1, 4
2, 1
3, 3
2, 6
4, 2
0, 2
1, 3
1, 3
2, 8
2, 3
4, 4
7, 2
2, 5
1, 3
1, 1
0, 2
3, 4
0, 2
0, 4
1, 1
0, 0
1, 1
2, 0
0, 1
0, 0
0, 2
2, 0
1, 2
0, 1
0, 0
0, 0
0, 1
0, 3
0, 0
0, 0
0, 1
0, 0
0, 0
0, 0
1, 0
0, 1
0, 1
0, 0
0, 0
0, 0
0, 2
0, 0
0, 0
0, 0
1, 0
0, 0
0, 2
0, 1
0, 2
1, 0
0, 0
1, 1
0, 0
2, 0
1, 0
0, 1
0, 0
0, 3
0, 0
1, 2
0, 0
2, 0
1, 1
0, 0
0, 0
2, 0
0, 1
0, 1
0, 0
0, 2
0, 0
0, 0
2, 0
0, 0
0, 0
0, 0
0, 0
0, 0
0, 0
0, 0
0, 0
0, 0
0, 0
0, 0
0, 0
0, 0
0, 0
1, 0
0, 1
0, 0
0, 0
0, 0
0, 0
0, 0
0, 0
0, 0
0, 0
0, 0
0, 0
0, 0
0, 0
0, 0
0, 0
0, 0
0, 0
0, 0
0, 0
0, 0
0, 0
0, 0
0, 0
0, 0
0, 0
0, 0
0, 0
0, 0
0, 0
0, 0
0, 0
0, 0
0, 0
0, 0
0, 0
0, 0
0, 0
0, 0
0, 0
0, 0
0, 0
0, 0
0, 0
0, 0
0, 0
0, 0
0, 0
0, 0
0, 0
0, 0
0, 0
0, 0
0, 0
0, 0
0, 0
0, 0
0, 0
0, 0
0, 0
0, 0
0, 0
0, 0
0, 0
0, 0
0, 0
0, 0
0, 0
0, 0
0, 0
0, 0
0, 0
0, 0
0, 0
0, 0
0, 0
0, 0
0, 0
0, 0
0, 0
0, 0
0, 0
0, 0
0, 0
0, 0
0, 0
0, 0
0, 0
0, 0
0, 0
0, 0
0, 0
0, 0
0, 0
0, 0
#ENDOFDATA     end of spectrum data

File: ps__0567_0717304816_000rfs_shot_193.msa
#FORMAT      : EMSA/MAS spectral data file
#VERSION     : TC202v2.0 PIXL
#TITLE       : Novarupta (sol567) subset1
#DATE        : 02-11-2024      Date in the format DD-MMM-YYYY, for example 07-JUL-2010
#TIME        :             The time of day at which the spectrum was recorded, in 24-hour format
#OWNER       : PIXL Flight Model       (PIXL will use this to indicate which instrument took the data.)
#NPOINTS     : 4096     Number of data points in the spectrum (This can be zero for configuration only files)
#NCOLUMNS    : 2     Number of data columns in the spectrum (This can be zero for configuration only files)
#XUNITS      : eV
#YUNITS      : COUNTS
#DATATYPE    : YY
#XPERCHAN    : 7.862, 7.881   eV per channel (separate by commas if more than one detector)
#OFFSET      : 18.5, -22.4         eV of first channel  (separate by commas if more than one detector
#SIGNALTYPE  : XRF
#YP_TEMP     : 0.536
#LIVETIME    : 8.84509, 8.8193   seconds (separate by commas if more than one detector)
#REALTIME    : 10, 10.0   seconds (separate by commas if more than one detector)
#SPECTRUM    : start of spectrum data
0, 0
0, 0
0, 0
0, 0
0, 0
0, 0
0, 0
2, 1
2, 2
3, 5
4, 5
8, 11
13, 12
24, 20
29, 57
85, 114
428, 541
117, 138
20, 39
19, 29
48, 65
246, 333
96, 121
80, 84
186, 221
113, 105
66, 67
20, 30
6, 13
11, 10
19, 21
17, 18
13, 21
179, 288
284, 377
41, 41
35, 47
43, 54
10, 12
13, 5
19, 27
55, 68
31, 35
16, 20
9, 14
20, 17
13, 20
8, 6
8, 9
28, 30
20, 28
16, 8
14, 22
21, 35
44, 59
18, 24
28, 29
333, 487
1480, 1850
975, 1022
131, 98
17, 17
20, 27
78, 102
232, 280
146, 159
22, 14
14, 8
9, 14
6, 7
7, 6
16, 3
9, 7
6, 11
5, 6
3, 5
7, 7
6, 4
12, 15
12, 13
4, 10
9, 3
9, 9
7, 8
3, 9
5, 9
4, 10
4, 10
4, 4
6, 1
1, 5
5, 3
1, 6
6, 2
4, 6
3, 1
4, 4
2, 2
2, 1
2, 8
4, 4
2, 1
3, 3
1, 1
4, 5
0, 2
1, 1
3, 5
3, 4
4, 2
3, 0
2, 1
2, 1
2, 1
3, 3
2, 1
3, 6
0, 1
2, 0
1, 2
5, 1
3, 1
3, 3
1, 1
2, 1
0, 1
0, 1
0, 0
1, 4
4, 2
0, 1
1, 1
1, 0
0, 0
1, 2
1, 2
0, 0
2, 0
0, 3
0, 0
1, 0
0, 0
0, 0
2, 0
1, 1
0, 2
0, 0
0, 0
1, 2
0, 0
0, 0
0, 0
1, 0
0, 0
0, 0
1, 0
0, 0
0, 0
0, 0
0, 1
0, 0
0, 0
0, 0
0, 0
0, 0
0, 0
0, 0
0, 1
0, 0
1, 1
0, 0
0, 0
1, 0
0, 0
1, 1
0, 0
0, 0
0, 0
1, 0
0, 0
0, 0
0, 2
0, 0
0, 2
0, 0
0, 0
0, 0
0, 1
0, 0
0, 0
0, 0
0, 0
0, 0
0, 1
0, 0
0, 0
0, 1
0, 1
0, 0
0, 0
0, 0
0, 0
0, 0
0, 0
0, 0
0, 0
0, 0
0, 0
0, 0
0, 0
0, 0
0, 0
0, 0
0, 0
0, 0
0, 0
0, 0
0, 0
0, 0
0, 0
0, 0
0, 0
0, 0
0, 0
0, 0
0, 0
0, 0
0, 0
0, 0
0, 0
0, 0
0, 0
0, 0
0, 0
0, 0
0, 0
0, 0
0, 0
0, 0
0, 0
0, 0
0, 0
0, 0
0, 0
0, 0
0, 0
0, 0
0, 0
0, 0
0, 0
0, 0
0, 0
0, 0
0, 0
0, 0
0, 0
0, 0
0, 0
0, 0
0, 0
0, 0
0, 0
0, 0
0, 0
0, 0
0, 0
0, 0
0, 0
0, 0
0, 0
0, 0
0, 0
0, 0
0, 0
0, 0
0, 0
0, 0
0, 0
0, 0
0, 0
0, 0
0, 0
0, 0
0, 0
0, 0
0, 0
0, 0
0, 0
0, 0
0, 0
0, 0
0, 0
0, 0
0, 0
#ENDOFDATA     end of spectrum data

File: ps__0567_0717304816_000rfs_shot_194.msa
#FORMAT      : EMSA/MAS spectral data file
#VERSION     : TC202v2.0 PIXL
#TITLE       : Novarupta (sol567) subset1
#DATE        : 02-11-2024      Date in the format DD-MMM-YYYY, for example 07-JUL-2010
#TIME        :             The time of day at which the spectrum was recorded, in 24-hour format
#OWNER       : PIXL Flight Model       (PIXL will use this to indicate which instrument took the data.)
#NPOINTS     : 4096     Number of data points in the spectrum (This can be zero for configuration only files)
#NCOLUMNS    : 2     Number of data columns in the spectrum (This can be zero for configuration only files)
#XUNITS      : eV
#YUNITS      : COUNTS
#DATATYPE    : YY
#XPERCHAN    : 7.862, 7.881   eV per channel (separate by commas if more than one detector)
#OFFSET      : 18.5, -22.4         eV of first channel  (separate by commas if more than one detector
#SIGNALTYPE  : XRF
#YP_TEMP     : 0.343
#LIVETIME    : 8.84702, 8.82346   seconds (separate by commas if more than one detector)
#REALTIME    : 10, 10.0   seconds (separate by commas if more than one detector)
#SPECTRUM    : start of spectrum data
0, 0
0, 0
0, 0
0, 0
0, 0
0, 0
0, 0
0, 0
2, 3
1, 3
3, 1
9, 10
15, 7
30, 29
46, 38
108, 120
459, 513
117, 127
31, 33
28, 21
34, 57
263, 342
123, 131
53, 72
231, 225
103, 115
72, 72
26, 28
14, 12
13, 7
17, 25
21, 20
12, 16
173, 250
290, 345
44, 52
24, 34
49, 54
7, 8
12, 5
21, 25
71, 64
44, 44
12, 19
13, 20
15, 26
10, 13
10, 5
12, 16
33, 40
13, 26
10, 12
20, 9
33, 36
36, 49
14, 22
26, 41
364, 469
1556, 1865
1013, 1014
112, 92
21, 13
23, 31
85, 101
260, 300
137, 172
21, 20
8, 11
13, 14
10, 13
7, 8
5, 4
6, 4
8, 6
3, 10
5, 7
1, 3
8, 6
14, 6
6, 9
8, 9
6, 4
4, 4
5, 6
6, 5
6, 6
7, 3
7, 4
6, 7
8, 5
2, 6
6, 5
6, 3
7, 5
4, 2
5, 4
0, 3
5, 5
2, 5
8, 3
4, 1
1, 2
0, 7
1, 2
5, 4
1, 6
4, 3
2, 3
0, 3
4, 2
0, 2
0, 3
1, 4
2, 3
1, 1
2, 2
3, 4
2, 4
0, 2
0, 1
2, 2
2, 1
0, 2
3, 4
2, 0
1, 2
2, 1
0, 1
3, 3
0, 1
0, 1
2, 3
1, 1
1, 0
3, 1
2, 0
1, 2
0, 0
0, 0
2, 0
2, 2
1, 0
0, 0
0, 0
0, 0
1, 0
0, 0
1, 1
0, 0
0, 2
0, 1
0, 0
1, 0
0, 0
0, 0
0, 0
0, 0
0, 0
0, 0
0, 0
0, 0
0, 0
1, 1
0, 0
0, 0
0, 0
1, 0
0, 0
1, 0
0, 0
0, 0
0, 0
0, 1
0, 0
0, 0
1, 0
0, 0
0, 0
0, 0
0, 0
0, 0
0, 0
1, 1
0, 0
0, 0
1, 1
0, 0
0, 1
0, 0
0, 0
0, 1
0, 0
0, 0
0, 0
0, 1
0, 0
0, 0
0, 0
0, 0
0, 0
0, 0
0, 0
0, 0
0, 0
0, 0
0, 0
0, 0
0, 0
0, 0
0, 0
0, 0
0, 0
0, 0
0, 0
0, 0
0, 0
0, 0
0, 0
0, 0
0, 0
0, 0
0, 0
0, 0
0, 0
0, 0
0, 0
0, 0
0, 0
0, 0
0, 0
0, 0
0, 0
0, 0
0, 0
0, 0
0, 0
0, 0
0, 0
0, 0
0, 0
0, 0
0, 0
0, 0
0, 0
0, 0
0, 0
0, 0
0, 0
0, 0
0, 0
0, 0
0, 0
0, 0
0, 0
0, 0
0, 0
0, 0
0, 0
0, 0
0, 0
0, 0
0, 0
0, 0
0, 0
0, 0
0, 0
0, 0
0, 0
0, 0
0, 0
0, 0
0, 0
0, 0
0, 0
0, 0
0, 0
0, 0
0, 0
0, 0
0, 0
0, 0
0, 0
0, 0
0, 0
0, 0
0, 0
0, 0
0, 0
0, 0
0, 0
0, 0
0, 0
0, 0
0, 0
#ENDOFDATA     end of spectrum data

File: ps__0567_0717304816_000rfs_shot_196.msa
#FORMAT      : EMSA/MAS spectral data file
#VERSION     : TC202v2.0 PIXL
#TITLE       : Novarupta (sol567) subset1
#DATE        : 02-11-2024      Date in the format DD-MMM-YYYY, for example 07-JUL-2010
#TIME        :             The time of day at which the spectrum was recorded, in 24-hour format
#OWNER       : PIXL Flight Model       (PIXL will use this to indicate which instrument took the data.)
#NPOINTS     : 4096     Number of data points in the spectrum (This can be zero for configuration only files)
#NCOLUMNS    : 2     Number of data columns in the spectrum (This can be zero for configuration only files)
#XUNITS      : eV
#YUNITS      : COUNTS
#DATATYPE    : YY
#XPERCHAN    : 7.862, 7.881   eV per channel (separate by commas if more than one detector)
#OFFSET      : 18.5, -22.4         eV of first channel  (separate by commas if more than one detector
#SIGNALTYPE  : XRF
#YP_TEMP     : 0.536
#LIVETIME    : 8.83068, 8.82247   seconds (separate by commas if more than one detector)
#REALTIME    : 10, 10.0   seconds (separate by commas if more than one detector)
#SPECTRUM    : start of spectrum data
0, 0
0, 0
0, 0
0, 0
0, 0
0, 0
0, 0
0, 0
3, 3
3, 2
6, 2
8, 12
9, 11
19, 20
35, 45
103, 125
493, 526
104, 103
37, 35
19, 26
45, 45
294, 302
121, 144
80, 61
202, 204
114, 93
52, 64
25, 31
9, 11
8, 4
24, 23
13, 14
23, 13
226, 237
319, 329
48, 50
36, 49
62, 45
11, 15
7, 13
19, 18
58, 56
30, 29
9, 15
15, 12
21, 20
14, 22
10, 14
16, 9
37, 33
27, 22
11, 6
8, 11
42, 37
47, 49
14, 22
35, 38
376, 444
1629, 1689
1025, 1030
117, 107
15, 19
24, 16
95, 106
230, 304
129, 128
27, 19
13, 12
11, 9
6, 9
5, 5
4, 4
4, 3
7, 6
11, 10
7, 10
2, 8
7, 9
11, 7
7, 19
6, 7
2, 9
6, 5
2, 7
9, 6
3, 2
3, 1
3, 8
4, 4
5, 3
6, 5
1, 5
8, 4
3, 2
3, 2
3, 3
2, 2
1, 6
2, 4
5, 3
0, 1
0, 4
6, 4
3, 5
2, 1
3, 2
4, 0
1, 3
0, 2
3, 0
1, 1
4, 4
0, 2
1, 3
2, 2
2, 2
4, 5
1, 0
3, 1
1, 3
2, 1
0, 2
1, 1
2, 0
2, 1
0, 4
2, 0
1, 0
1, 1
1, 1
0, 1
3, 0
1, 1
2, 2
0, 0
0, 0
0, 0
0, 0
1, 1
1, 0
0, 0
0, 1
1, 0
1, 2
0, 0
0, 0
1, 0
0, 0
0, 0
0, 0
0, 0
0, 0
0, 0
1, 0
1, 0
0, 0
0, 0
0, 1
0, 0
0, 0
1, 0
0, 0
0, 0
0, 0
0, 0
1, 0
0, 0
0, 0
0, 1
0, 0
0, 0
0, 0
0, 0
0, 0
1, 0
1, 0
0, 0
0, 0
0, 0
0, 0
0, 0
2, 0
0, 0
0, 0
0, 0
0, 0
0, 0
0, 0
0, 0
0, 0
0, 0
0, 0
0, 0
0, 0
0, 0
0, 0
0, 0
0, 0
0, 0
0, 0
0, 0
1, 0
0, 1
0, 0
0, 0
0, 0
0, 0
0, 0
0, 0
0, 0
0, 0
0, 0
0, 0
0, 0
0, 0
0, 0
0, 0
0, 0
0, 0
0, 0
0, 0
0, 0
0, 0
0, 0
0, 0
0, 0
0, 0
0, 0
0, 0
0, 0
0, 0
0, 0
0, 0
0, 0
0, 0
0, 0
0, 0
0, 0
0, 0
0, 0
0, 0
0, 0
0, 0
0, 0
0, 0
0, 0
0, 0
0, 0
0, 0
0, 0
0, 0
0, 0
0, 0
0, 0
0, 0
0, 0
0, 0
0, 0
0, 0
0, 0
0, 0
0, 0
0, 0
0, 0
0, 0
0, 0
0, 0
0, 0
0, 0
0, 0
0, 0
0, 0
0, 0
0, 0
0, 0
0, 0
0, 0
0, 0
0, 0
0, 0
0, 0
0, 0
0, 0
0, 0
0, 0
0, 0
0, 0
0, 0
0, 0
0, 0
0, 0
0, 0
0, 0
0, 0
#ENDOFDATA     end of spectrum data

File: ps__0567_0717304816_000rfs_shot_199.msa
#FORMAT      : EMSA/MAS spectral data file
#VERSION     : TC202v2.0 PIXL
#TITLE       : Novarupta (sol567) subset1
#DATE        : 02-11-2024      Date in the format DD-MMM-YYYY, for example 07-JUL-2010
#TIME        :             The time of day at which the spectrum was recorded, in 24-hour format
#OWNER       : PIXL Flight Model       (PIXL will use this to indicate which instrument took the data.)
#NPOINTS     : 4096     Number of data points in the spectrum (This can be zero for configuration only files)
#NCOLUMNS    : 2     Number of data columns in the spectrum (This can be zero for configuration only files)
#XUNITS      : eV
#YUNITS      : COUNTS
#DATATYPE    : YY
#XPERCHAN    : 7.862, 7.881   eV per channel (separate by commas if more than one detector)
#OFFSET      : 18.5, -22.4         eV of first channel  (separate by commas if more than one detector
#SIGNALTYPE  : XRF
#YP_TEMP     : 0.664
#LIVETIME    : 8.83935, 8.83   seconds (separate by commas if more than one detector)
#REALTIME    : 10, 10.0   seconds (separate by commas if more than one detector)
#SPECTRUM    : start of spectrum data
0, 0
0, 0
0, 0
0, 0
0, 0
0, 0
0, 0
0, 1
3, 2
3, 6
5, 4
13, 11
10, 7
18, 29
42, 50
100, 110
495, 497
115, 114
31, 41
27, 16
49, 65
293, 324
109, 121
66, 85
233, 223
116, 114
72, 45
28, 28
9, 11
10, 12
27, 27
18, 19
14, 22
210, 251
331, 370
44, 51
53, 36
52, 61
10, 8
9, 11
20, 23
75, 67
37, 36
9, 17
15, 12
17, 23
12, 17
4, 11
16, 21
27, 26
18, 25
15, 14
9, 11
35, 36
46, 43
13, 19
33, 49
395, 469
1536, 1771
1012, 1004
95, 92
16, 16
12, 18
58, 109
247, 280
158, 148
25, 17
8, 4
11, 17
14, 8
6, 6
6, 0
6, 4
7, 11
11, 9
7, 8
5, 10
6, 13
7, 9
15, 7
5, 8
7, 8
12, 1
8, 1
2, 6
2, 5
4, 6
9, 9
2, 5
3, 3
8, 5
3, 3
5, 4
3, 9
3, 6
4, 4
0, 2
2, 2
2, 1
3, 3
0, 2
2, 4
5, 3
5, 3
2, 2
0, 3
2, 2
4, 1
2, 5
0, 3
2, 1
2, 2
0, 4
2, 2
1, 1
0, 1
2, 2
2, 1
1, 2
2, 2
1, 2
0, 1
1, 3
2, 0
0, 2
2, 1
1, 3
0, 0
1, 1
1, 2
0, 1
2, 0
0, 2
3, 1
2, 1
1, 0
0, 0
1, 1
0, 1
0, 1
0, 1
1, 0
0, 0
0, 0
0, 0
1, 0
0, 1
0, 0
0, 1
3, 1
0, 1
1, 0
0, 1
1, 0
0, 0
1, 0
0, 0
0, 0
0, 0
1, 0
0, 0
0, 0
0, 1
0, 2
0, 0
0, 0
0, 1
0, 0
0, 1
0, 0
0, 0
1, 0
0, 0
0, 0
1, 1
1, 0
0, 0
0, 1
1, 0
1, 0
0, 0
0, 1
1, 0
0, 0
0, 0
0, 0
0, 0
0, 0
0, 0
0, 0
0, 0
1, 0
0, 1
0, 0
0, 0
0, 0
0, 0
0, 0
0, 0
0, 0
0, 0
0, 0
0, 0
0, 0
0, 0
0, 0
0, 0
0, 0
0, 0
1, 0
0, 0
0, 0
0, 0
0, 0
0, 0
0, 0
0, 0
0, 0
0, 0
0, 0
0, 0
0, 0
0, 0
0, 0
0, 0
0, 0
0, 0
0, 0
0, 0
0, 0
0, 0
0, 0
0, 0
0, 0
0, 0
0, 0
0, 0
0, 0
0, 0
0, 0
0, 0
0, 0
0, 0
0, 0
0, 0
0, 0
0, 0
0, 0
0, 0
0, 0
0, 0
0, 0
0, 0
0, 0
0, 0
0, 0
0, 0
0, 0
0, 0
0, 0
0, 0
0, 0
0, 0
0, 0
0, 0
0, 0
0, 0
0, 0
0, 0
0, 0
0, 0
0, 0
0, 0
0, 0
0, 0
0, 0
0, 0
0, 0
0, 0
0, 0
0, 0
0, 0
0, 0
0, 0
0, 0
0, 0
0, 0
0, 0
0, 0
0, 0
0, 0
0, 0
0, 0
0, 0
#ENDOFDATA     end of spectrum data

File: ps__0567_0717304816_000rfs_shot_201.msa
#FORMAT      : EMSA/MAS spectral data file
#VERSION     : TC202v2.0 PIXL
#TITLE       : Novarupta (sol567) subset1
#DATE        : 02-11-2024      Date in the format DD-MMM-YYYY, for example 07-JUL-2010
#TIME        :             The time of day at which the spectrum was recorded, in 24-hour format
#OWNER       : PIXL Flight Model       (PIXL will use this to indicate which instrument took the data.)
#NPOINTS     : 4096     Number of data points in the spectrum (This can be zero for configuration only files)
#NCOLUMNS    : 2     Number of data columns in the spectrum (This can be zero for configuration only files)
#XUNITS      : eV
#YUNITS      : COUNTS
#DATATYPE    : YY
#XPERCHAN    : 7.862, 7.881   eV per channel (separate by commas if more than one detector)
#OFFSET      : 18.5, -22.4         eV of first channel  (separate by commas if more than one detector
#SIGNALTYPE  : XRF
#YP_TEMP     : 0.632
#LIVETIME    : 8.8531, 8.83208   seconds (separate by commas if more than one detector)
#REALTIME    : 10, 10.0   seconds (separate by commas if more than one detector)
#SPECTRUM    : start of spectrum data
0, 0
0, 0
0, 0
0, 0
0, 0
0, 0
0, 0
1, 1
5, 5
2, 3
0, 1
6, 8
12, 16
30, 26
40, 36
99, 121
449, 504
123, 118
40, 28
25, 32
48, 56
270, 293
107, 111
78, 74
206, 230
129, 127
67, 72
24, 35
9, 9
11, 5
21, 32
21, 21
10, 23
222, 257
326, 311
60, 44
37, 56
45, 45
14, 9
8, 11
18, 32
62, 60
35, 30
12, 12
13, 9
22, 28
18, 12
5, 8
15, 15
35, 34
24, 15
10, 10
8, 15
26, 25
37, 41
28, 26
25, 41
392, 469
1587, 1758
1026, 956
116, 101
18, 15
20, 22
80, 112
257, 286
147, 128
22, 20
8, 9
12, 11
6, 15
4, 5
4, 5
4, 9
4, 6
5, 7
5, 10
5, 2
4, 3
9, 16
9, 17
6, 9
11, 2
7, 4
8, 4
5, 9
3, 2
8, 5
6, 7
8, 4
2, 2
5, 4
4, 5
2, 3
3, 4
3, 2
9, 2
5, 6
1, 3
2, 4
3, 0
4, 6
1, 6
2, 4
3, 3
0, 3
3, 3
2, 3
4, 7
1, 2
3, 3
2, 3
2, 2
3, 4
3, 0
1, 2
1, 2
1, 3
6, 2
3, 0
1, 2
0, 1
1, 1
1, 0
2, 1
2, 2
0, 0
3, 1
1, 0
4, 2
0, 1
6, 1
1, 0
0, 2
0, 1
0, 1
1, 0
0, 0
0, 2
1, 0
3, 0
0, 0
0, 0
1, 2
0, 1
1, 2
0, 1
0, 0
1, 0
0, 0
0, 0
0, 0
0, 0
1, 2
0, 0
0, 0
1, 0
1, 0
1, 0
0, 1
1, 0
1, 0
0, 0
0, 0
0, 0
0, 0
0, 0
1, 0
0, 0
0, 0
1, 1
0, 1
0, 1
1, 0
0, 0
0, 0
0, 1
0, 1
0, 1
0, 0
0, 0
0, 0
0, 0
0, 0
0, 0
0, 0
0, 1
0, 1
0, 0
0, 0
0, 0
0, 0
0, 0
1, 0
0, 0
1, 0
0, 0
0, 0
0, 0
0, 0
0, 0
0, 0
0, 0
0, 0
0, 0
0, 0
0, 0
0, 0
0, 0
0, 0
0, 0
0, 0
0, 0
0, 0
0, 0
0, 0
0, 0
0, 0
0, 0
0, 0
0, 0
0, 0
0, 0
0, 0
0, 0
0, 0
0, 0
0, 0
0, 0
0, 0
0, 0
0, 0
0, 0
0, 0
0, 0
0, 0
0, 0
0, 0
0, 0
0, 0
0, 0
0, 0
0, 0
0, 0
0, 0
0, 0
0, 0
0, 0
0, 0
0, 0
0, 0
0, 0
0, 0
0, 0
0, 0
0, 0
0, 0
0, 0
0, 0
0, 0
0, 0
0, 0
0, 0
0, 0
0, 0
0, 0
0, 0
0, 0
0, 0
0, 0
0, 0
0, 0
0, 0
0, 0
0, 0
0, 0
0, 0
0, 0
0, 0
0, 0
0, 0
0, 0
0, 0
0, 0
0, 0
0, 0
0, 0
0, 0
0, 0
0, 0
0, 0
0, 0
0, 0
0, 0
0, 0
#ENDOFDATA     end of spectrum data