Folder: data-repository/host_upload/02-11-2024/rqc/uplink1 (part 27)

File: ps__0567_0717304816_000rfs_shot_461.msa
#FORMAT      : EMSA/MAS spectral data file
#VERSION     : TC202v2.0 PIXL
#TITLE       : Novarupta (sol567) subset1
#DATE        : 02-11-2024      Date in the format DD-MMM-YYYY, for example 07-JUL-2010
#TIME        :             The time of day at which the spectrum was recorded, in 24-hour format
#OWNER       : PIXL Flight Model       (PIXL will use this to indicate which instrument took the data.)
#NPOINTS     : 4096     Number of data points in the spectrum (This can be zero for configuration only files)
#NCOLUMNS    : 2     Number of data columns in the spectrum (This can be zero for configuration only files)
#XUNITS      : eV
#YUNITS      : COUNTS
#DATATYPE    : YY
#XPERCHAN    : 7.862, 7.881   eV per channel (separate by commas if more than one detector)
#OFFSET      : 18.5, -22.4         eV of first channel  (separate by commas if more than one detector
#SIGNALTYPE  : XRF
#YP_TEMP     : 1.883
#LIVETIME    : 8.83128, 8.8212   seconds (separate by commas if more than one detector)
#REALTIME    : 10, 10.0   seconds (separate by commas if more than one detector)
#SPECTRUM    : start of spectrum data
0, 0
0, 0
0, 0
0, 0
0, 0
0, 0
0, 0
0, 2
4, 4
3, 3
3, 2
8, 9
11, 9
19, 24
36, 47
110, 112
507, 489
116, 125
17, 27
18, 21
52, 60
299, 317
112, 113
68, 61
187, 214
94, 124
75, 58
31, 31
12, 10
9, 9
34, 26
9, 16
15, 21
194, 216
313, 344
53, 47
35, 40
43, 60
12, 5
9, 6
17, 24
59, 65
40, 48
15, 9
18, 18
10, 17
16, 9
10, 14
15, 19
28, 36
34, 24
6, 11
14, 15
28, 36
46, 60
24, 16
24, 29
352, 412
1607, 1826
1114, 1040
127, 100
17, 24
18, 23
74, 109
259, 284
138, 145
27, 22
7, 10
17, 12
11, 9
5, 10
12, 7
10, 9
2, 9
11, 9
5, 4
6, 7
5, 7
12, 10
17, 10
9, 5
4, 4
8, 4
3, 6
2, 8
4, 2
6, 7
9, 7
1, 4
5, 2
3, 7
7, 2
7, 2
2, 6
1, 7
7, 4
2, 5
1, 3
5, 0
3, 4
7, 4
3, 0
3, 2
4, 3
2, 3
3, 1
4, 3
0, 4
4, 4
0, 4
1, 1
1, 3
4, 1
0, 2
3, 1
4, 3
0, 2
3, 3
1, 2
1, 3
0, 4
1, 2
1, 1
0, 2
1, 3
0, 1
2, 3
1, 1
3, 2
1, 3
1, 1
0, 0
0, 0
0, 0
0, 1
1, 0
0, 0
1, 0
0, 2
1, 0
0, 0
3, 1
0, 0
1, 3
0, 0
0, 0
0, 0
1, 0
1, 0
0, 1
1, 0
0, 1
1, 1
0, 2
0, 0
0, 0
0, 0
0, 0
0, 0
0, 1
1, 0
1, 0
0, 0
1, 0
0, 0
0, 0
2, 0
0, 0
1, 0
1, 0
1, 0
0, 1
1, 0
0, 1
0, 1
0, 0
1, 0
0, 1
0, 0
0, 0
0, 0
0, 0
0, 0
0, 0
0, 0
0, 0
0, 0
0, 0
0, 0
0, 0
0, 0
0, 0
0, 0
0, 0
0, 0
0, 0
0, 0
0, 0
0, 0
0, 1
0, 0
0, 0
0, 0
1, 0
0, 0
1, 0
0, 0
0, 0
0, 0
0, 0
0, 0
0, 0
0, 0
0, 0
0, 0
0, 0
0, 0
0, 0
0, 0
0, 0
0, 0
0, 0
0, 0
0, 0
0, 0
0, 0
0, 0
0, 0
0, 0
0, 0
0, 0
0, 0
0, 0
0, 0
0, 0
0, 0
0, 0
0, 0
0, 0
0, 0
0, 0
0, 0
0, 0
0, 0
0, 0
0, 0
0, 0
0, 0
0, 0
0, 0
0, 0
0, 0
0, 0
0, 0
0, 0
0, 0
0, 0
0, 0
0, 0
0, 0
0, 0
0, 0
0, 0
0, 0
0, 0
0, 0
0, 0
0, 0
0, 0
0, 0
0, 0
0, 0
0, 0
0, 0
0, 0
0, 0
0, 0
0, 0
0, 0
0, 0
0, 0
0, 0
0, 0
0, 0
0, 0
0, 0
0, 0
0, 0
0, 0
0, 0
0, 0
0, 0
0, 0
0, 0
#ENDOFDATA     end of spectrum data

File: ps__0567_0717304816_000rfs_shot_462.msa
#FORMAT      : EMSA/MAS spectral data file
#VERSION     : TC202v2.0 PIXL
#TITLE       : Novarupta (sol567) subset1
#DATE        : 02-11-2024      Date in the format DD-MMM-YYYY, for example 07-JUL-2010
#TIME        :             The time of day at which the spectrum was recorded, in 24-hour format
#OWNER       : PIXL Flight Model       (PIXL will use this to indicate which instrument took the data.)
#NPOINTS     : 4096     Number of data points in the spectrum (This can be zero for configuration only files)
#NCOLUMNS    : 2     Number of data columns in the spectrum (This can be zero for configuration only files)
#XUNITS      : eV
#YUNITS      : COUNTS
#DATATYPE    : YY
#XPERCHAN    : 7.862, 7.881   eV per channel (separate by commas if more than one detector)
#OFFSET      : 18.5, -22.4         eV of first channel  (separate by commas if more than one detector
#SIGNALTYPE  : XRF
#YP_TEMP     : 1.883
#LIVETIME    : 8.83987, 8.82035   seconds (separate by commas if more than one detector)
#REALTIME    : 10, 10.0   seconds (separate by commas if more than one detector)
#SPECTRUM    : start of spectrum data
0, 0
0, 0
0, 0
0, 0
0, 0
0, 0
0, 0
0, 1
3, 2
1, 0
2, 3
14, 8
10, 21
24, 23
40, 40
83, 130
455, 516
120, 116
31, 29
19, 21
67, 62
305, 282
111, 135
65, 67
198, 223
96, 130
62, 61
27, 31
15, 14
8, 14
27, 32
9, 15
14, 23
184, 241
310, 326
60, 60
24, 39
46, 55
10, 7
9, 9
25, 28
61, 68
33, 37
17, 14
9, 21
19, 14
15, 16
13, 9
5, 22
35, 48
20, 29
18, 13
17, 12
25, 31
49, 70
20, 17
29, 32
350, 431
1572, 1729
1066, 959
129, 109
24, 9
16, 25
72, 91
265, 253
155, 142
21, 21
16, 5
12, 18
7, 5
4, 10
6, 7
7, 3
4, 9
7, 10
11, 10
7, 3
6, 9
11, 11
7, 9
13, 9
10, 5
7, 9
5, 5
3, 4
8, 7
11, 5
0, 4
4, 2
2, 2
4, 5
4, 5
2, 3
5, 1
3, 12
5, 4
6, 4
6, 2
2, 5
6, 7
2, 3
1, 2
3, 4
3, 1
1, 1
5, 2
0, 3
3, 1
0, 2
3, 2
3, 3
2, 2
2, 4
1, 2
4, 4
1, 3
2, 3
2, 1
1, 0
1, 3
2, 2
2, 0
1, 1
1, 0
1, 1
2, 0
0, 0
0, 1
2, 1
1, 0
1, 2
0, 2
0, 2
0, 1
0, 1
0, 1
0, 1
1, 1
0, 0
0, 1
0, 3
2, 1
1, 1
0, 0
2, 0
1, 0
1, 0
0, 0
0, 0
0, 1
0, 0
0, 0
0, 0
0, 2
0, 0
0, 0
1, 0
0, 0
1, 0
1, 0
0, 0
0, 0
1, 0
0, 0
0, 0
0, 0
1, 0
0, 1
1, 1
0, 1
1, 1
0, 0
0, 1
0, 0
1, 0
0, 0
0, 1
0, 0
0, 0
0, 0
0, 0
0, 0
0, 1
0, 1
0, 0
0, 0
0, 0
0, 0
0, 0
0, 0
0, 0
0, 0
0, 1
0, 0
0, 0
0, 0
0, 0
0, 0
0, 0
0, 0
0, 0
0, 0
0, 0
0, 0
0, 0
0, 0
0, 0
0, 0
0, 0
0, 0
0, 0
0, 0
0, 0
1, 0
0, 0
0, 0
0, 0
0, 0
0, 0
0, 0
0, 0
0, 0
0, 0
0, 0
0, 0
0, 0
0, 0
0, 0
0, 0
0, 0
0, 0
0, 0
0, 0
0, 0
0, 0
0, 0
0, 0
0, 0
0, 0
0, 0
0, 0
0, 0
0, 0
0, 0
0, 0
0, 0
0, 0
0, 0
0, 0
0, 0
0, 0
0, 0
0, 0
0, 0
0, 0
0, 0
0, 0
0, 0
0, 0
0, 0
0, 0
0, 0
0, 0
0, 0
0, 0
0, 0
0, 0
0, 0
0, 0
0, 0
0, 0
0, 0
0, 0
0, 0
0, 0
0, 0
0, 0
0, 0
0, 0
0, 0
0, 0
0, 0
0, 0
0, 0
0, 0
0, 0
0, 0
0, 0
0, 0
0, 0
0, 0
0, 0
0, 0
0, 0
#ENDOFDATA     end of spectrum data

File: ps__0567_0717304816_000rfs_shot_463.msa
#FORMAT      : EMSA/MAS spectral data file
#VERSION     : TC202v2.0 PIXL
#TITLE       : Novarupta (sol567) subset1
#DATE        : 02-11-2024      Date in the format DD-MMM-YYYY, for example 07-JUL-2010
#TIME        :             The time of day at which the spectrum was recorded, in 24-hour format
#OWNER       : PIXL Flight Model       (PIXL will use this to indicate which instrument took the data.)
#NPOINTS     : 4096     Number of data points in the spectrum (This can be zero for configuration only files)
#NCOLUMNS    : 2     Number of data columns in the spectrum (This can be zero for configuration only files)
#XUNITS      : eV
#YUNITS      : COUNTS
#DATATYPE    : YY
#XPERCHAN    : 7.862, 7.881   eV per channel (separate by commas if more than one detector)
#OFFSET      : 18.5, -22.4         eV of first channel  (separate by commas if more than one detector
#SIGNALTYPE  : XRF
#YP_TEMP     : 1.818
#LIVETIME    : 8.85051, 8.81608   seconds (separate by commas if more than one detector)
#REALTIME    : 10, 10.0   seconds (separate by commas if more than one detector)
#SPECTRUM    : start of spectrum data
0, 0
0, 0
0, 0
0, 0
0, 0
0, 0
0, 0
1, 0
5, 5
5, 7
5, 4
9, 10
14, 25
17, 29
41, 45
99, 125
497, 548
120, 116
17, 41
16, 29
38, 53
307, 302
118, 129
76, 76
217, 250
110, 117
65, 87
28, 30
9, 7
7, 8
23, 27
14, 15
16, 16
183, 219
317, 343
47, 53
31, 44
46, 52
9, 17
8, 14
24, 22
56, 64
25, 42
11, 13
15, 7
14, 18
17, 16
5, 12
10, 18
22, 24
26, 29
13, 9
14, 15
32, 31
36, 61
21, 24
20, 26
322, 497
1543, 1811
1017, 1060
105, 109
17, 19
13, 12
77, 95
217, 256
173, 172
22, 18
5, 9
7, 10
5, 9
2, 4
3, 7
3, 3
6, 14
7, 7
5, 13
6, 6
7, 7
9, 13
7, 10
2, 7
7, 8
5, 5
5, 5
5, 7
5, 6
7, 3
5, 5
4, 4
4, 4
4, 5
4, 2
2, 5
4, 1
6, 3
5, 5
1, 2
3, 5
1, 1
1, 1
3, 2
4, 4
4, 3
2, 6
3, 1
1, 1
5, 1
1, 3
3, 3
1, 0
1, 2
0, 0
0, 1
2, 4
1, 2
2, 1
1, 2
2, 0
2, 0
1, 0
4, 2
2, 1
5, 3
4, 0
0, 1
0, 0
0, 1
0, 0
3, 2
1, 5
1, 0
0, 2
0, 1
1, 2
0, 1
0, 1
0, 1
1, 0
0, 1
0, 1
0, 0
1, 1
0, 1
1, 0
0, 0
0, 1
0, 1
0, 1
0, 1
0, 0
1, 0
1, 0
0, 1
0, 1
0, 0
0, 1
0, 0
1, 1
0, 1
0, 0
1, 0
0, 0
0, 0
0, 0
0, 0
0, 1
0, 0
0, 0
0, 0
0, 1
0, 0
0, 0
0, 0
0, 0
1, 1
0, 0
0, 0
0, 1
0, 0
0, 0
0, 0
0, 1
0, 0
0, 1
0, 0
0, 2
0, 0
0, 0
0, 0
0, 0
0, 0
0, 0
0, 0
0, 0
0, 0
0, 0
0, 0
0, 0
0, 0
0, 0
0, 0
0, 0
0, 0
0, 0
0, 0
0, 0
0, 0
0, 0
0, 0
0, 0
0, 0
0, 0
0, 0
0, 0
0, 0
0, 0
0, 0
0, 0
0, 0
0, 0
0, 0
0, 0
0, 0
0, 0
0, 0
0, 0
0, 0
0, 0
0, 0
0, 0
0, 0
0, 0
0, 0
0, 0
0, 0
0, 0
0, 0
0, 0
0, 0
0, 0
0, 0
0, 0
0, 0
0, 0
0, 0
0, 0
0, 0
0, 0
0, 0
0, 0
0, 0
0, 0
0, 0
0, 0
0, 0
0, 0
0, 0
0, 0
0, 0
0, 0
0, 0
0, 0
0, 0
0, 0
0, 0
0, 0
0, 0
0, 0
0, 0
0, 0
0, 0
0, 0
0, 0
0, 0
0, 0
0, 0
0, 0
0, 0
0, 0
0, 0
0, 0
0, 0
0, 0
0, 0
0, 0
0, 0
0, 0
0, 0
0, 0
0, 0
0, 0
0, 0
0, 0
0, 0
#ENDOFDATA     end of spectrum data

File: ps__0567_0717304816_000rfs_shot_465.msa
#FORMAT      : EMSA/MAS spectral data file
#VERSION     : TC202v2.0 PIXL
#TITLE       : Novarupta (sol567) subset1
#DATE        : 02-11-2024      Date in the format DD-MMM-YYYY, for example 07-JUL-2010
#TIME        :             The time of day at which the spectrum was recorded, in 24-hour format
#OWNER       : PIXL Flight Model       (PIXL will use this to indicate which instrument took the data.)
#NPOINTS     : 4096     Number of data points in the spectrum (This can be zero for configuration only files)
#NCOLUMNS    : 2     Number of data columns in the spectrum (This can be zero for configuration only files)
#XUNITS      : eV
#YUNITS      : COUNTS
#DATATYPE    : YY
#XPERCHAN    : 7.862, 7.881   eV per channel (separate by commas if more than one detector)
#OFFSET      : 18.5, -22.4         eV of first channel  (separate by commas if more than one detector
#SIGNALTYPE  : XRF
#YP_TEMP     : 2.043
#LIVETIME    : 8.83235, 8.82095   seconds (separate by commas if more than one detector)
#REALTIME    : 10, 10.0   seconds (separate by commas if more than one detector)
#SPECTRUM    : start of spectrum data
0, 0
0, 0
0, 0
0, 0
0, 0
0, 0
0, 0
0, 0
2, 3
0, 4
3, 5
9, 7
5, 19
17, 29
41, 40
112, 129
490, 581
104, 111
24, 31
21, 22
38, 60
275, 307
120, 124
77, 66
228, 272
108, 127
67, 59
26, 34
8, 7
12, 7
25, 32
17, 14
16, 18
186, 238
324, 356
55, 47
41, 39
51, 61
7, 13
8, 7
23, 29
65, 72
34, 35
15, 13
17, 10
15, 20
12, 13
16, 13
15, 21
30, 30
19, 24
15, 15
12, 13
32, 42
44, 53
17, 26
32, 36
317, 496
1554, 1839
1066, 1050
131, 111
20, 19
27, 25
69, 74
246, 289
139, 140
28, 11
5, 12
5, 14
11, 6
5, 6
5, 5
2, 5
4, 7
2, 11
10, 8
1, 7
5, 6
14, 10
11, 3
8, 5
10, 4
1, 6
4, 9
11, 4
7, 4
6, 7
6, 6
5, 2
3, 5
7, 5
4, 3
7, 3
3, 6
4, 4
4, 1
1, 6
2, 8
4, 3
1, 6
2, 5
4, 2
2, 2
1, 2
7, 1
2, 5
1, 5
1, 1
1, 0
2, 2
0, 1
4, 2
2, 3
0, 1
1, 1
3, 2
3, 3
3, 1
0, 0
2, 4
2, 0
0, 0
1, 2
6, 0
1, 3
2, 1
0, 0
1, 1
1, 1
0, 1
1, 1
1, 1
0, 1
1, 1
1, 1
1, 0
1, 0
2, 2
0, 1
1, 0
2, 1
1, 1
2, 3
3, 1
0, 0
0, 0
0, 2
0, 0
1, 0
0, 0
1, 2
0, 0
1, 0
0, 1
0, 1
1, 0
0, 2
0, 0
0, 0
0, 0
1, 1
1, 1
0, 0
0, 0
0, 0
1, 1
0, 0
0, 0
0, 1
0, 0
0, 0
0, 0
1, 0
0, 2
0, 0
0, 1
0, 0
0, 0
0, 0
0, 0
0, 0
0, 1
0, 0
0, 0
0, 1
0, 0
0, 0
0, 0
0, 0
0, 0
0, 0
0, 0
0, 0
0, 0
0, 0
0, 0
0, 0
0, 0
0, 0
0, 0
0, 0
0, 0
0, 0
0, 0
0, 0
1, 0
0, 0
0, 0
0, 0
0, 0
0, 0
0, 0
0, 0
0, 0
0, 0
0, 0
0, 0
0, 0
0, 0
0, 0
0, 0
0, 0
0, 0
0, 0
0, 0
0, 0
0, 0
0, 0
0, 0
0, 0
0, 0
0, 0
0, 0
0, 0
0, 0
0, 0
0, 0
0, 0
0, 0
0, 0
0, 0
0, 0
0, 0
0, 0
0, 0
0, 0
0, 0
0, 0
0, 0
0, 0
0, 0
0, 0
0, 0
0, 0
0, 0
0, 0
0, 0
0, 0
0, 0
0, 0
0, 0
0, 0
0, 0
0, 0
0, 0
0, 0
0, 0
0, 0
0, 0
0, 0
0, 0
0, 0
0, 0
0, 0
0, 0
0, 0
0, 0
0, 0
0, 0
0, 0
0, 0
0, 0
0, 0
0, 0
0, 0
0, 0
0, 0
0, 0
0, 0
0, 0
0, 0
0, 0
0, 0
0, 0
#ENDOFDATA     end of spectrum data

File: ps__0567_0717304816_000rfs_shot_467.msa
#FORMAT      : EMSA/MAS spectral data file
#VERSION     : TC202v2.0 PIXL
#TITLE       : Novarupta (sol567) subset1
#DATE        : 02-11-2024      Date in the format DD-MMM-YYYY, for example 07-JUL-2010
#TIME        :             The time of day at which the spectrum was recorded, in 24-hour format
#OWNER       : PIXL Flight Model       (PIXL will use this to indicate which instrument took the data.)
#NPOINTS     : 4096     Number of data points in the spectrum (This can be zero for configuration only files)
#NCOLUMNS    : 2     Number of data columns in the spectrum (This can be zero for configuration only files)
#XUNITS      : eV
#YUNITS      : COUNTS
#DATATYPE    : YY
#XPERCHAN    : 7.862, 7.881   eV per channel (separate by commas if more than one detector)
#OFFSET      : 18.5, -22.4         eV of first channel  (separate by commas if more than one detector
#SIGNALTYPE  : XRF
#YP_TEMP     : 1.979
#LIVETIME    : 8.84115, 8.8188   seconds (separate by commas if more than one detector)
#REALTIME    : 10, 10.0   seconds (separate by commas if more than one detector)
#SPECTRUM    : start of spectrum data
0, 0
0, 0
0, 0
0, 0
0, 0
0, 0
0, 0
0, 0
6, 4
2, 3
2, 3
15, 7
13, 12
21, 20
34, 39
116, 138
487, 525
126, 115
32, 27
20, 22
41, 62
280, 338
126, 104
79, 72
224, 238
99, 122
63, 75
29, 27
8, 5
10, 8
25, 26
12, 19
19, 18
203, 266
294, 313
44, 49
32, 48
51, 43
11, 13
13, 12
19, 24
59, 57
37, 34
9, 9
19, 14
24, 14
20, 15
13, 5
9, 10
19, 37
20, 24
12, 15
13, 14
33, 45
49, 50
16, 20
24, 44
344, 467
1519, 1864
1075, 1042
118, 106
21, 15
14, 22
80, 100
243, 302
159, 179
21, 16
10, 5
16, 14
9, 8
5, 10
5, 6
5, 6
1, 8
9, 11
7, 7
11, 5
11, 9
14, 18
10, 10
3, 5
5, 5
7, 7
7, 5
6, 3
7, 3
4, 3
9, 5
3, 7
3, 5
3, 2
1, 2
5, 6
4, 2
5, 5
6, 4
3, 5
5, 3
3, 4
6, 5
3, 4
6, 1
1, 2
1, 2
5, 2
5, 2
5, 6
5, 4
3, 5
0, 4
3, 1
0, 3
2, 2
4, 8
1, 4
3, 3
0, 4
5, 2
3, 1
1, 1
1, 0
0, 2
0, 5
0, 2
1, 1
2, 1
2, 5
1, 0
0, 0
2, 3
2, 0
2, 0
1, 0
1, 0
0, 0
0, 2
0, 1
1, 0
0, 0
1, 1
0, 1
2, 1
2, 0
0, 1
1, 1
1, 0
0, 0
2, 1
0, 1
0, 1
1, 0
0, 0
0, 0
0, 0
1, 1
0, 0
0, 0
0, 0
0, 0
0, 0
1, 0
1, 0
1, 1
0, 0
0, 0
0, 0
0, 1
0, 1
0, 1
0, 1
0, 0
0, 0
0, 0
0, 0
1, 0
0, 1
0, 0
1, 0
0, 0
0, 0
0, 0
0, 0
0, 0
0, 0
0, 1
0, 0
0, 1
0, 0
0, 0
0, 0
0, 0
0, 0
0, 0
0, 0
0, 0
0, 0
0, 0
0, 0
0, 0
0, 0
0, 0
0, 0
0, 0
0, 0
0, 0
0, 0
0, 0
0, 0
0, 0
0, 0
0, 0
0, 0
0, 0
0, 0
0, 0
0, 0
0, 0
0, 0
0, 0
0, 0
0, 0
0, 0
0, 0
0, 0
0, 0
0, 0
0, 0
0, 0
0, 0
0, 0
0, 0
0, 0
0, 0
0, 0
0, 0
0, 0
0, 0
0, 0
0, 0
0, 0
0, 0
0, 0
0, 0
0, 0
0, 0
0, 0
0, 0
0, 0
0, 0
0, 0
0, 0
0, 0
0, 0
0, 0
0, 0
0, 0
0, 0
0, 0
0, 0
0, 0
0, 0
0, 0
0, 0
0, 0
0, 0
0, 0
0, 0
0, 0
0, 0
0, 0
0, 0
0, 0
0, 0
0, 0
0, 0
0, 0
0, 0
0, 0
0, 0
0, 0
0, 0
0, 0
0, 0
0, 0
0, 0
0, 0
0, 0
0, 0
0, 0
0, 0
0, 0
0, 0
0, 0
0, 0
#ENDOFDATA     end of spectrum data

File: ps__0567_0717304816_000rfs_shot_468.msa
#FORMAT      : EMSA/MAS spectral data file
#VERSION     : TC202v2.0 PIXL
#TITLE       : Novarupta (sol567) subset1
#DATE        : 02-11-2024      Date in the format DD-MMM-YYYY, for example 07-JUL-2010
#TIME        :             The time of day at which the spectrum was recorded, in 24-hour format
#OWNER       : PIXL Flight Model       (PIXL will use this to indicate which instrument took the data.)
#NPOINTS     : 4096     Number of data points in the spectrum (This can be zero for configuration only files)
#NCOLUMNS    : 2     Number of data columns in the spectrum (This can be zero for configuration only files)
#XUNITS      : eV
#YUNITS      : COUNTS
#DATATYPE    : YY
#XPERCHAN    : 7.862, 7.881   eV per channel (separate by commas if more than one detector)
#OFFSET      : 18.5, -22.4         eV of first channel  (separate by commas if more than one detector
#SIGNALTYPE  : XRF
#YP_TEMP     : 2.267
#LIVETIME    : 8.83367, 8.82328   seconds (separate by commas if more than one detector)
#REALTIME    : 10, 10.0   seconds (separate by commas if more than one detector)
#SPECTRUM    : start of spectrum data
0, 0
0, 0
0, 0
0, 0
0, 0
0, 0
0, 0
0, 0
1, 3
3, 2
0, 4
9, 9
8, 20
20, 25
34, 49
93, 117
483, 521
131, 129
28, 39
19, 25
48, 71
293, 315
110, 100
62, 73
236, 244
134, 120
64, 92
16, 34
11, 12
5, 5
23, 33
14, 20
12, 22
193, 225
308, 326
53, 49
33, 37
44, 43
14, 9
14, 8
21, 21
63, 66
26, 28
18, 15
13, 15
22, 20
12, 15
9, 8
21, 20
25, 35
30, 19
12, 13
11, 18
33, 39
53, 39
18, 24
29, 26
332, 479
1549, 1772
1108, 1065
115, 81
13, 22
17, 23
82, 101
243, 296
161, 140
13, 23
13, 8
13, 7
6, 7
5, 12
4, 7
5, 8
2, 8
9, 13
5, 9
6, 5
4, 6
12, 11
13, 7
11, 7
9, 5
4, 10
8, 5
5, 7
4, 5
0, 7
1, 7
3, 3
7, 5
5, 2
3, 2
2, 1
4, 3
4, 3
4, 3
1, 4
4, 4
5, 6
1, 3
2, 3
2, 4
1, 7
5, 4
1, 0
5, 2
2, 4
4, 6
3, 4
2, 1
3, 4
2, 0
3, 2
1, 2
2, 4
1, 1
4, 5
1, 2
3, 4
2, 3
2, 1
2, 3
1, 3
2, 2
1, 1
1, 1
0, 2
0, 1
0, 1
3, 0
1, 0
3, 1
0, 2
2, 1
2, 2
1, 0
0, 2
0, 0
1, 1
1, 0
0, 1
0, 0
1, 2
0, 1
0, 1
0, 0
0, 0
1, 0
1, 2
0, 0
1, 2
0, 1
1, 2
0, 1
0, 0
0, 0
0, 0
0, 1
0, 0
1, 1
0, 1
0, 0
0, 0
0, 1
0, 0
0, 0
0, 0
0, 0
0, 1
0, 1
1, 1
1, 0
1, 0
0, 0
0, 0
0, 1
0, 0
0, 0
0, 0
0, 1
0, 0
0, 0
0, 0
0, 0
1, 0
1, 0
0, 0
0, 0
0, 1
0, 0
0, 0
0, 0
0, 0
0, 0
0, 0
0, 0
1, 0
0, 0
0, 0
0, 0
0, 0
0, 0
0, 0
0, 0
0, 0
0, 0
0, 0
0, 0
0, 0
0, 0
0, 0
0, 0
0, 0
0, 1
0, 0
0, 0
0, 0
0, 0
0, 0
0, 0
0, 0
0, 0
0, 0
0, 0
0, 0
0, 0
0, 0
0, 0
0, 0
0, 0
0, 0
0, 0
0, 0
0, 0
0, 0
0, 0
0, 0
0, 0
0, 0
0, 0
0, 0
0, 0
0, 0
0, 0
0, 0
0, 0
0, 0
0, 0
0, 0
0, 0
0, 0
0, 0
0, 0
0, 0
0, 0
0, 0
0, 0
0, 0
0, 0
0, 0
0, 0
0, 0
0, 0
0, 0
0, 0
0, 0
0, 0
0, 0
0, 0
0, 0
0, 0
0, 0
0, 0
0, 0
0, 0
0, 0
0, 0
0, 0
0, 0
0, 0
0, 0
0, 0
0, 0
0, 0
0, 0
0, 0
0, 0
0, 0
0, 0
0, 0
0, 0
0, 0
0, 0
0, 0
#ENDOFDATA     end of spectrum data

File: ps__0567_0717304816_000rfs_shot_470.msa
#FORMAT      : EMSA/MAS spectral data file
#VERSION     : TC202v2.0 PIXL
#TITLE       : Novarupta (sol567) subset1
#DATE        : 02-11-2024      Date in the format DD-MMM-YYYY, for example 07-JUL-2010
#TIME        :             The time of day at which the spectrum was recorded, in 24-hour format
#OWNER       : PIXL Flight Model       (PIXL will use this to indicate which instrument took the data.)
#NPOINTS     : 4096     Number of data points in the spectrum (This can be zero for configuration only files)
#NCOLUMNS    : 2     Number of data columns in the spectrum (This can be zero for configuration only files)
#XUNITS      : eV
#YUNITS      : COUNTS
#DATATYPE    : YY
#XPERCHAN    : 7.862, 7.881   eV per channel (separate by commas if more than one detector)
#OFFSET      : 18.5, -22.4         eV of first channel  (separate by commas if more than one detector
#SIGNALTYPE  : XRF
#YP_TEMP     : 1.915
#LIVETIME    : 8.83397, 8.80724   seconds (separate by commas if more than one detector)
#REALTIME    : 10, 10.0   seconds (separate by commas if more than one detector)
#SPECTRUM    : start of spectrum data
0, 0
0, 0
0, 0
0, 0
0, 0
0, 0
0, 0
0, 1
5, 3
2, 5
4, 2
8, 6
15, 15
21, 30
26, 43
90, 124
490, 527
138, 95
33, 39
31, 21
44, 59
292, 329
97, 132
60, 68
170, 216
106, 114
62, 70
29, 22
10, 14
8, 5
28, 41
17, 26
11, 24
202, 281
337, 352
50, 61
38, 40
56, 46
17, 13
12, 12
18, 23
59, 66
29, 42
9, 9
10, 16
12, 21
10, 18
13, 11
15, 18
23, 41
19, 20
15, 27
20, 12
20, 29
51, 50
16, 22
30, 31
326, 478
1584, 1923
1076, 1079
144, 113
13, 21
23, 19
80, 109
206, 309
149, 170
17, 15
12, 9
8, 15
13, 5
5, 5
9, 4
9, 10
6, 13
7, 4
6, 10
5, 6
9, 11
7, 9
9, 21
5, 8
8, 4
1, 4
3, 3
5, 7
7, 7
4, 5
7, 7
6, 5
5, 2
4, 9
4, 5
4, 3
0, 6
5, 3
4, 7
1, 7
2, 3
1, 3
3, 2
5, 4
0, 3
3, 2
3, 1
4, 1
2, 3
5, 5
1, 2
4, 3
2, 5
0, 2
0, 4
1, 4
1, 2
3, 2
0, 3
0, 5
3, 2
2, 3
3, 2
1, 2
0, 5
0, 2
1, 3
3, 1
2, 0
2, 1
0, 4
0, 0
0, 0
1, 0
1, 2
0, 2
4, 1
1, 2
1, 2
2, 2
0, 1
1, 0
1, 0
0, 1
0, 2
0, 3
0, 0
1, 1
1, 1
0, 0
1, 0
0, 0
1, 0
0, 0
0, 1
1, 0
0, 1
0, 0
0, 0
1, 0
0, 0
0, 0
1, 0
0, 0
1, 0
0, 1
0, 0
0, 0
0, 0
0, 0
0, 0
1, 1
0, 0
0, 0
0, 0
0, 1
0, 0
1, 0
0, 0
0, 0
0, 0
0, 0
0, 1
0, 0
0, 0
0, 0
0, 0
0, 1
0, 0
0, 0
0, 0
0, 0
0, 0
0, 0
0, 0
0, 1
1, 0
0, 0
0, 0
0, 0
1, 0
0, 0
0, 0
0, 0
0, 0
0, 0
0, 0
0, 1
0, 0
0, 1
1, 0
0, 0
0, 0
0, 0
0, 0
0, 0
0, 0
0, 0
0, 0
0, 0
0, 0
0, 0
0, 0
0, 0
0, 0
0, 0
0, 0
0, 0
0, 0
0, 0
0, 0
0, 0
0, 0
0, 0
0, 0
0, 0
0, 0
0, 0
0, 0
0, 0
0, 0
0, 0
0, 0
0, 0
0, 0
0, 0
0, 0
0, 0
0, 0
0, 0
0, 0
0, 0
0, 0
0, 0
0, 0
0, 0
0, 0
0, 0
0, 0
0, 0
0, 0
0, 0
0, 0
0, 0
0, 0
0, 0
0, 0
0, 0
0, 0
0, 0
0, 0
0, 0
0, 0
0, 0
0, 0
0, 0
0, 0
0, 0
0, 0
0, 0
0, 0
0, 0
0, 0
0, 0
0, 0
0, 0
0, 0
0, 0
0, 0
0, 0
0, 0
0, 0
0, 0
0, 0
0, 0
0, 0
0, 0
#ENDOFDATA     end of spectrum data

File: ps__0567_0717304816_000rfs_shot_471.msa
#FORMAT      : EMSA/MAS spectral data file
#VERSION     : TC202v2.0 PIXL
#TITLE       : Novarupta (sol567) subset1
#DATE        : 02-11-2024      Date in the format DD-MMM-YYYY, for example 07-JUL-2010
#TIME        :             The time of day at which the spectrum was recorded, in 24-hour format
#OWNER       : PIXL Flight Model       (PIXL will use this to indicate which instrument took the data.)
#NPOINTS     : 4096     Number of data points in the spectrum (This can be zero for configuration only files)
#NCOLUMNS    : 2     Number of data columns in the spectrum (This can be zero for configuration only files)
#XUNITS      : eV
#YUNITS      : COUNTS
#DATATYPE    : YY
#XPERCHAN    : 7.862, 7.881   eV per channel (separate by commas if more than one detector)
#OFFSET      : 18.5, -22.4         eV of first channel  (separate by commas if more than one detector
#SIGNALTYPE  : XRF
#YP_TEMP     : 1.915
#LIVETIME    : 8.83659, 8.80857   seconds (separate by commas if more than one detector)
#REALTIME    : 10, 10.0   seconds (separate by commas if more than one detector)
#SPECTRUM    : start of spectrum data
0, 0
0, 0
0, 0
0, 0
0, 0
0, 0
0, 0
1, 2
1, 1
7, 4
6, 2
9, 7
16, 22
21, 31
48, 54
109, 108
431, 555
112, 117
27, 24
25, 19
40, 55
277, 312
120, 126
74, 92
226, 282
105, 127
77, 84
25, 36
10, 9
7, 5
22, 30
17, 20
21, 30
179, 248
301, 338
50, 46
37, 54
51, 51
11, 17
6, 14
23, 27
51, 70
45, 38
16, 14
5, 15
21, 12
17, 19
11, 15
15, 16
26, 25
19, 33
11, 11
7, 16
23, 34
48, 42
28, 26
27, 29
311, 461
1538, 1882
1121, 1103
126, 118
19, 25
29, 28
85, 127
243, 327
142, 174
31, 21
7, 14
17, 14
8, 5
6, 7
6, 6
7, 10
7, 6
6, 6
8, 5
10, 7
6, 8
11, 15
10, 6
7, 9
7, 5
6, 7
6, 3
4, 6
5, 8
8, 4
7, 7
6, 7
7, 5
6, 4
1, 6
4, 5
2, 1
2, 1
5, 4
2, 6
5, 3
1, 3
1, 2
1, 3
0, 6
5, 6
3, 4
2, 6
4, 6
2, 3
1, 2
2, 2
1, 4
4, 2
0, 1
1, 1
2, 4
2, 3
3, 0
5, 1
2, 3
0, 3
2, 3
3, 3
5, 0
1, 2
4, 1
2, 1
0, 0
2, 1
0, 1
1, 1
1, 0
0, 2
1, 1
1, 2
1, 2
0, 2
0, 1
0, 0
1, 2
0, 1
0, 1
1, 2
0, 2
1, 1
1, 1
0, 0
0, 0
0, 1
1, 0
0, 0
0, 3
0, 1
0, 1
1, 0
1, 0
0, 0
0, 0
2, 1
0, 0
0, 0
1, 3
0, 0
1, 1
0, 0
0, 0
0, 0
1, 0
1, 1
0, 0
1, 0
0, 0
0, 1
1, 0
1, 0
0, 0
1, 0
0, 0
1, 0
0, 0
1, 0
0, 0
0, 0
0, 0
0, 1
0, 0
0, 0
0, 0
0, 0
0, 0
0, 0
0, 0
0, 0
0, 0
0, 1
0, 0
0, 0
0, 0
0, 0
0, 0
0, 0
0, 0
0, 0
0, 0
0, 0
0, 0
0, 0
0, 0
0, 0
0, 0
0, 0
0, 0
0, 0
0, 0
0, 0
0, 0
0, 0
0, 0
0, 1
0, 0
0, 0
0, 0
0, 0
0, 0
0, 0
0, 0
0, 0
0, 0
0, 0
0, 0
0, 0
0, 0
0, 0
0, 0
0, 0
0, 0
0, 0
0, 0
0, 0
0, 0
0, 0
0, 0
0, 0
0, 0
0, 0
0, 0
0, 0
0, 0
0, 0
0, 0
0, 0
0, 0
0, 0
0, 0
0, 0
0, 0
0, 0
0, 0
0, 0
0, 0
0, 0
0, 0
0, 0
0, 0
0, 0
0, 0
0, 0
0, 0
0, 0
0, 0
0, 0
0, 0
0, 0
0, 0
0, 0
0, 0
0, 0
0, 0
0, 0
0, 0
0, 0
0, 0
0, 0
0, 0
0, 0
0, 0
0, 0
0, 0
0, 0
0, 0
0, 0
0, 0
0, 0
0, 0
0, 0
0, 0
#ENDOFDATA     end of spectrum data

File: ps__0567_0717304816_000rfs_shot_472.msa
#FORMAT      : EMSA/MAS spectral data file
#VERSION     : TC202v2.0 PIXL
#TITLE       : Novarupta (sol567) subset1
#DATE        : 02-11-2024      Date in the format DD-MMM-YYYY, for example 07-JUL-2010
#TIME        :             The time of day at which the spectrum was recorded, in 24-hour format
#OWNER       : PIXL Flight Model       (PIXL will use this to indicate which instrument took the data.)
#NPOINTS     : 4096     Number of data points in the spectrum (This can be zero for configuration only files)
#NCOLUMNS    : 2     Number of data columns in the spectrum (This can be zero for configuration only files)
#XUNITS      : eV
#YUNITS      : COUNTS
#DATATYPE    : YY
#XPERCHAN    : 7.862, 7.881   eV per channel (separate by commas if more than one detector)
#OFFSET      : 18.5, -22.4         eV of first channel  (separate by commas if more than one detector
#SIGNALTYPE  : XRF
#YP_TEMP     : 1.754
#LIVETIME    : 8.83716, 8.80729   seconds (separate by commas if more than one detector)
#REALTIME    : 10, 10.0   seconds (separate by commas if more than one detector)
#SPECTRUM    : start of spectrum data
0, 0
0, 0
0, 0
0, 0
0, 0
0, 0
0, 0
0, 0
0, 8
0, 3
3, 0
5, 8
10, 11
18, 23
47, 43
75, 118
462, 497
108, 108
27, 37
27, 30
52, 55
317, 314
125, 123
80, 88
251, 237
118, 120
71, 71
34, 28
10, 9
7, 10
25, 35
20, 22
25, 27
214, 257
359, 383
59, 65
47, 42
62, 52
6, 15
9, 8
14, 23
58, 75
39, 35
14, 10
13, 15
15, 18
14, 14
8, 9
11, 19
20, 40
19, 21
14, 11
11, 14
34, 31
49, 64
28, 25
18, 33
337, 460
1519, 1866
1124, 1055
126, 110
17, 13
21, 20
76, 108
220, 294
150, 164
21, 23
9, 12
15, 14
9, 15
3, 7
8, 5
4, 6
7, 13
7, 7
7, 6
5, 7
3, 7
9, 14
12, 7
8, 4
2, 5
6, 4
10, 5
1, 4
7, 6
9, 2
5, 2
5, 2
2, 5
7, 1
5, 7
7, 7
5, 2
1, 5
5, 3
6, 4
1, 2
3, 4
4, 6
1, 3
2, 1
2, 2
1, 3
3, 4
2, 2
1, 4
2, 1
1, 3
0, 2
0, 1
4, 3
1, 0
1, 1
1, 4
2, 4
4, 5
0, 5
0, 4
2, 2
0, 2
1, 2
1, 4
1, 1
2, 2
2, 0
0, 1
2, 0
3, 3
2, 2
0, 1
1, 1
1, 2
1, 1
0, 1
0, 1
2, 1
1, 0
4, 2
0, 1
1, 1
0, 1
0, 2
0, 0
2, 0
2, 0
0, 2
1, 1
0, 0
0, 1
1, 0
0, 0
0, 1
0, 0
1, 0
0, 0
0, 0
0, 0
0, 0
0, 1
0, 0
0, 1
0, 0
0, 0
0, 0
0, 0
0, 0
0, 1
0, 0
0, 0
0, 0
0, 0
0, 0
1, 1
0, 1
0, 0
0, 0
0, 0
0, 0
0, 0
0, 0
0, 0
0, 0
0, 0
0, 0
0, 0
0, 0
0, 0
0, 0
0, 0
0, 0
0, 0
0, 0
0, 0
0, 0
0, 0
0, 0
0, 0
0, 0
0, 0
0, 0
0, 0
0, 0
0, 0
0, 0
1, 0
0, 0
0, 0
0, 0
0, 0
0, 0
0, 0
0, 0
0, 0
0, 0
0, 0
0, 0
0, 0
0, 0
0, 0
0, 0
0, 0
0, 0
0, 0
0, 0
0, 0
0, 0
0, 0
0, 0
0, 0
0, 0
0, 0
0, 0
0, 0
0, 0
0, 0
0, 0
0, 0
0, 0
0, 0
0, 0
0, 0
0, 0
0, 0
0, 0
0, 0
0, 0
0, 0
0, 0
0, 0
0, 0
0, 0
0, 0
0, 0
0, 0
0, 0
0, 0
0, 0
0, 0
0, 0
0, 0
0, 0
0, 0
0, 0
0, 0
0, 0
0, 0
0, 0
0, 0
0, 0
0, 0
0, 0
0, 0
0, 0
0, 0
0, 0
0, 0
0, 0
0, 0
0, 0
0, 0
0, 0
0, 0
0, 0
0, 0
0, 0
0, 0
0, 0
0, 0
0, 0
0, 0
0, 0
0, 0
0, 0
#ENDOFDATA     end of spectrum data