Folder: data-repository/host_upload/02-11-2024/rqc/uplink1 (part 20)

File: ps__0567_0717304816_000rfs_shot_327.msa
#FORMAT      : EMSA/MAS spectral data file
#VERSION     : TC202v2.0 PIXL
#TITLE       : Novarupta (sol567) subset1
#DATE        : 02-11-2024      Date in the format DD-MMM-YYYY, for example 07-JUL-2010
#TIME        :             The time of day at which the spectrum was recorded, in 24-hour format
#OWNER       : PIXL Flight Model       (PIXL will use this to indicate which instrument took the data.)
#NPOINTS     : 4096     Number of data points in the spectrum (This can be zero for configuration only files)
#NCOLUMNS    : 2     Number of data columns in the spectrum (This can be zero for configuration only files)
#XUNITS      : eV
#YUNITS      : COUNTS
#DATATYPE    : YY
#XPERCHAN    : 7.862, 7.881   eV per channel (separate by commas if more than one detector)
#OFFSET      : 18.5, -22.4         eV of first channel  (separate by commas if more than one detector
#SIGNALTYPE  : XRF
#YP_TEMP     : 1.562
#LIVETIME    : 8.84227, 8.81592   seconds (separate by commas if more than one detector)
#REALTIME    : 10, 10.0   seconds (separate by commas if more than one detector)
#SPECTRUM    : start of spectrum data
0, 0
0, 0
0, 0
0, 0
0, 0
0, 0
0, 0
0, 1
5, 5
6, 1
2, 2
9, 9
6, 9
21, 24
30, 51
85, 129
492, 574
101, 125
25, 32
18, 25
54, 48
244, 303
113, 113
64, 76
199, 232
114, 123
70, 64
32, 36
8, 11
7, 8
20, 32
12, 24
11, 18
191, 251
323, 347
49, 42
46, 32
59, 53
13, 16
15, 7
15, 27
56, 73
27, 33
8, 20
12, 17
20, 25
12, 8
16, 15
15, 13
23, 29
14, 24
15, 12
9, 16
36, 40
37, 60
19, 16
30, 46
333, 448
1445, 1914
1077, 995
112, 114
23, 18
16, 23
70, 100
257, 280
154, 134
32, 19
6, 7
11, 16
5, 7
8, 9
4, 10
3, 6
8, 7
4, 14
13, 7
5, 8
4, 7
7, 6
8, 9
7, 4
3, 6
9, 5
9, 7
8, 3
8, 6
3, 7
8, 4
8, 4
5, 3
4, 1
2, 7
3, 7
5, 2
2, 6
2, 4
2, 4
1, 4
5, 5
6, 1
8, 3
7, 11
3, 2
3, 4
4, 5
1, 5
4, 1
2, 4
0, 3
2, 2
1, 3
2, 1
2, 2
1, 3
0, 1
2, 4
4, 1
2, 2
1, 3
1, 3
3, 1
3, 2
1, 3
2, 2
2, 1
2, 2
3, 1
1, 2
0, 1
0, 1
1, 4
1, 1
2, 0
0, 2
0, 0
1, 0
1, 0
0, 2
0, 2
0, 1
1, 1
1, 0
0, 1
0, 0
0, 1
0, 2
0, 1
0, 0
0, 1
0, 1
2, 0
0, 0
0, 1
0, 0
1, 0
0, 0
0, 0
0, 1
0, 1
1, 0
0, 0
0, 0
1, 1
0, 0
1, 0
1, 0
0, 1
0, 0
1, 0
0, 0
0, 1
0, 1
0, 1
0, 0
0, 0
1, 0
0, 1
1, 2
0, 0
0, 0
0, 0
1, 0
2, 0
0, 0
1, 0
0, 0
0, 0
0, 0
0, 0
0, 1
0, 0
0, 0
0, 0
0, 0
0, 0
1, 0
0, 0
0, 0
0, 0
0, 0
0, 0
0, 0
0, 1
0, 0
0, 0
0, 0
0, 0
0, 0
0, 0
0, 0
0, 0
0, 0
0, 0
0, 0
0, 0
0, 0
0, 0
0, 0
0, 0
0, 0
0, 0
0, 0
0, 0
0, 0
0, 0
0, 0
0, 0
0, 0
0, 0
0, 1
0, 0
0, 0
0, 0
0, 0
0, 0
0, 0
0, 0
0, 0
0, 0
0, 0
0, 0
0, 0
0, 0
0, 0
0, 0
0, 0
0, 0
0, 0
0, 0
0, 0
0, 0
0, 0
0, 0
0, 0
0, 0
0, 0
0, 0
0, 0
0, 0
0, 0
0, 0
0, 0
0, 0
0, 0
0, 0
0, 0
0, 0
0, 0
0, 0
0, 0
0, 0
0, 0
0, 0
0, 0
0, 0
0, 0
0, 0
0, 0
0, 0
0, 0
0, 0
0, 0
0, 0
0, 0
0, 0
0, 0
0, 0
0, 0
0, 0
0, 0
0, 0
0, 0
0, 0
0, 0
#ENDOFDATA     end of spectrum data

File: ps__0567_0717304816_000rfs_shot_329.msa
#FORMAT      : EMSA/MAS spectral data file
#VERSION     : TC202v2.0 PIXL
#TITLE       : Novarupta (sol567) subset1
#DATE        : 02-11-2024      Date in the format DD-MMM-YYYY, for example 07-JUL-2010
#TIME        :             The time of day at which the spectrum was recorded, in 24-hour format
#OWNER       : PIXL Flight Model       (PIXL will use this to indicate which instrument took the data.)
#NPOINTS     : 4096     Number of data points in the spectrum (This can be zero for configuration only files)
#NCOLUMNS    : 2     Number of data columns in the spectrum (This can be zero for configuration only files)
#XUNITS      : eV
#YUNITS      : COUNTS
#DATATYPE    : YY
#XPERCHAN    : 7.862, 7.881   eV per channel (separate by commas if more than one detector)
#OFFSET      : 18.5, -22.4         eV of first channel  (separate by commas if more than one detector
#SIGNALTYPE  : XRF
#YP_TEMP     : 1.369
#LIVETIME    : 8.84615, 8.82383   seconds (separate by commas if more than one detector)
#REALTIME    : 10, 10.0   seconds (separate by commas if more than one detector)
#SPECTRUM    : start of spectrum data
0, 0
0, 0
0, 0
0, 0
0, 0
0, 0
0, 0
2, 0
4, 4
4, 3
3, 3
14, 10
13, 10
24, 34
46, 44
100, 102
423, 542
103, 121
17, 34
16, 25
49, 56
262, 349
105, 100
68, 60
211, 215
113, 109
69, 75
17, 31
6, 9
7, 3
23, 48
19, 16
15, 21
185, 229
308, 309
57, 39
31, 40
45, 52
11, 14
7, 11
18, 22
43, 47
29, 29
18, 11
20, 12
17, 19
17, 10
5, 10
12, 18
31, 28
19, 20
14, 17
12, 19
34, 33
35, 49
17, 21
25, 31
388, 457
1606, 1805
1051, 1009
108, 93
14, 13
31, 19
79, 99
257, 279
147, 171
25, 15
14, 4
5, 17
7, 11
5, 8
3, 6
5, 5
1, 2
7, 8
9, 9
8, 6
8, 8
8, 12
9, 8
6, 6
7, 7
5, 6
2, 2
9, 2
5, 5
3, 3
10, 3
4, 9
6, 6
5, 5
5, 4
2, 8
2, 4
5, 5
4, 5
4, 2
4, 2
5, 4
3, 2
2, 3
0, 2
3, 3
2, 1
0, 1
4, 1
2, 1
2, 3
2, 3
5, 3
2, 1
0, 3
1, 3
2, 0
5, 3
2, 5
5, 1
4, 2
4, 2
1, 1
1, 4
2, 3
2, 1
3, 1
3, 1
3, 1
1, 1
4, 2
0, 1
1, 3
1, 1
1, 0
0, 0
0, 0
0, 1
0, 2
2, 0
0, 0
0, 0
0, 1
3, 0
0, 1
0, 1
0, 1
0, 2
1, 1
0, 1
1, 1
0, 1
0, 0
0, 1
0, 1
1, 0
0, 0
0, 0
1, 0
0, 0
0, 1
1, 0
0, 0
0, 0
0, 0
0, 1
0, 0
0, 0
0, 0
0, 0
0, 0
0, 0
0, 1
0, 0
0, 0
0, 0
0, 0
0, 0
0, 0
0, 0
0, 0
0, 0
0, 0
0, 0
0, 0
0, 0
2, 0
0, 1
0, 0
0, 0
0, 0
0, 0
0, 0
0, 0
0, 0
0, 0
1, 0
0, 0
0, 0
0, 0
0, 0
0, 0
0, 0
1, 0
0, 0
0, 0
0, 0
0, 0
1, 0
0, 0
0, 0
0, 0
0, 0
0, 0
0, 0
0, 0
0, 0
0, 0
0, 0
0, 0
0, 0
0, 0
0, 0
0, 0
0, 0
0, 0
0, 0
0, 0
0, 0
0, 0
0, 0
0, 0
0, 0
0, 0
0, 0
0, 0
0, 0
0, 0
0, 0
0, 0
0, 0
0, 0
0, 0
0, 0
0, 0
0, 0
0, 0
0, 0
0, 0
0, 0
0, 0
0, 0
0, 0
0, 0
0, 0
0, 0
0, 0
0, 0
0, 0
0, 0
0, 0
0, 0
0, 0
0, 0
0, 0
0, 0
0, 0
0, 0
0, 0
0, 0
0, 0
0, 0
0, 0
0, 0
0, 0
0, 0
0, 0
0, 0
0, 0
0, 0
0, 0
0, 0
0, 0
0, 0
0, 0
0, 0
0, 0
0, 0
0, 0
0, 0
0, 0
0, 0
0, 0
0, 0
0, 0
0, 0
0, 0
#ENDOFDATA     end of spectrum data

File: ps__0567_0717304816_000rfs_shot_330.msa
#FORMAT      : EMSA/MAS spectral data file
#VERSION     : TC202v2.0 PIXL
#TITLE       : Novarupta (sol567) subset1
#DATE        : 02-11-2024      Date in the format DD-MMM-YYYY, for example 07-JUL-2010
#TIME        :             The time of day at which the spectrum was recorded, in 24-hour format
#OWNER       : PIXL Flight Model       (PIXL will use this to indicate which instrument took the data.)
#NPOINTS     : 4096     Number of data points in the spectrum (This can be zero for configuration only files)
#NCOLUMNS    : 2     Number of data columns in the spectrum (This can be zero for configuration only files)
#XUNITS      : eV
#YUNITS      : COUNTS
#DATATYPE    : YY
#XPERCHAN    : 7.862, 7.881   eV per channel (separate by commas if more than one detector)
#OFFSET      : 18.5, -22.4         eV of first channel  (separate by commas if more than one detector
#SIGNALTYPE  : XRF
#YP_TEMP     : 1.337
#LIVETIME    : 8.83702, 8.82037   seconds (separate by commas if more than one detector)
#REALTIME    : 10, 10.0   seconds (separate by commas if more than one detector)
#SPECTRUM    : start of spectrum data
0, 0
0, 0
0, 0
0, 0
0, 0
0, 0
0, 0
0, 0
3, 5
1, 6
3, 6
18, 8
10, 10
25, 16
44, 61
109, 116
454, 543
116, 126
29, 35
22, 24
64, 56
284, 315
139, 133
62, 57
191, 214
108, 110
72, 67
24, 23
3, 12
7, 12
40, 37
19, 10
22, 24
197, 259
295, 354
62, 55
47, 50
47, 56
7, 19
8, 7
18, 27
61, 73
41, 26
13, 18
10, 24
22, 18
8, 12
6, 13
11, 20
33, 18
27, 19
17, 14
13, 15
29, 40
35, 46
34, 20
15, 25
345, 460
1497, 1838
1016, 1007
122, 98
12, 16
10, 20
87, 107
231, 269
125, 157
18, 20
9, 10
9, 16
5, 9
6, 12
4, 5
10, 12
5, 6
10, 5
7, 8
6, 3
7, 7
14, 13
8, 14
7, 15
4, 5
9, 3
2, 7
4, 5
6, 3
6, 6
5, 10
1, 11
5, 7
6, 3
8, 2
4, 5
3, 4
2, 4
2, 5
4, 9
4, 3
2, 5
3, 4
2, 3
6, 3
4, 1
2, 5
3, 1
3, 0
2, 6
2, 5
2, 2
2, 0
3, 5
1, 3
4, 2
1, 4
7, 1
1, 3
1, 6
1, 1
2, 1
1, 1
0, 1
2, 0
0, 1
1, 4
1, 0
1, 1
0, 1
0, 0
3, 0
0, 0
3, 0
1, 0
0, 0
1, 0
1, 2
0, 1
0, 2
1, 0
3, 2
0, 1
0, 1
1, 0
0, 1
0, 3
1, 0
1, 1
0, 1
1, 0
0, 0
1, 0
0, 0
0, 0
0, 0
0, 0
0, 0
0, 3
0, 0
0, 0
0, 0
0, 0
0, 1
1, 0
0, 0
0, 0
0, 0
0, 0
0, 0
0, 0
0, 0
0, 0
0, 0
1, 1
0, 1
0, 0
0, 0
0, 0
0, 0
0, 0
0, 0
0, 0
0, 0
0, 1
0, 0
1, 1
0, 0
0, 1
0, 0
0, 0
0, 0
1, 0
0, 0
0, 0
1, 0
0, 0
0, 0
0, 0
0, 0
0, 0
0, 0
0, 0
0, 0
0, 0
0, 0
0, 0
0, 0
0, 0
0, 0
0, 0
0, 0
0, 0
0, 0
0, 0
0, 0
0, 0
0, 0
0, 0
0, 0
0, 0
0, 0
0, 0
0, 0
0, 0
0, 0
0, 0
0, 0
0, 0
0, 0
0, 0
0, 0
0, 0
0, 0
0, 0
0, 0
0, 0
0, 0
0, 0
0, 0
0, 0
0, 0
0, 0
0, 0
0, 0
0, 0
0, 0
0, 0
0, 0
0, 0
0, 0
0, 0
0, 0
0, 0
0, 0
0, 0
0, 0
0, 0
0, 0
0, 0
0, 0
0, 0
0, 0
0, 0
0, 0
0, 0
0, 0
0, 0
0, 0
0, 0
0, 0
0, 0
0, 0
0, 0
0, 0
0, 0
0, 0
0, 0
0, 0
0, 0
0, 0
0, 0
0, 0
0, 0
0, 0
0, 0
0, 0
0, 0
0, 0
0, 0
0, 0
0, 0
0, 0
0, 0
0, 0
0, 0
0, 0
#ENDOFDATA     end of spectrum data

File: ps__0567_0717304816_000rfs_shot_334.msa
#FORMAT      : EMSA/MAS spectral data file
#VERSION     : TC202v2.0 PIXL
#TITLE       : Novarupta (sol567) subset1
#DATE        : 02-11-2024      Date in the format DD-MMM-YYYY, for example 07-JUL-2010
#TIME        :             The time of day at which the spectrum was recorded, in 24-hour format
#OWNER       : PIXL Flight Model       (PIXL will use this to indicate which instrument took the data.)
#NPOINTS     : 4096     Number of data points in the spectrum (This can be zero for configuration only files)
#NCOLUMNS    : 2     Number of data columns in the spectrum (This can be zero for configuration only files)
#XUNITS      : eV
#YUNITS      : COUNTS
#DATATYPE    : YY
#XPERCHAN    : 7.862, 7.881   eV per channel (separate by commas if more than one detector)
#OFFSET      : 18.5, -22.4         eV of first channel  (separate by commas if more than one detector
#SIGNALTYPE  : XRF
#YP_TEMP     : 1.337
#LIVETIME    : 8.83923, 8.83493   seconds (separate by commas if more than one detector)
#REALTIME    : 10, 10.0   seconds (separate by commas if more than one detector)
#SPECTRUM    : start of spectrum data
0, 0
0, 0
0, 0
0, 0
0, 0
0, 0
0, 0
1, 0
2, 0
3, 4
1, 6
15, 10
19, 7
16, 26
44, 52
85, 119
446, 534
110, 111
27, 38
14, 19
44, 54
280, 343
106, 117
50, 77
203, 223
102, 132
66, 58
27, 27
9, 14
5, 14
23, 27
24, 12
9, 17
213, 229
345, 346
44, 52
44, 53
61, 60
10, 17
12, 12
19, 24
48, 63
37, 29
19, 17
8, 11
17, 16
9, 12
11, 11
9, 14
20, 27
20, 20
17, 10
11, 13
33, 38
48, 44
23, 20
26, 43
307, 487
1502, 1764
1000, 1050
117, 92
17, 25
16, 22
75, 108
230, 274
148, 165
29, 28
7, 8
17, 13
9, 7
7, 9
2, 4
9, 9
6, 10
8, 11
14, 12
3, 7
5, 8
12, 12
12, 8
6, 6
3, 8
4, 7
4, 6
4, 6
1, 8
2, 6
5, 5
3, 2
7, 2
5, 4
3, 5
5, 10
5, 2
2, 3
2, 5
1, 3
0, 5
1, 3
2, 2
1, 2
4, 6
4, 3
1, 2
2, 3
1, 4
1, 4
2, 4
3, 3
3, 5
2, 2
2, 2
0, 0
0, 0
2, 2
1, 4
0, 1
1, 5
3, 0
2, 2
2, 3
0, 0
1, 3
4, 2
0, 1
0, 2
1, 3
1, 3
1, 1
0, 0
1, 0
1, 1
2, 0
3, 0
0, 0
0, 0
1, 0
1, 1
1, 1
0, 1
0, 3
1, 2
1, 1
1, 0
0, 2
0, 0
1, 0
0, 0
0, 1
0, 0
1, 1
1, 1
0, 0
0, 0
0, 0
0, 0
0, 0
0, 0
0, 0
1, 0
0, 1
0, 0
1, 0
0, 0
0, 1
0, 0
0, 0
0, 0
0, 0
0, 0
0, 0
1, 0
0, 0
0, 0
0, 0
0, 0
0, 0
0, 1
1, 0
0, 0
0, 0
0, 0
0, 0
0, 1
0, 1
0, 0
0, 0
0, 0
0, 0
0, 0
0, 0
0, 0
0, 0
0, 0
0, 0
0, 0
0, 0
0, 0
0, 0
0, 0
0, 0
0, 0
0, 0
0, 0
0, 0
0, 0
0, 0
0, 0
0, 0
0, 0
0, 0
0, 0
0, 0
0, 0
0, 0
0, 0
0, 0
0, 0
0, 0
0, 0
0, 0
0, 0
0, 0
0, 0
0, 0
0, 0
0, 0
0, 0
0, 0
0, 0
0, 0
0, 0
0, 0
0, 0
0, 0
0, 0
0, 0
0, 0
0, 0
0, 0
0, 0
0, 0
0, 0
0, 0
0, 0
0, 0
0, 0
0, 0
0, 0
0, 0
0, 0
0, 0
0, 0
0, 0
0, 0
0, 0
0, 0
0, 0
0, 0
0, 0
0, 0
0, 0
0, 0
0, 0
0, 0
0, 0
0, 0
0, 0
0, 0
0, 0
0, 0
0, 0
0, 0
0, 0
0, 0
0, 0
0, 0
0, 0
0, 0
0, 0
0, 0
0, 0
0, 0
0, 0
0, 0
0, 0
0, 0
0, 0
0, 0
0, 0
0, 0
0, 0
0, 0
0, 0
#ENDOFDATA     end of spectrum data

File: ps__0567_0717304816_000rfs_shot_336.msa
#FORMAT      : EMSA/MAS spectral data file
#VERSION     : TC202v2.0 PIXL
#TITLE       : Novarupta (sol567) subset1
#DATE        : 02-11-2024      Date in the format DD-MMM-YYYY, for example 07-JUL-2010
#TIME        :             The time of day at which the spectrum was recorded, in 24-hour format
#OWNER       : PIXL Flight Model       (PIXL will use this to indicate which instrument took the data.)
#NPOINTS     : 4096     Number of data points in the spectrum (This can be zero for configuration only files)
#NCOLUMNS    : 2     Number of data columns in the spectrum (This can be zero for configuration only files)
#XUNITS      : eV
#YUNITS      : COUNTS
#DATATYPE    : YY
#XPERCHAN    : 7.862, 7.881   eV per channel (separate by commas if more than one detector)
#OFFSET      : 18.5, -22.4         eV of first channel  (separate by commas if more than one detector
#SIGNALTYPE  : XRF
#YP_TEMP     : 1.369
#LIVETIME    : 8.84783, 8.82289   seconds (separate by commas if more than one detector)
#REALTIME    : 10, 10.0   seconds (separate by commas if more than one detector)
#SPECTRUM    : start of spectrum data
0, 0
0, 0
0, 0
0, 0
0, 0
0, 0
0, 1
0, 1
2, 3
1, 6
3, 1
17, 5
15, 12
28, 24
42, 56
101, 129
448, 507
123, 108
26, 33
21, 21
41, 41
267, 337
112, 114
66, 78
223, 230
92, 113
75, 60
36, 27
12, 14
3, 12
24, 26
11, 12
14, 19
181, 225
289, 313
57, 43
35, 39
41, 53
13, 10
7, 8
28, 29
70, 69
34, 41
12, 13
13, 10
17, 21
14, 19
9, 15
8, 14
29, 29
18, 20
6, 15
11, 14
40, 33
62, 39
32, 21
27, 34
321, 472
1465, 1732
971, 1017
135, 79
14, 20
23, 15
77, 99
207, 269
143, 154
22, 20
6, 10
10, 10
4, 8
7, 8
4, 7
8, 8
6, 9
2, 3
6, 8
4, 10
9, 5
5, 10
14, 11
5, 7
6, 10
5, 3
3, 4
6, 3
0, 4
1, 5
2, 8
3, 8
2, 4
8, 3
5, 4
7, 6
1, 6
4, 3
2, 3
4, 3
1, 3
1, 2
3, 4
3, 2
3, 4
3, 5
1, 6
1, 3
1, 3
2, 2
5, 4
1, 2
1, 5
0, 3
4, 0
0, 2
5, 2
1, 3
2, 0
2, 4
1, 1
0, 0
0, 2
1, 0
3, 4
3, 4
3, 0
2, 1
1, 0
2, 0
0, 0
1, 0
0, 1
0, 0
0, 2
1, 1
0, 0
1, 0
1, 1
0, 2
0, 1
0, 1
0, 0
1, 1
0, 2
0, 1
0, 0
0, 0
1, 0
0, 0
0, 0
0, 0
2, 0
0, 1
0, 0
1, 1
2, 0
1, 1
1, 0
0, 0
0, 0
0, 0
0, 1
0, 1
0, 0
0, 0
0, 1
1, 0
0, 0
1, 0
0, 1
0, 0
0, 0
0, 0
0, 0
0, 0
0, 0
0, 2
0, 0
0, 0
0, 0
0, 0
0, 1
0, 0
0, 0
0, 0
0, 0
0, 0
0, 0
1, 0
0, 0
0, 0
0, 1
0, 0
0, 0
0, 0
0, 0
0, 0
0, 1
0, 0
0, 0
0, 0
0, 0
0, 0
0, 0
0, 0
0, 0
0, 0
0, 0
0, 0
0, 0
2, 0
0, 0
0, 0
0, 0
0, 0
0, 0
0, 0
0, 0
0, 0
0, 0
0, 0
0, 0
0, 0
0, 0
0, 0
0, 0
0, 0
0, 0
0, 0
0, 0
0, 0
0, 0
0, 0
0, 0
0, 0
0, 0
0, 0
0, 0
0, 0
1, 0
0, 1
0, 0
0, 0
0, 0
0, 0
0, 0
0, 0
0, 0
0, 0
0, 0
0, 0
0, 0
0, 0
0, 0
0, 0
0, 0
0, 0
0, 0
0, 0
0, 0
0, 0
0, 0
0, 0
0, 0
0, 0
0, 0
0, 0
0, 0
0, 0
0, 0
0, 0
0, 0
0, 0
0, 0
0, 0
0, 0
0, 0
0, 0
0, 0
0, 0
0, 0
0, 0
0, 0
0, 0
0, 0
0, 0
0, 0
0, 0
0, 0
0, 0
0, 0
0, 0
0, 0
0, 0
0, 0
0, 0
#ENDOFDATA     end of spectrum data

File: ps__0567_0717304816_000rfs_shot_338.msa
#FORMAT      : EMSA/MAS spectral data file
#VERSION     : TC202v2.0 PIXL
#TITLE       : Novarupta (sol567) subset1
#DATE        : 02-11-2024      Date in the format DD-MMM-YYYY, for example 07-JUL-2010
#TIME        :             The time of day at which the spectrum was recorded, in 24-hour format
#OWNER       : PIXL Flight Model       (PIXL will use this to indicate which instrument took the data.)
#NPOINTS     : 4096     Number of data points in the spectrum (This can be zero for configuration only files)
#NCOLUMNS    : 2     Number of data columns in the spectrum (This can be zero for configuration only files)
#XUNITS      : eV
#YUNITS      : COUNTS
#DATATYPE    : YY
#XPERCHAN    : 7.862, 7.881   eV per channel (separate by commas if more than one detector)
#OFFSET      : 18.5, -22.4         eV of first channel  (separate by commas if more than one detector
#SIGNALTYPE  : XRF
#YP_TEMP     : 1.658
#LIVETIME    : 8.84776, 8.63567   seconds (separate by commas if more than one detector)
#REALTIME    : 10, 10.0   seconds (separate by commas if more than one detector)
#SPECTRUM    : start of spectrum data
0, 0
0, 0
0, 0
0, 0
0, 0
0, 0
0, 0
0, 1
2, 3
2, 2
4, 3
12, 13
16, 17
27, 19
45, 35
127, 140
508, 512
118, 107
24, 33
21, 28
51, 57
270, 309
122, 106
67, 76
213, 192
112, 100
69, 71
25, 29
10, 18
6, 13
35, 25
18, 20
18, 22
201, 261
335, 330
48, 41
47, 35
39, 48
11, 15
7, 16
16, 23
58, 63
50, 39
15, 18
17, 18
24, 24
10, 16
5, 13
17, 10
28, 37
23, 25
8, 12
18, 12
26, 38
60, 56
22, 13
17, 41
317, 398
1590, 1690
1037, 950
122, 95
8, 11
19, 18
68, 82
257, 266
167, 164
13, 23
7, 10
9, 11
6, 8
5, 9
4, 3
3, 6
9, 7
6, 13
6, 6
4, 8
10, 6
8, 5
10, 7
8, 8
8, 6
8, 10
3, 7
6, 7
4, 3
2, 4
5, 3
4, 5
6, 3
4, 6
2, 8
5, 3
3, 5
3, 4
5, 2
1, 3
4, 3
5, 5
4, 4
1, 4
2, 2
3, 2
2, 3
6, 0
4, 2
3, 2
2, 6
2, 3
3, 1
5, 1
0, 0
2, 4
5, 3
1, 3
2, 3
1, 3
2, 2
0, 3
1, 4
2, 1
2, 1
1, 0
1, 5
1, 0
2, 2
3, 0
0, 2
1, 2
1, 1
3, 1
0, 0
0, 0
0, 0
1, 0
1, 1
2, 0
0, 2
0, 1
0, 0
0, 3
0, 0
0, 1
0, 1
0, 1
0, 1
0, 0
0, 2
0, 0
1, 1
0, 0
1, 3
0, 2
1, 0
0, 1
0, 0
1, 1
0, 0
1, 0
0, 0
2, 0
0, 0
0, 0
0, 1
0, 1
0, 1
0, 0
1, 0
1, 0
1, 0
0, 0
0, 0
0, 1
0, 0
0, 0
0, 0
0, 0
0, 0
0, 1
0, 0
0, 0
0, 0
0, 0
1, 1
0, 0
0, 0
0, 0
0, 0
0, 0
0, 0
0, 1
0, 0
0, 0
0, 0
1, 0
0, 0
0, 0
0, 0
0, 0
0, 0
1, 0
0, 0
0, 0
1, 0
0, 0
0, 0
0, 0
0, 0
0, 0
0, 0
0, 0
0, 0
0, 0
0, 0
0, 0
0, 0
0, 0
0, 0
0, 0
0, 0
0, 0
0, 0
0, 0
0, 0
0, 0
0, 0
0, 0
0, 0
0, 0
0, 0
0, 0
0, 0
0, 0
0, 0
0, 0
0, 0
0, 0
0, 0
0, 0
0, 0
0, 0
0, 0
0, 0
0, 0
0, 0
0, 0
0, 0
0, 0
0, 0
0, 0
0, 0
0, 0
0, 0
0, 0
0, 0
0, 0
0, 0
0, 0
0, 0
0, 0
0, 0
0, 0
0, 0
0, 0
0, 0
0, 0
0, 0
0, 0
0, 0
0, 0
0, 0
0, 0
0, 0
0, 0
0, 0
0, 0
0, 0
0, 0
0, 0
0, 0
0, 0
0, 0
0, 0
0, 0
0, 0
0, 0
0, 0
0, 0
0, 0
0, 0
0, 0
0, 0
0, 0
0, 0
#ENDOFDATA     end of spectrum data

File: ps__0567_0717304816_000rfs_shot_344.msa
#FORMAT      : EMSA/MAS spectral data file
#VERSION     : TC202v2.0 PIXL
#TITLE       : Novarupta (sol567) subset1
#DATE        : 02-11-2024      Date in the format DD-MMM-YYYY, for example 07-JUL-2010
#TIME        :             The time of day at which the spectrum was recorded, in 24-hour format
#OWNER       : PIXL Flight Model       (PIXL will use this to indicate which instrument took the data.)
#NPOINTS     : 4096     Number of data points in the spectrum (This can be zero for configuration only files)
#NCOLUMNS    : 2     Number of data columns in the spectrum (This can be zero for configuration only files)
#XUNITS      : eV
#YUNITS      : COUNTS
#DATATYPE    : YY
#XPERCHAN    : 7.862, 7.881   eV per channel (separate by commas if more than one detector)
#OFFSET      : 18.5, -22.4         eV of first channel  (separate by commas if more than one detector
#SIGNALTYPE  : XRF
#YP_TEMP     : 1.273
#LIVETIME    : 8.83782, 8.82105   seconds (separate by commas if more than one detector)
#REALTIME    : 10, 10.0   seconds (separate by commas if more than one detector)
#SPECTRUM    : start of spectrum data
0, 0
0, 0
0, 0
0, 0
0, 0
0, 0
0, 0
1, 1
2, 4
1, 3
3, 4
10, 10
10, 17
26, 24
44, 45
111, 105
508, 494
122, 113
35, 26
18, 25
56, 71
345, 386
150, 150
52, 77
197, 248
109, 119
51, 62
30, 37
8, 5
6, 6
28, 34
16, 22
22, 24
196, 217
323, 310
51, 57
36, 30
50, 53
11, 12
7, 10
28, 24
63, 71
40, 52
18, 14
7, 15
17, 25
15, 13
9, 12
13, 11
21, 42
19, 17
11, 14
7, 15
27, 52
51, 58
30, 22
33, 44
359, 444
1581, 1690
1069, 1094
105, 121
19, 27
19, 30
104, 97
263, 264
179, 162
29, 16
5, 14
17, 16
8, 7
3, 6
5, 5
4, 5
3, 6
8, 6
7, 11
6, 9
11, 11
9, 13
9, 22
11, 6
10, 5
6, 8
5, 6
6, 5
6, 5
5, 7
5, 8
9, 5
6, 5
5, 3
7, 7
4, 3
3, 4
5, 4
1, 3
2, 4
2, 3
3, 6
4, 1
3, 7
2, 1
2, 2
2, 3
0, 2
1, 2
4, 1
0, 1
3, 2
2, 2
3, 1
2, 2
1, 5
0, 0
0, 1
2, 0
4, 4
3, 4
1, 1
3, 5
2, 3
1, 2
1, 2
1, 1
1, 2
1, 1
2, 2
0, 1
2, 3
1, 1
1, 1
1, 2
2, 0
1, 0
0, 0
0, 0
0, 1
0, 1
0, 0
3, 0
0, 2
3, 0
1, 0
0, 0
2, 2
0, 0
0, 0
0, 0
0, 0
0, 2
0, 0
3, 0
0, 0
0, 0
0, 0
0, 1
0, 1
0, 0
0, 0
0, 2
0, 0
0, 0
0, 0
0, 0
1, 0
0, 2
0, 0
0, 0
0, 0
0, 0
1, 0
0, 0
2, 1
0, 0
0, 0
2, 0
0, 0
0, 0
0, 1
0, 0
0, 0
0, 0
0, 0
0, 1
0, 0
0, 0
0, 0
0, 0
0, 0
0, 0
0, 0
0, 0
0, 0
0, 0
0, 0
0, 0
0, 0
0, 0
0, 0
0, 0
0, 0
1, 0
0, 0
0, 0
0, 0
0, 0
0, 0
0, 0
0, 0
0, 0
0, 0
0, 0
0, 0
0, 0
0, 0
0, 0
0, 0
0, 0
0, 0
0, 0
0, 0
0, 0
0, 0
0, 0
0, 0
0, 0
0, 0
0, 0
0, 0
0, 0
0, 0
0, 0
0, 0
0, 0
0, 0
0, 0
0, 0
0, 0
0, 0
0, 0
0, 0
0, 0
0, 0
0, 0
0, 0
0, 0
0, 0
0, 0
0, 0
0, 0
0, 0
0, 0
0, 0
0, 0
0, 0
0, 0
0, 0
0, 0
0, 0
0, 0
0, 0
0, 0
0, 0
0, 0
0, 0
0, 0
0, 0
0, 0
0, 0
0, 0
0, 0
0, 0
0, 0
0, 0
0, 0
0, 0
0, 0
0, 0
0, 0
0, 0
0, 0
0, 0
0, 0
0, 0
0, 0
0, 0
0, 0
0, 0
0, 0
0, 0
0, 0
0, 0
0, 0
0, 0
#ENDOFDATA     end of spectrum data

File: ps__0567_0717304816_000rfs_shot_346.msa
#FORMAT      : EMSA/MAS spectral data file
#VERSION     : TC202v2.0 PIXL
#TITLE       : Novarupta (sol567) subset1
#DATE        : 02-11-2024      Date in the format DD-MMM-YYYY, for example 07-JUL-2010
#TIME        :             The time of day at which the spectrum was recorded, in 24-hour format
#OWNER       : PIXL Flight Model       (PIXL will use this to indicate which instrument took the data.)
#NPOINTS     : 4096     Number of data points in the spectrum (This can be zero for configuration only files)
#NCOLUMNS    : 2     Number of data columns in the spectrum (This can be zero for configuration only files)
#XUNITS      : eV
#YUNITS      : COUNTS
#DATATYPE    : YY
#XPERCHAN    : 7.862, 7.881   eV per channel (separate by commas if more than one detector)
#OFFSET      : 18.5, -22.4         eV of first channel  (separate by commas if more than one detector
#SIGNALTYPE  : XRF
#YP_TEMP     : 1.369
#LIVETIME    : 8.83851, 8.81901   seconds (separate by commas if more than one detector)
#REALTIME    : 10, 10.0   seconds (separate by commas if more than one detector)
#SPECTRUM    : start of spectrum data
0, 0
0, 0
0, 0
0, 0
0, 0
0, 0
0, 0
0, 0
2, 4
3, 2
6, 0
14, 8
14, 12
27, 24
33, 45
110, 110
472, 518
108, 141
27, 34
26, 28
40, 47
272, 322
120, 129
64, 62
186, 207
105, 107
74, 82
30, 31
6, 10
8, 11
18, 35
15, 12
19, 18
179, 238
305, 360
40, 51
26, 40
53, 53
13, 10
2, 6
17, 30
53, 75
32, 33
19, 13
14, 18
17, 31
8, 11
12, 11
11, 21
25, 46
24, 21
6, 7
10, 9
22, 31
28, 50
23, 28
24, 39
347, 453
1544, 1770
1030, 1073
96, 109
17, 27
16, 17
97, 83
265, 268
150, 174
17, 21
11, 3
12, 19
8, 5
11, 8
2, 4
7, 5
10, 5
10, 5
7, 13
7, 7
12, 10
11, 14
11, 12
8, 10
5, 7
3, 3
6, 5
4, 5
3, 1
5, 3
5, 9
9, 7
3, 8
2, 11
6, 3
4, 6
5, 5
4, 6
4, 2
5, 7
2, 5
3, 3
8, 1
4, 3
5, 6
8, 2
3, 5
1, 0
1, 3
3, 2
0, 3
3, 2
1, 5
1, 2
1, 4
2, 1
0, 2
6, 5
4, 5
3, 1
2, 3
2, 5
5, 1
4, 0
5, 3
4, 0
1, 2
3, 1
0, 2
3, 2
2, 1
0, 0
1, 0
0, 0
2, 0
1, 0
1, 1
2, 1
0, 1
1, 1
0, 0
1, 1
1, 1
3, 1
1, 1
1, 1
2, 0
1, 0
0, 1
0, 0
0, 1
1, 0
0, 0
0, 0
1, 0
1, 2
0, 0
0, 0
1, 0
0, 0
0, 1
0, 2
0, 0
0, 0
0, 1
0, 1
0, 0
0, 0
0, 1
0, 0
1, 1
2, 0
0, 0
1, 0
0, 0
0, 0
0, 1
0, 0
0, 0
1, 0
0, 0
2, 0
0, 0
0, 0
0, 0
0, 0
0, 0
0, 0
0, 1
0, 0
0, 0
0, 0
0, 0
0, 0
0, 0
0, 0
0, 0
0, 0
0, 1
0, 0
0, 0
0, 0
0, 0
0, 0
0, 0
0, 0
0, 0
0, 0
0, 0
0, 0
0, 0
0, 0
0, 0
0, 0
0, 0
0, 0
0, 0
0, 0
0, 0
0, 0
0, 0
0, 0
0, 0
0, 0
0, 0
0, 0
0, 0
0, 0
0, 0
0, 0
0, 0
0, 0
0, 0
0, 0
0, 0
0, 0
0, 0
0, 0
0, 0
0, 0
0, 0
0, 0
0, 0
0, 0
0, 0
0, 0
0, 0
0, 0
0, 0
0, 0
0, 0
0, 0
0, 0
0, 0
0, 0
0, 0
0, 0
0, 0
0, 0
0, 0
0, 0
0, 0
0, 0
0, 0
0, 0
0, 0
0, 0
0, 0
0, 0
0, 0
0, 0
0, 0
0, 0
0, 0
0, 0
0, 0
0, 0
0, 0
0, 0
0, 0
0, 0
0, 0
0, 0
0, 0
0, 0
0, 0
0, 0
0, 0
0, 0
0, 0
0, 0
0, 0
0, 0
0, 0
0, 0
0, 0
0, 0
#ENDOFDATA     end of spectrum data

File: ps__0567_0717304816_000rfs_shot_347.msa
#FORMAT      : EMSA/MAS spectral data file
#VERSION     : TC202v2.0 PIXL
#TITLE       : Novarupta (sol567) subset1
#DATE        : 02-11-2024      Date in the format DD-MMM-YYYY, for example 07-JUL-2010
#TIME        :             The time of day at which the spectrum was recorded, in 24-hour format
#OWNER       : PIXL Flight Model       (PIXL will use this to indicate which instrument took the data.)
#NPOINTS     : 4096     Number of data points in the spectrum (This can be zero for configuration only files)
#NCOLUMNS    : 2     Number of data columns in the spectrum (This can be zero for configuration only files)
#XUNITS      : eV
#YUNITS      : COUNTS
#DATATYPE    : YY
#XPERCHAN    : 7.862, 7.881   eV per channel (separate by commas if more than one detector)
#OFFSET      : 18.5, -22.4         eV of first channel  (separate by commas if more than one detector
#SIGNALTYPE  : XRF
#YP_TEMP     : 1.466
#LIVETIME    : 8.83262, 8.81681   seconds (separate by commas if more than one detector)
#REALTIME    : 10, 10.0   seconds (separate by commas if more than one detector)
#SPECTRUM    : start of spectrum data
0, 0
0, 0
0, 0
0, 0
0, 0
0, 0
0, 0
1, 0
3, 3
0, 2
3, 3
13, 12
10, 16
23, 22
40, 51
106, 117
460, 515
132, 114
29, 24
23, 22
57, 50
276, 306
96, 125
53, 76
207, 224
120, 113
69, 68
19, 35
9, 9
11, 5
33, 23
16, 18
19, 17
173, 227
302, 357
46, 46
32, 41
40, 45
12, 22
11, 6
19, 31
68, 70
30, 53
20, 17
13, 9
16, 16
7, 13
9, 12
7, 11
25, 35
25, 28
12, 9
11, 22
37, 25
40, 46
15, 21
17, 36
368, 500
1555, 1814
1029, 1058
119, 97
17, 8
16, 20
80, 121
270, 299
169, 137
21, 19
3, 14
12, 17
10, 8
6, 9
7, 4
8, 4
6, 12
7, 8
4, 9
10, 13
7, 3
10, 18
13, 16
5, 10
14, 7
6, 8
8, 2
3, 4
2, 8
4, 2
3, 5
5, 3
4, 6
5, 7
2, 3
1, 6
6, 5
5, 4
1, 5
1, 3
4, 3
2, 5
3, 3
3, 3
2, 1
1, 3
3, 5
2, 3
1, 1
2, 1
5, 1
3, 4
1, 0
4, 2
0, 4
1, 2
0, 1
2, 2
0, 2
2, 1
2, 2
2, 3
1, 1
2, 1
1, 1
1, 2
1, 2
1, 2
1, 2
1, 1
1, 2
2, 0
0, 1
2, 1
0, 0
1, 0
0, 0
0, 0
1, 2
0, 1
0, 1
0, 0
2, 1
0, 2
0, 1
0, 0
0, 0
0, 2
2, 0
0, 0
1, 0
1, 1
0, 0
0, 1
0, 0
2, 0
0, 1
0, 0
1, 1
0, 1
2, 1
0, 1
1, 0
0, 0
0, 0
0, 0
0, 0
0, 0
0, 1
0, 1
0, 1
0, 0
1, 0
0, 0
0, 1
2, 1
0, 1
0, 0
0, 0
0, 0
0, 0
0, 0
0, 0
0, 0
0, 0
0, 0
0, 0
0, 0
0, 0
0, 0
1, 0
0, 0
0, 0
0, 0
0, 0
0, 0
0, 0
0, 0
0, 0
0, 0
0, 1
0, 0
0, 0
0, 0
0, 0
0, 0
1, 0
0, 0
0, 0
0, 0
1, 1
0, 0
0, 0
0, 0
0, 0
0, 0
0, 0
0, 0
0, 0
0, 0
0, 0
0, 0
0, 0
0, 0
0, 0
0, 0
0, 0
0, 0
0, 0
0, 0
0, 0
0, 0
0, 0
0, 0
0, 0
0, 0
0, 0
0, 0
0, 0
0, 0
0, 0
0, 0
0, 0
0, 0
0, 0
0, 0
0, 0
0, 0
0, 0
0, 0
0, 0
0, 0
0, 0
0, 0
0, 0
0, 0
0, 0
0, 0
0, 0
0, 0
0, 0
0, 0
0, 0
0, 0
0, 0
0, 0
0, 0
0, 0
0, 0
0, 0
0, 0
0, 0
0, 0
0, 0
0, 0
0, 0
0, 0
0, 0
0, 0
0, 0
0, 0
0, 0
0, 0
0, 0
0, 0
0, 0
0, 0
0, 0
0, 0
0, 0
0, 0
0, 0
0, 0
0, 0
0, 0
0, 0
0, 0
#ENDOFDATA     end of spectrum data